image_filename,timestamp_ns,timestamp_sec,latitude,longitude,altitude,orientation_x,orientation_y,orientation_z,orientation_w,angular_velocity_x,angular_velocity_y,angular_velocity_z,linear_acceleration_x,linear_acceleration_y,linear_acceleration_z,vehicle_speed_mps,vehicle_speed_mph,wheel_speed_fl_rads,wheel_speed_fr_rads,wheel_speed_rl_rads,wheel_speed_rr_rads,wheel_speed_fl_mph,wheel_speed_fr_mph,wheel_speed_rl_mph,wheel_speed_rr_mph,avg_wheel_speed_mph,wheel_slip,steering_angle_deg,throttle_pedal,brake_pedal,brake_torque_actual,abs_active,esc_active,trac_active,marwis_road_condition,marwis_friction,marwis_surface_temp_c,marwis_ice_percent,marwis_water_film_height
frame_00000.png,1771858318228803173,1771858318.2288032,42.30086640279724,-83.69729383446528,238.5684356689453,-0.027099463734432838,-0.9994664192493448,-0.014587802238099882,-0.010940378606846868,0.0029400000000000003,0.026420000000000003,-0.0028300000000000005,3.0836,0.3259,-9.9906,0.7044373123790036,1.5757840015530886,1.909999966621399,1.8799999952316284,2.0899999141693115,1.8499999046325684,1.5509375830962684,1.5265773297280383,1.6970992001046896,1.5022169795607663,1.5692077731224408,0.004173305747593803,0.4000000059604645,30.450000762939453,0.0,0.0,0.0,0.0,0.0,,,,,
frame_00001.png,1771858318257098913,1771858318.257099,42.300866429317765,-83.69729464314344,238.5697784423828,-0.027107748282933386,-0.9994786447892217,-0.014102302414311166,-0.010427543332198313,0.012690000000000002,0.0030600000000000007,0.00031,3.1869,0.07250000000000001,-10.2006,0.7044373123790036,1.5757840015530886,2.2300000190734863,2.4700000286102295,2.3499999046325684,2.1399998664855957,1.810780576087847,2.00566279663177,1.9082215895607662,1.7376996223850727,1.865591146166364,0.1839129882824309,0.4000000059604645,30.325000762939453,0.0,0.0,0.0,0.0,0.0,,,,,
frame_00002.png,1771858318315255260,1771858318.3152554,42.30086645242228,-83.69729541173682,238.57223510742188,-0.027158435428583483,-0.999479194166342,-0.013725077833456879,-0.010741603797216727,0.01259,-0.013060000000000002,0.0015,2.9245,0.45170000000000005,-10.148200000000001,1.1889179761005413,2.659538177458345,2.93999981880188,2.879999876022339,2.8399999141693115,2.859999895095825,2.3873069596654557,2.3385864529289964,2.3061061151046895,2.322346284016843,2.3385864529289964,0.12067949512801285,0.4000000059604645,30.649999618530273,0.0,0.0,0.0,0.0,0.0,,,,,
frame_00003.png,1771858318356251068,1771858318.3562512,42.30086647134705,-83.69729599643667,238.5741729736328,-0.02717292714039632,-0.9994787610311834,-0.013465870888902477,-0.01106836028490916,0.00442,-0.020940000000000004,-0.00032,3.1748000000000003,-0.1024,-9.519,1.325227934721912,2.964455376296834,3.429999828338623,3.2699999809265137,3.25,3.3399999141693115,2.7851914852093795,2.6552701339121536,2.6390299649999998,2.7121107251046896,2.697900577306556,0.08991695443338246,0.4000000059604645,30.42500114440918,0.0,0.0,0.0,0.0,0.0,,,,,
frame_00004.png,1771858318416166979,1771858318.416167,42.300866499005885,-83.69729700462844,238.5765838623047,-0.02719833552622164,-0.9994691878768276,-0.01366298449187334,-0.011615329707440095,-0.016630000000000002,-0.017400000000000002,0.0007600000000000002,3.0953,0.0752,-9.4045,1.5238107826394485,3.4086732921174883,3.93999981880188,3.8299999237060547,3.8299999237060547,3.879999876022339,3.199316179665456,3.109995250648613,3.109995250648613,3.1505956729289966,3.14247558847292,0.07809422635491264,-0.4000000059604645,30.67500114440918,0.0,0.0,0.0,0.0,0.0,,,,,
frame_00005.png,1771858318466373288,1771858318.4663734,42.30086653034844,-83.69729815539279,238.5777130126953,-0.02711215572025749,-0.9994649671785417,-0.013829472620687915,-0.011977315309810782,-0.00458,-0.007810000000000001,-0.007580000000000002,2.6368,0.20770000000000002,-9.5424,1.6769686906891663,3.751278342950224,4.239999771118164,4.339999675750732,4.259999752044678,4.309999942779541,3.442918906945839,3.524119751506605,3.4591590758579924,3.4997596917364597,3.481489356511724,0.07191921307186236,-0.800000011920929,30.649999618530273,0.0,0.0,0.0,0.0,0.0,,,,,
frame_00006.png,1771858318518811419,1771858318.5188115,42.3008665507993,-83.69729899694913,238.57818603515625,-0.026945878314068528,-0.999465825494176,-0.013944259567181653,-0.012146643003391409,-0.003910000000000001,0.0028000000000000004,-0.00474,2.3328,0.0145,-9.9573,1.8211751546915236,4.073859550535657,4.880000114440918,4.699999809265137,4.809999942779541,4.769999980926514,3.962605086527081,3.8164431791215323,3.90576430173646,3.8732839639121535,3.889524132824307,0.04524834875250235,-0.6000000238418579,30.67500114440918,0.0,0.0,0.0,0.0,0.0,,,,,
frame_00007.png,1771858318558565590,1771858318.5585656,42.300866573093806,-83.69729990142228,238.5782012939453,-0.026905725362764144,-0.999467227911452,-0.013932071693097712,-0.012134234711732915,0.0015500000000000002,7.000000000000002e-05,-0.0036100000000000004,2.4118,0.22440000000000002,-9.682400000000001,1.9464726297746118,4.354142484448021,5.099999904632568,5.150000095367432,5.179999828338623,5.199999809265137,4.141246944560766,4.181847560439234,4.206207620209379,4.222447789121532,4.187937478582728,0.03817169659902915,-0.699999988079071,31.125,0.0,0.0,0.0,0.0,0.0,,,,,
frame_00008.png,1771858318611048790,1771858318.6110487,42.30086660667572,-83.69730135479233,238.5785675048828,-0.02681043707692371,-0.9994709093858007,-0.013982323406720752,-0.011983171008332275,0.0048400000000000006,-0.0034300000000000003,-0.005330000000000001,3.1310000000000002,0.2273,-9.6453,2.1024416880250003,4.703035909610644,5.71999979019165,5.789999961853027,5.670000076293945,5.670000076293945,4.644692568033686,4.701533352824307,4.604092339351387,4.604092339351387,4.638602649890191,0.013700354613236971,-0.4000000059604645,31.0,0.0,0.0,0.0,0.0,0.0,,,,,
frame_00009.png,1771858318659688954,1771858318.659689,42.30086664760255,-83.69730294388255,238.58010864257812,-0.02675771895950657,-0.9994740884650581,-0.013816189733022252,-0.012028460595038357,0.014840000000000002,-0.01716,-0.0019600000000000004,3.3077,0.8287,-10.9945,2.258053264416429,5.051129669303688,6.349999904632568,6.239999771118164,6.12999963760376,6.199999809265137,5.1562584695607665,5.0669373469458385,4.977616224330911,5.034457009121533,5.058817262489762,0.0015219552237577018,0.20000000298023224,30.92500114440918,0.0,0.0,0.0,0.0,0.0,,,,,
frame_00010.png,1771858318709980970,1771858318.709981,42.30086668103128,-83.69730407287736,238.58169555664062,-0.02670803912157893,-0.9994758973333553,-0.013248319238699085,-0.012613220576593056,0.017780000000000004,-0.02211,-0.00017,2.8603,0.9091,-10.3294,2.4074699026151016,5.385365723955826,6.460000038146973,6.569999694824219,6.549999713897705,6.519999980926514,5.245579592175694,5.334900327594452,5.318660158682299,5.294300098912153,5.298360044341149,0.016155946332047224,0.30000001192092896,31.075000762939453,0.0,0.0,0.0,0.0,0.0,,,,,
frame_00011.png,1771858318759237948,1771858318.759238,42.30086674838178,-83.69730587726283,238.5843048095703,-0.026543076802150845,-0.999486416428295,-0.012191954655666006,-0.013180466261632459,0.041240000000000006,-0.012830000000000001,-0.011160000000000002,1.8687,0.771,-9.3429,2.534239188379875,5.668941010054478,7.079999923706055,6.920000076293945,6.949999809265137,7.029999732971191,5.749025215648612,5.619103864351388,5.643463924121533,5.7084245997701455,5.680004400972919,0.0019515798274878247,0.4000000059604645,31.524999618530273,0.0,0.0,0.0,0.0,0.0,,,,,
frame_00012.png,1771858318818544866,1771858318.8185449,42.300866796064575,-83.69730714282376,238.5848846435547,-0.026356876081686853,-0.9995016240018729,-0.011333684287441003,-0.01316686376118668,-0.0030800000000000003,0.01144,-0.0083,3.0421,-2.1223,-10.077,2.7003291583405726,6.040474307458361,7.489999771118164,7.440000057220459,7.460000038146973,7.299999713897705,6.08194887194584,6.041348643263541,6.057588812175694,5.927667073682299,6.027138350266844,0.002207766561485162,0.30000001192092896,31.55000114440918,0.0,0.0,0.0,0.0,0.0,,,,,
frame_00013.png,1771858318859860753,1771858318.8598607,42.30086684993987,-83.69730914370882,238.5855255126953,-0.026423633020008885,-0.9994942376460785,-0.011796802293857118,-0.013186962726408841,-0.020320000000000005,0.0032200000000000006,-0.0038600000000000006,2.3065,-0.0966,-9.7821,2.806945976249078,6.278969732110612,7.639999866485596,7.75,7.71999979019165,7.909999847412109,6.203750332385074,6.293071455000001,6.268711008033685,6.422992806297226,6.297131400428996,0.0028924599246760467,0.30000001192092896,31.524999618530273,0.0,0.0,0.0,0.0,0.0,,,,,
frame_00014.png,1771858318911275432,1771858318.9112756,42.30086689051521,-83.69731054472507,238.58534240722656,-0.026427472485093584,-0.9994974650842132,-0.01172638668294896,-0.012996070315425243,0.022800000000000004,0.012930000000000002,-0.00198,1.7735,0.8648,-8.8444,2.932075979821865,6.558878042302724,8.229999542236328,8.220000267028809,8.149999618530273,8.170000076293945,6.682835508891679,6.674716005229855,6.617874833243065,6.634115389351387,6.6523854341789965,0.0142566139015208,0.4000000059604645,31.399999618530273,0.0,0.0,0.0,0.0,0.0,,,,,
frame_00015.png,1771858318969882659,1771858318.9698827,42.30086695325248,-83.6973127390191,238.58538818359375,-0.026331011790920456,-0.9995160926458087,-0.010586539778964807,-0.012735129980892069,0.04620000000000001,-0.0027700000000000003,-0.004430000000000001,2.2089000000000003,1.0064,-10.2382,3.100882439152091,6.936487963436879,8.720000267028809,8.59999942779541,8.609999656677246,8.5,7.080720615229854,6.983278827364597,6.9913991054187585,6.90207837,6.989369229503302,0.007623636968040075,0.30000001192092896,31.225000381469727,0.0,0.0,0.0,0.0,0.0,,,,,
frame_00016.png,1771858319020907282,1771858319.0209072,42.300867005295316,-83.69731506329526,238.586181640625,-0.026335740483499404,-0.9995094291495579,-0.010566581932329625,-0.013254326108037201,-0.03011,-0.05605,0.00135,2.3884000000000003,0.6368,-10.279,3.25581705778772,7.283067409247662,8.920000076293945,8.960000038146973,8.880000114440918,9.029999732971191,7.243122304351388,7.275602642175694,7.2106419665270804,7.332443039770145,7.265452488206077,0.0024186129348766875,0.10000000149011612,31.225000381469727,0.0,0.0,0.0,0.0,0.0,,,,,
frame_00017.png,1771858319062415930,1771858319.0624158,42.30086703460647,-83.69731667905627,238.58665466308594,-0.026359589769785807,-0.9994910522279241,-0.011386524250861023,-0.013898043350422048,-0.054920000000000004,-0.03246,-0.0037300000000000002,3.0091,-0.3411,-9.6532,3.365756672976919,7.5289957320489895,9.25,9.279999732971191,9.25,9.170000076293945,7.511085285,7.535445344770146,7.511085285,7.446124609351387,7.500935131030383,0.003727004505947544,0.10000000149011612,30.950000762939453,0.0,0.0,0.0,0.0,0.0,,,,,
frame_00018.png,1771858319122836000,1771858319.1228359,42.30086707752706,-83.69731920064832,238.58592224121094,-0.026386866477208948,-0.9994623918635156,-0.012584716018312497,-0.014842016396454072,-0.021740000000000002,-0.018880000000000004,-0.0018600000000000003,3.1879,0.9017000000000001,-9.0809,3.51320635851983,7.8588318316273496,9.75,9.65999984741211,9.789999961853027,9.84999942779541,7.917089895,7.844008941297226,7.949570232824307,7.998290352364598,7.927239855371533,0.008704604604068475,0.10000000149011612,31.67500114440918,0.0,0.0,0.0,0.0,0.0,,,,,
frame_00019.png,1771858319172896871,1771858319.1728969,42.30086711135001,-83.697320942544,238.583984375,-0.02632454844072646,-0.9994627286969682,-0.012332650467314719,-0.01513862039466537,0.015670000000000003,0.005090000000000001,-0.013120000000000001,1.7168,-1.0103,-9.450800000000001,3.619973098818022,8.097662623669986,10.149999618530273,10.079999923706055,10.119999885559082,10.069999694824219,8.241893273243065,8.185052875648612,8.21753321347292,8.176932597594453,8.205352989989763,0.01329894456271743,0.10000000149011612,31.700000762939453,0.0,0.0,0.0,0.0,0.0,,,,,
frame_00020.png,1771858319224004521,1771858319.2240045,42.3008671600685,-83.69732362948751,238.58094787597656,-0.026259514949743434,-0.9994631926317439,-0.012789641512642594,-0.014838784281186648,-0.036800000000000006,0.0021300000000000004,-0.005770000000000001,2.5388,-1.5984,-10.5616,3.752532688819732,8.394190472928411,10.40999984741211,10.619999885559082,10.369999885559082,10.40999984741211,8.453015856297226,8.623537823472919,8.42053551847292,8.453015856297226,8.487526263635072,0.011119093736039502,0.30000001192092896,31.774999618530273,0.0,0.0,0.0,0.0,0.0,,,,,
frame_00021.png,1771858319264774071,1771858319.264774,42.300867197060654,-83.69732549333935,238.57965087890625,-0.026260579351484292,-0.9994435763768122,-0.014298091819272928,-0.014781210423347069,-0.02883,-0.01264,-0.00446,3.1229,0.7509,-10.277800000000001,3.8898033938509964,8.701256803841048,10.779999732971191,10.769999504089355,10.679999351501465,10.819999694824219,8.753459174770146,8.745338896715985,8.67225794301321,8.785939512594451,8.739248881773449,0.004366274756496089,0.5,31.450000762939453,0.0,0.0,0.0,0.0,0.0,,,,,
frame_00022.png,1771858319315842389,1771858319.3158424,42.300867230937975,-83.69732739711998,238.57943725585938,-0.026187481772013188,-0.9994244168750214,-0.014984025631329913,-0.015509020869917288,0.0029300000000000003,-0.04379000000000001,-0.00923,3.1798,0.09770000000000001,-9.5825,4.026545622298379,9.007140964344135,10.979999542236328,10.889999389648438,11.010000228881836,10.789999961853027,8.915860863891679,8.842779910188904,8.940221698054161,8.761579452824307,8.865110481239762,0.01576865330148796,0.30000001192092896,31.25,0.0,0.0,0.0,0.0,0.0,,,,,
frame_00023.png,1771858319366131943,1771858319.366132,42.30086729071851,-83.69733035583052,238.5801239013672,-0.026297481986285065,-0.999405055252111,-0.015262480675831093,-0.016279885175458135,0.010340000000000002,-0.03252000000000001,-0.0013000000000000002,3.1558,1.605,-9.5518,4.138184162934056,9.25686968143371,11.329999923706055,11.34999942779541,11.279999732971191,11.139999389648438,9.200064400648614,9.216304182364599,9.159463784770146,9.045782215188904,9.155403645743066,0.010961160649604012,0.30000001192092896,31.075000762939453,0.0,0.0,0.0,0.0,0.0,,,,,
frame_00024.png,1771858319425771842,1771858319.4257717,42.30086736106378,-83.69733341591999,238.57965087890625,-0.02627603387695976,-0.999401206783509,-0.014926384637835403,-0.01685232817762217,0.04213000000000001,-0.03760000000000001,-0.009720000000000003,1.6414,0.5905,-8.0896,4.273546912771385,9.559668031054823,11.769999504089355,11.729999542236328,11.989999771118164,11.679999351501465,9.557348116715985,9.524867778891679,9.73599036194584,9.484267163013211,9.575618355141678,0.001668501880508845,0.30000001192092896,31.17500114440918,0.0,0.0,0.0,0.0,0.0,,,,,
frame_00025.png,1771858319475850403,1771858319.4758506,42.30086741656282,-83.6973355155758,238.5769500732422,-0.026194545724597618,-0.9994071882166762,-0.014800919219454166,-0.01673471557508018,0.013300000000000001,-0.012440000000000003,-0.0022700000000000003,2.0659,0.6335000000000001,-9.020100000000001,4.390322041169352,9.82088698677337,12.1899995803833,12.15999984741211,12.34000015258789,11.880000114440918,9.898392051067372,9.874031991297226,10.020193898702775,9.64666962652708,9.859821891898614,0.003964499864185426,0.30000001192092896,31.350000381469727,0.0,0.0,0.0,0.0,0.0,,,,,
frame_00026.png,1771858319518558709,1771858319.5185587,42.30086746791834,-83.69733765946428,238.5738983154297,-0.02619119564822131,-0.9994023240050706,-0.015100159883798413,-0.016763090862499507,-0.0177,0.009200000000000002,0.004620000000000001,2.3127,1.8468,-10.0906,4.47976099203373,10.020956553519932,12.4399995803833,12.399999618530273,12.4399995803833,12.59000015258789,10.101394356067372,10.068914018243065,10.101394356067372,10.223196203702775,10.123724733520147,0.01025532637042687,0.30000001192092896,31.200000762939453,0.0,0.0,0.0,0.0,0.0,,,,,
frame_00027.png,1771858319568393041,1771858319.568393,42.300867562510966,-83.69734095366209,238.56878662109375,-0.0261387150254776,-0.9994033276207277,-0.014723568552174254,-0.01711644958870152,0.00248,-0.044520000000000004,-0.0013700000000000001,1.3356000000000001,1.0034,-9.9135,4.594136790103124,10.276808351253283,12.679999351501465,12.719999313354492,12.619999885559082,12.889999389648438,10.29627638301321,10.328756720837516,10.24755626347292,10.466798350188904,10.334846929378138,0.005647529480081869,0.30000001192092896,31.149999618530273,0.0,0.0,0.0,0.0,0.0,,,,,
frame_00028.png,1771858319617963358,1771858319.6179633,42.30086763417519,-83.69734319908076,238.5663299560547,-0.026034344829583833,-0.9994144451891538,-0.013738767322048722,-0.017442072956534032,0.021390000000000003,-0.0035200000000000006,-0.00051,1.2519,-0.8164,-10.1347,4.696143475358945,10.50499118576944,13.00999927520752,13.079999923706055,13.15999984741211,12.819999694824219,10.564239363661825,10.621080535648614,10.686041211297226,10.409957952594452,10.57032976580053,0.006219765335891108,0.30000001192092896,31.55000114440918,0.0,0.0,0.0,0.0,0.0,,,,,
frame_00029.png,1771858319669016030,1771858319.6690161,42.30086773731285,-83.69734665784642,238.56631469726562,-0.02595301034697095,-0.9994090442078984,-0.013202215092890494,-0.018267597708134,0.027760000000000003,-0.01785,-0.006860000000000001,1.0716,-1.5130000000000001,-12.3229,4.816262105396834,10.773689354046395,13.279999732971191,13.34000015258789,13.319999694824219,13.449999809265137,10.783482224770147,10.832203118702774,10.815962562594452,10.921523854121533,10.838292940047225,0.0059964218270843455,0.30000001192092896,31.30000114440918,0.0,0.0,0.0,0.0,0.0,,,,,
frame_00030.png,1771858319718697112,1771858319.7186973,42.30086780966701,-83.69734902100323,238.5686492919922,-0.025848176141544055,-0.9993889215553009,-0.012852782342366665,-0.019709420304720882,0.036910000000000005,-0.07966000000000001,-0.017050000000000003,1.1727,0.13440000000000002,-10.2132,4.940234792721136,11.051008817229619,13.420000076293945,13.670000076293945,13.59000015258789,13.649999618530273,10.897163794351389,11.100166099351387,11.035205423702774,11.083925543243065,11.029115215162154,0.0019811405844985318,0.30000001192092896,31.375,0.0,0.0,0.0,0.0,0.0,,,,,
frame_00031.png,1771858319768800550,1771858319.7688005,42.30086792069983,-83.69735264141659,238.57054138183594,-0.025693583593553837,-0.9993846848334469,-0.012129309597640116,-0.020566266825996413,0.022570000000000003,-0.05547000000000001,0.00177,1.5649000000000002,0.48910000000000003,-7.6385000000000005,5.045732098743348,11.286999960962945,13.789999961853027,13.949999809265137,13.889999389648438,14.029999732971191,11.197607112824306,11.327528464121533,11.278807570188903,11.392489139770145,11.299108071726224,0.0010727483658328997,0.30000001192092896,31.17500114440918,0.0,0.0,0.0,0.0,0.0,,,,,
frame_00032.png,1771858319820023448,1771858319.8200235,42.300868031453454,-83.69735634361446,238.5676727294922,-0.0256141102384983,-0.9993907428980009,-0.011585498510447215,-0.020684211146094127,0.040670000000000005,0.01683,0.00116,2.7916000000000003,1.0469,-9.280100000000001,5.129606839845403,11.474622724323776,14.130000114440918,14.289999961853027,14.289999961853027,14.269999504089355,11.47369037152708,11.603611722824308,11.603611722824308,11.587371166715984,11.567071245972919,0.008056780939138966,0.30000001192092896,31.125,0.0,0.0,0.0,0.0,0.0,,,,,
frame_00033.png,1771858319869532556,1771858319.8695326,42.30086810019841,-83.69735886215842,238.56529235839844,-0.02552795172613115,-0.9993954406856446,-0.011084398775351258,-0.020837776301792305,0.006360000000000001,0.007040000000000001,0.0012600000000000003,2.3784,0.8347,-10.851600000000001,5.233315771210755,11.706613381252186,14.489999771118164,14.529999732971191,14.559999465942383,14.6899995803833,11.76601341194584,11.798493749770145,11.822853809540293,11.928415101067372,11.828944018080913,0.010449703329626957,0.30000001192092896,31.225000381469727,0.0,0.0,0.0,0.0,0.0,,,,,
frame_00034.png,1771858319929782690,1771858319.9297829,42.300868195417,-83.69736271759157,238.5598602294922,-0.025537628987484018,-0.9993805908744118,-0.011507787580305158,-0.021303401470555216,-0.010600000000000002,-0.02391,-0.003940000000000001,2.3092,0.050800000000000005,-8.744900000000001,5.371123767525136,12.014881600527678,14.84999942779541,14.809999465942383,14.929999351501465,15.00999927520752,12.058336452364598,12.025856114540291,12.123297128013212,12.188257803661823,12.09893687464498,0.006995930289784196,0.4000000059604645,31.475000381469727,0.0,0.0,0.0,0.0,0.0,,,,,
frame_00035.png,1771858319971036405,1771858319.9710364,42.300868256972166,-83.69736533342203,238.555419921875,-0.02553473373799703,-0.9993695875862616,-0.011832785670710142,-0.02164231881905788,0.0032200000000000006,-0.018240000000000003,0.0033600000000000006,0.5862,1.6628,-9.822000000000001,5.441439823722731,12.172174399278326,15.299999237060547,15.179999351501465,15.069999694824219,15.1899995803833,12.42374044648613,12.326299433013212,12.236978697594452,12.33441971106737,12.33035957204029,0.012995638048970358,0.4000000059604645,31.450000762939453,0.0,0.0,0.0,0.0,0.0,,,,,
frame_00036.png,1771858320022185560,1771858320.0221856,42.300868356341155,-83.69736932893368,238.54872131347656,-0.025494126210799106,-0.9993688857325338,-0.011696156601390088,-0.021796322607664634,-0.00505,0.0030300000000000006,-0.00578,0.7403000000000001,-0.2146,-9.8092,5.532489244577996,12.375846490766303,15.460000038146973,15.460000038146973,15.460000038146973,15.40999984741211,12.553662572175694,12.553662572175694,12.553662572175694,12.513061956297227,12.543512418206078,0.013547835096764563,0.6000000238418579,31.42500114440918,0.0,0.0,0.0,0.0,0.0,,,,,
frame_00037.png,1771858320073139016,1771858320.073139,42.300868421366616,-83.69737203294163,238.54428100585938,-0.02542966035346428,-0.9993787190891161,-0.012036321250830382,-0.02122816941829871,-0.032350000000000004,0.025610000000000004,-0.0037700000000000003,1.1062,-0.37470000000000003,-10.2582,5.623503089145064,12.57943900023216,15.6899995803833,15.639999389648438,15.75,15.729999542236328,12.74042432106737,12.699823705188903,12.789145215000001,12.772904658891678,12.750574475036988,0.01360438051344496,0.9000000357627869,31.350000381469727,0.0,0.0,0.0,0.0,0.0,,,,,
frame_00038.png,1771858320124464606,1771858320.1244648,42.3008685206471,-83.69737616073205,238.53761291503906,-0.025386705590000003,-0.999390767449817,-0.012820096003185663,-0.02023003346070777,-0.009420000000000001,0.026600000000000002,-0.006280000000000001,2.3762000000000003,0.8063,-11.0393,5.753086594486397,12.869309526670401,16.1299991607666,16.0,16.059999465942383,15.979999542236328,13.097708037134742,12.99214752,13.040867639540291,12.975906963891678,13.026657540141677,0.012226608828172779,1.0,31.25,0.0,0.0,0.0,0.0,0.0,,,,,
frame_00039.png,1771858320174522612,1771858320.1745226,42.3008685900586,-83.6973789704189,238.53448486328125,-0.025194257069594495,-0.9993949058362529,-0.012968906483893722,-0.020171243488451906,0.0032500000000000007,-0.027890000000000005,-0.013920000000000002,2.4503,0.8635,-10.5378,5.865034929217498,13.11973123456379,16.170000076293945,16.06999969482422,16.31999969482422,16.279998779296875,13.130189149351388,13.048987917594452,13.251990222594452,13.219509110377807,13.162669099979524,0.003272770199942406,1.0,31.100000381469727,0.0,0.0,0.0,0.0,0.0,,,,,
frame_00040.png,1771858320233941443,1771858320.2339416,42.30086870203441,-83.6973832547861,238.53121948242188,-0.024977340581983642,-0.9993979672057566,-0.012911753827784062,-0.02032540812736706,0.006830000000000001,-0.0054,-0.013450000000000002,2.2417000000000002,1.1844000000000001,-8.595600000000001,5.956071308449263,13.323374152722495,16.5,16.43000030517578,16.639999389648438,16.65999984741211,13.39815213,13.341311732405547,13.511832925188905,13.528073481297227,13.44484256722292,0.009116940882096627,1.0,31.149999618530273,0.0,0.0,0.0,0.0,0.0,,,,,
frame_00041.png,1771858320283835594,1771858320.2838356,42.300868821758264,-83.69738762049222,238.5281219482422,-0.024814782911036504,-0.9994062077797286,-0.012303358360518086,-0.02049599408354067,0.018670000000000003,0.023570000000000004,-0.008730000000000002,2.1711,0.5221,-8.5366,6.038467097361157,13.507688588771067,16.920000076293945,16.8799991607666,16.94999885559082,16.85999870300293,13.739196064351386,13.706714952134744,13.763555349729195,13.690474396026422,13.724985190560437,0.016086882693609632,1.0,31.274999618530273,0.0,0.0,0.0,0.0,0.0,,,,,
frame_00042.png,1771858320335026958,1771858320.335027,42.30086890149483,-83.69739056573754,238.52500915527344,-0.024695346913211014,-0.9994209754615283,-0.011554120146363674,-0.02035573521165006,0.04264000000000001,0.017750000000000002,-0.017870000000000004,2.4987,2.6266000000000003,-9.3566,6.1499496206276305,13.757068304366772,17.420000076293945,16.84000015258789,17.18000030517578,17.28999900817871,14.145200674351388,13.674235388702774,13.950318647405549,14.03963860843197,13.95234832972292,0.01419488666012961,1.100000023841858,30.80000114440918,0.0,0.0,0.0,0.0,0.0,,,,,
frame_00043.png,1771858320384772766,1771858320.3847728,42.30086902182604,-83.69739506299966,238.5185546875,-0.024571002272167797,-0.9994283240579844,-0.011490574554971187,-0.02018062472735148,-0.026670000000000003,0.02085,-0.00423,1.7403000000000002,3.1286,-8.328000000000001,6.249242717606286,13.979181004722207,17.479999542236328,17.28999900817871,17.56999969482422,17.229999542236328,14.193920793891678,14.03963860843197,14.267001747594453,13.990918488891678,14.122869909702445,0.01027877848721602,0.6000000238418579,30.5,0.0,0.0,0.0,0.0,0.0,,,,,
frame_00044.png,1771858320435873711,1771858320.4358737,42.300869097006235,-83.6973981102771,238.51318359375,-0.02450114108239304,-0.9994364165879488,-0.011412391607479165,-0.019907300201139618,-0.02324,0.02035,-0.0018900000000000002,1.3037,0.8143,-8.5638,6.343744015951037,14.190574739041514,17.670000076293945,17.65999984741211,17.85999870300293,17.729999542236328,14.348202979351388,14.340082701297225,14.50248361602642,14.396923098891678,14.396923098891676,0.014541226387571944,-0.30000001192092896,30.649999618530273,0.0,0.0,0.0,0.0,0.0,,,,,
frame_00045.png,1771858320485760978,1771858320.485761,42.30086920875458,-83.69740275189758,238.5029754638672,-0.024458783070637202,-0.9994328026379955,-0.011816137506568099,-0.01990527157038698,-0.017030000000000003,-0.02074,-0.004790000000000001,1.2576,0.232,-10.914,6.444620930446385,14.416230344152739,17.94999885559082,17.739999771118164,17.899999618530273,17.81999969482422,14.575564569729195,14.405043376945839,14.534964728243066,14.470004052594453,14.49639418187814,0.005560665708835283,-1.600000023841858,30.475000381469727,0.0,0.0,0.0,0.0,0.0,,,,,
frame_00046.png,1771858320537470415,1771858320.5374706,42.300869280761084,-83.6974058978536,238.49766540527344,-0.024378536342254453,-0.9994236279698396,-0.012316136807735616,-0.020159652664321476,-0.009940000000000001,-0.03946,-0.012060000000000003,1.324,0.0945,-11.504900000000001,6.544697880664417,14.640096477173461,18.079999923706055,18.049999237060547,17.940000534057617,17.969999313354492,14.681126635648614,14.65676580148613,14.56744584045971,14.591805125837517,14.624285850857992,0.0010799536970347516,-2.9000000953674316,30.42500114440918,0.0,0.0,0.0,0.0,0.0,,,,,
frame_00047.png,1771858320579056543,1771858320.5790567,42.30086934482698,-83.69740906827741,238.4939727783203,-0.02439023601597584,-0.9994032668725333,-0.01301073226214215,-0.020711045304275,-0.033620000000000004,-0.061110000000000005,0.00099,2.2527,2.4378,-11.0195,6.613200493853639,14.793332712720959,18.369998931884766,18.119998931884766,18.329999923706055,18.25,14.916608504080582,14.713606199080584,14.884128940648614,14.819168265,14.833377977202446,0.0027069805877516164,-2.6000001430511475,30.575000762939453,0.0,0.0,0.0,0.0,0.0,,,,,
frame_00048.png,1771858320629355218,1771858320.6293552,42.30086944602243,-83.69741389943606,238.49224853515625,-0.024412354281414417,-0.9993908008557523,-0.012616630242650972,-0.021514756904434617,-0.012480000000000002,-0.04238000000000001,-0.00502,1.08,-0.2592,-9.545300000000001,6.692072409179008,14.96976445498889,18.559999465942383,18.739999771118164,18.639999389648438,18.799999237060547,15.070890689540292,15.21705259694584,15.135851365188906,15.26577271648613,15.172391842040291,0.013535776575554057,-1.2000000476837158,30.575000762939453,0.0,0.0,0.0,0.0,0.0,,,,,
frame_00049.png,1771858320688260191,1771858320.68826,42.30086955197373,-83.69741881479075,238.49105834960938,-0.024581069152018853,-0.9993615648802094,-0.012611536056056288,-0.022653539189925638,-0.03877,-0.04620000000000001,0.01958,1.5075,0.41040000000000004,-9.963600000000001,6.800439510789971,15.212175159266518,18.75,18.739999771118164,19.010000228881836,19.03999900817871,15.225172875,15.21705259694584,15.436295458054161,15.46065474343197,15.334793918357992,0.008060567131767475,0.30000001192092896,30.0,0.0,0.0,0.0,0.0,0.0,,,,,
frame_00050.png,1771858320729634818,1771858320.7296348,42.300869621382596,-83.6974221324593,238.49021911621094,-0.024521399661660337,-0.9993494293042677,-0.012367093420180436,-0.02337678566878622,-0.014310000000000002,-0.029350000000000005,-0.00046000000000000007,1.1832,-0.9801000000000001,-9.8576,6.876189710609963,15.38162381125185,18.939998626708984,18.899999618530273,18.90999984741211,19.189998626708984,15.379453511675035,15.346973948243065,15.355094226297227,15.582455816675035,15.41599437572259,0.0022345211983143807,0.4000000059604645,29.149999618530273,0.0,0.0,0.0,0.0,0.0,,,,,
frame_00051.png,1771858320778621790,1771858320.7786217,42.30086970262634,-83.69742548360205,238.48817443847656,-0.02446625889448706,-0.9993296343701306,-0.012346050422562548,-0.02427465930414914,-0.009340000000000003,-0.029820000000000006,-0.00787,0.7174,-0.41540000000000005,-7.2742,6.9393654784096634,15.522944213273714,19.35999870300293,19.25,19.170000076293945,19.510000228881836,15.720497446026421,15.631177485000002,15.566216809351387,15.842300068054161,15.690047952107992,0.01076495132227476,0.30000001192092896,28.825000762939453,0.0,0.0,0.0,0.0,0.0,,,,,
frame_00052.png,1771858320829422341,1771858320.8294222,42.30086981298891,-83.69743055417631,238.4815216064453,-0.024270713134185773,-0.9993127459979647,-0.013652557749167696,-0.02446580954865778,-0.10576,-0.027120000000000005,0.010730000000000002,0.5967,2.5406,-9.8674,7.012458426592503,15.686448752781835,19.5,19.739999771118164,19.65999984741211,19.5,15.83417979,16.029061816945838,15.964101141297226,15.83417979,15.915380634560766,0.014594245350677685,0.20000000298023224,28.600000381469727,0.0,0.0,0.0,0.0,0.0,,,,,
frame_00053.png,1771858320879434066,1771858320.8794339,42.30086993431726,-83.69743568942728,238.4712371826172,-0.02398758234164383,-0.9993235081747173,-0.013812087293254853,-0.024214626723993295,-0.04468000000000001,0.03382000000000001,0.018330000000000003,0.2154,1.2312,-8.618500000000001,7.085264092283867,15.849310658593476,19.8799991607666,19.90999984741211,20.010000228881836,19.779998779296875,16.142742612134743,16.167103446297226,16.24830467805416,16.061541380377808,16.154923029215986,0.019282376199548326,0.6000000238418579,25.225000381469727,0.0,0.0,0.0,0.0,0.0,,,,,
frame_00054.png,1771858320930662020,1771858320.9306622,42.30087000601679,-83.69743915643988,238.4637451171875,-0.023779270371198258,-0.9993248298286579,-0.01389038134286313,-0.024320528256743003,-0.024070000000000005,-0.024240000000000005,0.015480000000000002,0.9251,-0.7301000000000001,-10.997,7.194997755162717,16.09477827843369,20.0,20.049999237060547,20.229999542236328,19.869998931884766,16.2401844,16.28078424148613,16.426946148891677,16.134622334080582,16.270634281114596,0.010926276810942168,1.100000023841858,22.30000114440918,0.0,0.0,0.0,0.0,0.0,,,,,
frame_00055.png,1771858320980537918,1771858320.980538,42.30087011295679,-83.69744442350125,238.45289611816406,-0.023687620638084383,-0.9993165740704515,-0.014057780582688098,-0.024650765133980335,0.032130000000000006,-0.00803,0.009650000000000002,1.1383,0.6725,-9.7143,7.277589423864404,16.27953088581924,20.229999542236328,20.279998779296875,20.119998931884766,20.189998626708984,16.426946148891677,16.467545990377808,16.337624639080584,16.394465036675037,16.406645453756276,0.007808245141004754,1.2000000476837158,22.350000381469727,0.0,0.0,0.0,0.0,0.0,,,,,
frame_00056.png,1771858321031033200,1771858321.031033,42.30087019284715,-83.6974479669756,238.44647216796875,-0.023546478260093595,-0.9993149440550385,-0.01359630274377598,-0.025106702322719245,0.09141,-0.012300000000000002,-0.028460000000000003,2.166,-1.5506,-10.3019,7.3449127109485195,16.430129039629183,20.3799991607666,20.529998779296875,20.270000457763672,20.399999618530273,16.548747222134743,16.670548295377806,16.459427261108324,16.564987778243065,16.560927639215983,0.007960899106228336,1.5,23.25,0.0,0.0,0.0,0.0,0.0,,,,,
frame_00057.png,1771858321090142233,1771858321.0901423,42.30087031345942,-83.69745331453169,238.43844604492188,-0.02328368418761828,-0.999325712139632,-0.01311136755911263,-0.02518100768433937,0.025090000000000005,0.02253,-0.017830000000000002,-0.6555000000000001,-0.0903,-8.749600000000001,7.3928461666466205,16.53735330401849,20.719999313354492,20.43000030517578,20.719999313354492,20.719999313354492,16.824830480837516,16.589348612405548,16.824830480837516,16.824830480837516,16.765960013729526,0.013823657601575445,2.1000001430511475,24.125,0.0,0.0,0.0,0.0,0.0,,,,,
frame_00058.png,1771858321132088301,1771858321.1320884,42.30087038954106,-83.69745690948322,238.4322509765625,-0.023150287384826718,-0.9993409327798922,-0.013823434459846861,-0.02430384587569403,-0.07611000000000001,0.07843,-0.0019000000000000002,1.8284,1.3448,-10.655700000000001,7.434898173356789,16.631421119908737,20.719999313354492,20.760000228881836,20.90999984741211,20.899999618530273,16.824830480837516,16.857311593054163,16.979112666297226,16.970992388243065,16.908061782107993,0.016633615384081736,2.6000001430511475,26.274999618530273,0.0,0.0,0.0,0.0,0.0,,,,,
frame_00059.png,1771858321191892544,1771858321.1918924,42.30087049840813,-83.69746235028009,238.42298889160156,-0.022580802040082393,-0.9993506842596338,-0.01483494993534627,-0.023837816792746526,-0.06115000000000001,-0.019050000000000004,-0.025900000000000006,2.8175000000000003,-0.49970000000000003,-10.2141,7.546821834356625,16.88178763414571,20.869998931884766,20.869998931884766,21.06999969482422,20.90999984741211,16.946631554080582,16.946631554080582,17.109034017594453,16.979112666297226,16.99535244801321,0.006727060920835264,2.200000047683716,26.075000762939453,0.0,0.0,0.0,0.0,0.0,,,,,
frame_00060.png,1771858321242946181,1771858321.2429464,42.30087060635619,-83.69746785424144,238.4163055419922,-0.02235077532296581,-0.9993367204218895,-0.01506392765822128,-0.024487550763448534,0.01896,-0.01699,-0.01118,0.5719000000000001,0.8967,-8.3907,7.6037242943194965,17.009075022935054,21.119998931884766,21.1299991607666,21.1299991607666,21.239999771118164,17.14963385908058,17.157754137134745,17.157754137134745,17.247075646945838,17.178054445073975,0.0099346626380958,1.8000000715255737,26.125,0.0,0.0,0.0,0.0,0.0,,,,,
frame_00061.png,1771858321284072954,1771858321.2840729,42.30087067790416,-83.69747155669586,238.41122436523438,-0.022131642364826176,-0.9993296569904319,-0.014878526336213636,-0.025080999176343103,0.021910000000000002,-0.014020000000000003,-0.021810000000000003,0.36260000000000003,-1.0216,-9.6746,7.650199794623689,17.113037928585516,21.25,21.25,21.279998779296875,21.469999313354492,17.255195925000002,17.255195925000002,17.279555210377808,17.433837395837518,17.30594611405383,0.011272585631688618,1.7000000476837158,26.375,0.0,0.0,0.0,0.0,0.0,,,,,
frame_00062.png,1771858321335088669,1771858321.3350887,42.30087074747725,-83.69747527284571,238.4044189453125,-0.021997949786728754,-0.9993285429494965,-0.014822877373479055,-0.025275200453953796,-0.028920000000000005,0.016560000000000002,0.008060000000000001,-0.9554,1.1034000000000002,-7.313700000000001,7.7010442158974195,17.226773848309573,21.469999313354492,21.559999465942383,21.35999870300293,21.639999389648438,17.433837395837518,17.506918349540292,17.34451588602642,17.571879025188903,17.464287664148284,0.01378748092533977,1.8000000715255737,26.225000381469727,0.0,0.0,0.0,0.0,0.0,,,,,
frame_00063.png,1771858321384826063,1771858321.3848262,42.30087085725142,-83.69748088131196,238.38986206054688,-0.02180048862933892,-0.9993452493746218,-0.015090187223185617,-0.02461904745245573,-0.013170000000000001,0.04572000000000001,-0.00064,0.1837,1.4666000000000001,-9.155000000000001,7.753183090907861,17.34340538337543,21.760000228881836,21.719999313354492,21.68000030517578,21.65999984741211,17.66932081305416,17.63683970083752,17.60436013740555,17.588119581297228,17.624660058148613,0.016216807977214275,1.8000000715255737,26.325000762939453,0.0,0.0,0.0,0.0,0.0,,,,,
frame_00064.png,1771858321436152816,1771858321.436153,42.300870933781525,-83.69748465463414,238.38058471679688,-0.021489786675231493,-0.9993673378701098,-0.014944594349688822,-0.02407845856333131,0.03245000000000001,0.01284,-0.017130000000000003,0.7383000000000001,1.5894000000000001,-11.5672,7.821287193496623,17.495750174620337,21.8799991607666,21.979999542236328,21.779998779296875,21.809999465942383,17.766761052134743,17.84796228389168,17.685559820377808,17.70992065454029,17.75255095273613,0.01467789466314582,1.8000000715255737,26.149999618530273,0.0,0.0,0.0,0.0,0.0,,,,,
frame_00065.png,1771858321494987004,1771858321.494987,42.30087105911562,-83.69749035732526,238.37112426757812,-0.02093865821429658,-0.9993847315990134,-0.01399963072760322,-0.02440780978382977,0.015170000000000001,-0.024690000000000004,-0.027910000000000004,0.16620000000000001,-1.8238,-14.42,7.896883216110136,17.664853941445408,21.969999313354492,22.029998779296875,22.09000015258789,22.0,17.839842005837518,17.88856212537781,17.937283793702772,17.86420284,17.882472691229527,0.012319306488775456,1.8000000715255737,26.399999618530273,0.0,0.0,0.0,0.0,0.0,,,,,
frame_00066.png,1771858321546164080,1771858321.546164,42.300871171810506,-83.69749611356322,238.36793518066406,-0.020669187340396356,-0.9993744936138982,-0.013891968366924447,-0.025108154522874782,-0.0019600000000000004,-0.0060300000000000015,-0.036570000000000005,1.4188,-4.5401,-9.4923,7.958737543588455,17.80321836075476,22.059999465942383,21.969999313354492,22.31999969482422,22.389999389648438,17.912922959540293,17.839842005837518,18.12404554259445,18.180885940188904,18.01442411204029,0.01186334667169577,1.8000000715255737,26.375,0.0,0.0,0.0,0.0,0.0,,,,,
frame_00067.png,1771858321595980944,1771858321.5959811,42.30087124408563,-83.69749997152455,238.36422729492188,-0.02044676603305473,-0.9993624237411549,-0.014784474452613636,-0.025260544098533323,-0.00613,-0.01922,-0.033190000000000004,1.2807000000000002,-1.2711000000000001,-10.013,8.00574154442367,17.908363490383085,22.219999313354492,22.709999084472656,22.299999237060547,22.559999465942383,18.042844310837516,18.440728642783355,18.107804986486133,18.318927569540293,18.227576377411825,0.01782479382888113,1.2000000476837158,25.950000762939453,0.0,0.0,0.0,0.0,0.0,,,,,
frame_00068.png,1771858321638954618,1771858321.6389544,42.30087131218368,-83.69750384470291,238.3579559326172,-0.02036976810527813,-0.9993750561726575,-0.014637150310690409,-0.024906293943843902,0.020410000000000005,0.038110000000000005,-0.012730000000000002,1.8295000000000001,-0.5576,-8.836500000000001,8.042584229441351,17.990778366206538,22.399999618530273,22.369998931884766,22.479999542236328,22.510000228881836,18.18900621824307,18.164645384080583,18.25396689389168,18.278327728054162,18.221486556067372,0.01282369140260165,0.800000011920929,25.774999618530273,0.0,0.0,0.0,0.0,0.0,,,,,
frame_00069.png,1771858321688737978,1771858321.688738,42.30087140735361,-83.69750970516117,238.34628295898438,-0.020204362839866485,-0.9993863912215468,-0.014388172270435871,-0.024730654300376773,-0.01259,0.015490000000000002,-0.0023600000000000006,0.24960000000000002,0.7237,-9.796800000000001,8.09399539789756,18.105782065372967,22.65999984741211,22.0,22.6299991607666,22.600000381469727,18.400128801297228,17.86420284,18.375767967134742,18.351408681756936,18.247877072547226,0.00784804581548639,0.4000000059604645,25.450000762939453,0.0,0.0,0.0,0.0,0.0,,,,,
frame_00070.png,1771858321739656720,1771858321.7396567,42.300871483675586,-83.69751559000605,238.331787109375,-0.0201724018387463,-0.9993841752602326,-0.016559552573148388,-0.02345475777017924,-0.17978000000000002,0.07975000000000002,-0.0025700000000000007,3.4623000000000004,1.4965000000000002,-8.1014,8.13330807653788,18.193722168730645,22.809999465942383,23.439998626708984,22.760000228881836,22.889999389648438,18.52192987454029,19.033495001675035,18.481330033054164,18.5868905501889,18.655911364864597,0.025403773447102086,-1.3000000715255737,25.92500114440918,0.0,0.0,0.0,0.0,0.0,,,,,
frame_00071.png,1771858321788830216,1771858321.7888303,42.30087154055505,-83.69751954750949,238.3237762451172,-0.01989820383787566,-0.9993939777062191,-0.01673582756868456,-0.02314413282364922,0.005960000000000001,0.03302000000000001,-0.017610000000000004,1.8196,0.4012,-9.667300000000001,8.201465006598049,18.346185131859443,22.81999969482422,22.84000015258789,22.809999465942383,22.899999618530273,18.530050152594452,18.546290708702777,18.52192987454029,18.595010828243066,18.548320391020145,0.011017836008297978,-2.1000001430511475,25.649999618530273,0.0,0.0,0.0,0.0,0.0,,,,,
frame_00072.png,1771858321839352944,1771858321.8393528,42.30087166353398,-83.6975255298477,238.3138885498047,-0.01984934520443149,-0.9994113395914561,-0.015053836893088677,-0.023587280168829328,0.07507000000000001,-0.014280000000000003,-0.009300000000000001,1.0627,1.1001,-11.7492,8.26583820026005,18.49018410368972,22.85999870300293,22.90999984741211,22.979999542236328,22.90999984741211,18.56252971602642,18.603131106297226,18.659971503891676,18.603131106297226,18.607190858128135,0.00632804702117948,-1.399999976158142,25.80000114440918,0.0,0.0,0.0,0.0,0.0,,,,,
frame_00073.png,1771858321889471333,1771858321.8894713,42.300871748766376,-83.69752954356734,238.30809020996094,-0.019842936924910792,-0.9994219301116971,-0.013044450906674051,-0.02432911355858995,0.05838,-0.016720000000000002,-0.00204,0.16820000000000002,0.6354000000000001,-9.9351,8.315540766133592,18.60136576139488,23.189998626708984,23.209999084472656,23.100000381469727,23.149999618530273,18.830492696675037,18.846733252783356,18.757413291756937,18.798013133243067,18.808163093614596,0.011117319817929724,-0.30000001192092896,25.600000381469727,0.0,0.0,0.0,0.0,0.0,,,,,
frame_00074.png,1771858321940896101,1771858321.940896,42.300871877504676,-83.69753560342016,238.3011474609375,-0.019739937477427305,-0.9994218444115393,-0.011778941167251802,-0.025051313865791982,0.019090000000000003,-0.00395,-0.00966,-0.4748,-1.9935,-10.5731,8.354710434030347,18.688985958299845,23.439998626708984,23.389999389648438,23.40999984741211,23.170000076293945,19.033495001675035,18.992895160188905,19.009135716297227,18.814253689351386,18.96244489187814,0.014632090483049962,0.4000000059604645,25.399999618530273,0.0,0.0,0.0,0.0,0.0,,,,,
frame_00075.png,1771858321990955761,1771858321.9909558,42.300871960320656,-83.69753965735916,238.29611206054688,-0.019632888828114425,-0.9994237373839823,-0.011075936537970269,-0.025378464482758566,0.057850000000000006,-0.020770000000000004,-0.018830000000000003,-1.5994000000000002,-0.22560000000000002,-8.7711,8.396922594724732,18.783412029043543,23.619998931884766,23.53999900817871,23.59000015258789,23.6299991607666,19.17965690908058,19.11469623343197,19.155297623702776,19.187777187134742,19.159356988337517,0.020014732079170483,0.30000001192092896,25.600000381469727,0.0,0.0,0.0,0.0,0.0,,,,,
frame_00076.png,1771858322041969128,1771858322.041969,42.300872079744046,-83.69754577315624,238.28565979003906,-0.019267846165776203,-0.9994537443854382,-0.010573074362088288,-0.02468143100780737,0.027030000000000005,-0.014580000000000003,-0.031450000000000006,1.7087,-0.29000000000000004,-9.6256,8.468692816740207,18.94395770947884,23.439998626708984,23.350000381469727,23.6299991607666,23.049999237060547,19.033495001675035,18.960415596756935,19.187777187134742,18.716811901486132,18.97462492176321,0.0016188387218063986,-0.10000000149011612,25.475000381469727,0.0,0.0,0.0,0.0,0.0,,,,,
frame_00077.png,1771858322093190039,1771858322.0931902,42.30087214142821,-83.69754986395054,238.2803955078125,-0.019227131594253988,-0.9994513108745515,-0.012319639874449412,-0.023992104433788783,-0.11063000000000002,0.06744000000000001,0.022160000000000003,3.5192,3.8157,-9.712,8.471482649369337,18.950198397680246,23.579999923706055,23.56999969482422,23.689998626708984,23.93000030517578,19.14717734564861,19.13905706759445,19.236497306675037,19.431380882405552,19.238528150580912,0.015215131095195329,-0.6000000238418579,25.67500114440918,0.0,0.0,0.0,0.0,0.0,,,,,
frame_00078.png,1771858322143612008,1771858322.143612,42.300872235926796,-83.69755602284583,238.2693328857422,-0.019225882998117616,-0.9994731536883992,-0.012578499800431915,-0.022925135155088202,-0.052660000000000005,0.14529000000000003,0.031520000000000006,0.459,2.4391000000000003,-5.435700000000001,8.503383250375323,19.02155812809458,23.920000076293945,23.76999855041504,23.94999885559082,24.40999984741211,19.423260604351388,19.301457982323647,19.447619889729197,19.821144936297227,19.498370853175366,0.025066964644528324,-1.0,25.399999618530273,0.0,0.0,0.0,0.0,0.0,,,,,
frame_00079.png,1771858322193555862,1771858322.193556,42.300872300016835,-83.69756015606319,238.26040649414062,-0.01898185678799874,-0.9995151146463207,-0.011178649334625023,-0.022005965225037328,0.07022,0.10140000000000002,-0.0076700000000000015,0.5022,-0.022000000000000002,-12.953000000000001,8.576030231423523,19.18406506588054,24.010000228881836,23.989999771118164,24.119998931884766,23.90999984741211,19.496341558054162,19.48010100194584,19.58566151908058,19.415140326297227,19.49431110134445,0.016172069600394252,-0.9000000357627869,25.274999618530273,0.0,0.0,0.0,0.0,0.0,,,,,
frame_00080.png,1771858322244749613,1771858322.2447495,42.30087241330713,-83.69756640050186,238.24757385253906,-0.01872476914519916,-0.9995443120199372,-0.01045553995994967,-0.02124224595460018,0.027490000000000004,-0.007610000000000001,-0.022180000000000002,0.076,-1.4321000000000002,-12.4288,8.64864210702375,19.34649347488571,24.209999084472656,24.189998626708984,24.19999885559082,24.100000381469727,19.658742472783356,19.642501916675034,19.650622194729195,19.569422511756937,19.63032227398613,0.014670813575021749,-0.6000000238418579,25.42500114440918,0.0,0.0,0.0,0.0,0.0,,,,,
frame_00081.png,1771858322294364046,1771858322.2943642,42.30087249322618,-83.69757058298643,238.23899841308594,-0.018491111971498886,-0.9995673824375775,-0.010406773941706525,-0.0203672727942007,0.01203,0.04336000000000001,-0.022840000000000003,0.7011000000000001,-0.9182,-9.7965,8.685019921491921,19.42786846318214,24.309999465942383,24.439998626708984,24.299999237060547,24.369998931884766,19.73994370454029,19.845504221675036,19.73182342648613,19.78866382408058,19.776483794195507,0.01794408540875338,-0.5,25.200000762939453,0.0,0.0,0.0,0.0,0.0,,,,,
frame_00082.png,1771858322345355841,1771858322.3453557,42.30087260264306,-83.69757689665893,238.22811889648438,-0.018286465829553178,-0.9995783242419756,-0.01050809864434795,-0.019958926222347625,0.006450000000000001,-0.004260000000000001,-0.009320000000000002,1.0855000000000001,-0.042,-11.5122,8.737635980072998,19.545567429264494,24.44999885559082,24.489999771118164,24.369998931884766,24.28999900817871,19.853624499729197,19.88610561194584,19.78866382408058,19.72370314843197,19.813024271046896,0.013683759386895719,-0.5,25.524999618530273,0.0,0.0,0.0,0.0,0.0,,,,,
frame_00083.png,1771858322395308524,1771858322.3953085,42.3008726680317,-83.69758114115547,238.22190856933594,-0.01815718801145222,-0.999575700826441,-0.010911342030903368,-0.019991934772068922,-0.04415,-0.037610000000000005,-0.00657,2.9596,-3.1365000000000003,-13.2733,8.82901578667776,19.74997857385095,24.44999885559082,24.5,24.969999313354492,24.779998779296875,19.853624499729197,19.89422589,20.27586966583752,20.12158748037781,20.03632688398613,0.014498664343581016,-0.5,25.399999618530273,0.0,0.0,0.0,0.0,0.0,,,,,
frame_00084.png,1771858322446173699,1771858322.4461737,42.300872747704325,-83.69758755209025,238.22093200683594,-0.018278327592617882,-0.9995262934456459,-0.011776431355023098,-0.021780888773557272,0.011340000000000001,-0.07936,-0.00384,1.5777,0.37570000000000003,-9.421800000000001,8.855280498485307,19.808731158281724,24.53999900817871,24.469999313354492,24.6299991607666,24.65999984741211,19.92670545343197,19.869865055837515,19.999786407134746,20.024147241297225,19.955126039425366,0.007390421929293385,-0.5,25.649999618530273,0.0,0.0,0.0,0.0,0.0,,,,,
frame_00085.png,1771858322496000607,1771858322.4960005,42.30087279921572,-83.69759184673886,238.22073364257812,-0.018338660214461122,-0.9994806137681513,-0.012230669386031782,-0.02350759386980307,0.005180000000000001,-0.04642000000000001,-0.008910000000000001,-0.385,1.9325,-9.246400000000001,8.881677823793082,19.867780391155698,24.639999389648438,24.549999237060547,24.850000381469727,24.889999389648438,20.007906685188903,19.93482573148613,20.178429426756935,20.210908990188905,20.083017708405215,0.01083348582538853,-0.5,25.399999618530273,0.0,0.0,0.0,0.0,0.0,,,,,
frame_00086.png,1771858322555864102,1771858322.555864,42.3008728875883,-83.69759831192886,238.21421813964844,-0.01814470753127112,-0.9994719849942101,-0.012451431500110539,-0.023905703376724513,-0.03329000000000001,0.0015700000000000002,-0.011850000000000001,0.0785,1.1133,-9.238900000000001,8.92317969968481,19.96061759741294,24.850000381469727,24.8799991607666,24.889999389648438,24.93000030517578,20.178429426756935,20.202788712134744,20.210908990188905,20.24339010240555,20.208879307871534,0.012437576605383664,-0.5,25.325000762939453,0.0,0.0,0.0,0.0,0.0,,,,,
frame_00087.png,1771858322597058934,1771858322.5970588,42.300872950815304,-83.69760263360632,238.20742797851562,-0.017926881872607048,-0.9994799221732884,-0.012441677165469518,-0.023742719897116706,-0.0074,0.0068800000000000016,-0.015310000000000002,0.1247,-0.3173,-9.7385,8.95298661111904,20.02729386987663,25.03999900817871,25.06999969482422,24.920000076293945,24.93000030517578,20.332710063431968,20.357070897594454,20.235269824351388,20.24339010240555,20.29211022194584,0.013222772571761446,-0.5,25.42500114440918,0.0,0.0,0.0,0.0,0.0,,,,,
frame_00088.png,1771858322658778325,1771858322.6587784,42.30087305137778,-83.69760915238521,238.19834899902344,-0.017714212701205267,-0.9994893870173622,-0.012144489738340002,-0.023657626191758714,0.018220000000000004,0.00982,-0.00461,0.29760000000000003,-0.8342,-9.850800000000001,9.010482937869263,20.15590970303727,25.09000015258789,25.19999885559082,25.149999618530273,25.170000076293945,20.373311453702776,20.462631414729195,20.422031573243064,20.43827212935139,20.424061642756605,0.013303886734466136,-0.4000000059604645,25.42500114440918,0.0,0.0,0.0,0.0,0.0,,,,,
frame_00089.png,1771858322707306353,1771858322.7073061,42.300873151885156,-83.69761571506852,238.19039916992188,-0.01765400092925068,-0.9994939586722766,-0.011424044323161978,-0.023867426340391563,0.028550000000000006,-0.016010000000000003,-0.0027500000000000003,0.19010000000000002,-0.7982,-9.6396,9.060715006451916,20.26827582653255,25.309999465942383,25.19999885559082,25.43000030517578,25.26999855041504,20.551952924540288,20.462631414729195,20.64939471240555,20.519471812323648,20.545862715999668,0.01369563409551276,-0.4000000059604645,25.375,0.0,0.0,0.0,0.0,0.0,,,,,
frame_00090.png,1771858322749147852,1771858322.749148,42.30087321899648,-83.69762011520183,238.1832733154297,-0.017700584900774863,-0.9994957686445931,-0.011269237856610558,-0.023830695202939733,0.007570000000000001,-0.009120000000000001,-0.0038600000000000006,0.902,0.6204000000000001,-8.857800000000001,9.097677506370083,20.350958721099495,25.350000381469727,25.34000015258789,25.529998779296875,25.3799991607666,20.584434036756935,20.576313758702774,20.73059439537781,20.608793322134744,20.625033878243066,0.013467432217795955,-0.5,25.399999618530273,0.0,0.0,0.0,0.0,0.0,,,,,
frame_00091.png,1771858322798643331,1771858322.7986434,42.30087327917593,-83.69762452576133,238.17584228515625,-0.017687649937911,-0.9994921606391705,-0.011692529333649563,-0.023787656847585124,-0.02772,0.010920000000000003,-0.0019900000000000004,0.4636,0.6097,-8.8244,9.128147542896428,20.41911836460674,25.639999389648438,25.56999969482422,25.51999855041504,25.489999771118164,20.819915905188903,20.763075507594454,20.72247411732365,20.69811483194584,20.75089509051321,0.016248337464048104,-0.9000000357627869,25.325000762939453,0.0,0.0,0.0,0.0,0.0,,,,,
frame_00092.png,1771858322849978206,1771858322.8499782,42.30087337568659,-83.69763116713064,238.16358947753906,-0.017562719981314034,-0.9995007251900316,-0.011964773881177207,-0.02338151828755328,0.005870000000000001,0.03626000000000001,-0.0054800000000000005,0.0024000000000000002,0.3462,-9.2576,9.15706837360039,20.483812527641657,25.599998474121094,25.719999313354492,25.639999389648438,25.68000030517578,20.78743479297226,20.884876580837517,20.819915905188903,20.852397017405547,20.83615607410106,0.017201072602277306,-1.100000023841858,25.450000762939453,0.0,0.0,0.0,0.0,0.0,,,,,
frame_00093.png,1771858322898874505,1771858322.8988745,42.30087345020867,-83.69763560325167,238.15505981445312,-0.017439437135478797,-0.999538813825283,-0.010880168765786973,-0.022352798857687494,0.08044000000000001,0.03504000000000001,-0.007630000000000001,0.7655000000000001,0.3602,-10.4314,9.19461971012418,20.567812614365184,25.889999389648438,25.719999313354492,25.729999542236328,25.78999900817871,21.022918210188905,20.884876580837517,20.892996858891678,20.94171697843197,20.935627157087517,0.017883017004221402,-1.0,25.524999618530273,0.0,0.0,0.0,0.0,0.0,,,,,
frame_00094.png,1771858322950295749,1771858322.950296,42.300873570202334,-83.69764229352852,238.14381408691406,-0.017419891456111558,-0.9995840868747529,-0.00879360842277362,-0.021233772611827476,0.09462000000000001,0.054920000000000004,-0.005490000000000001,0.5374,0.09770000000000001,-9.731,9.22518679730463,20.63618935436262,25.969999313354492,25.939998626708984,25.989999771118164,25.869998931884766,21.08787888583752,21.063518051675032,21.104119441945837,21.006677654080583,21.065548508384744,0.020806125910613125,-0.800000011920929,24.649999618530273,0.0,0.0,0.0,0.0,0.0,,,,,
frame_00095.png,1771858322999844541,1771858322.9998446,42.30087369079839,-83.69764902065953,238.13514709472656,-0.01735532907184517,-0.9996154302773663,-0.007951976080520982,-0.02011343284023565,0.02704,0.049190000000000005,-0.005460000000000001,0.8251000000000001,1.0415,-10.200700000000001,9.272650924794636,20.742363759710116,26.09000015258789,26.170000076293945,26.06999969482422,25.989999771118164,21.185320673702773,21.25028134935139,21.169080117594454,21.104119441945837,21.17720039564861,0.020963697338252277,-0.6000000238418579,16.25,0.0,0.0,0.0,0.0,0.0,,,,,
frame_00096.png,1771858323051513421,1771858323.0515134,42.30087377055327,-83.69765353808226,238.1309051513672,-0.017143473957733857,-0.9996282211192598,-0.007406329551901253,-0.019866230774198218,0.025960000000000004,-0.00905,-0.012950000000000003,1.3014000000000001,0.3689,-9.949,9.346443064976887,20.907432349769397,26.01999855041504,26.059999465942383,26.170000076293945,26.15999984741211,21.12847872732365,21.160959839540293,21.25028134935139,21.24216107129723,21.19547024687814,0.01377681832422243,-0.800000011920929,6.300000190734863,0.0,0.0,0.0,0.0,0.0,,,,,
frame_00097.png,1771858323102825685,1771858323.1028256,42.30087387670063,-83.6976603578964,238.12478637695312,-0.01693502533463631,-0.9996163924669692,-0.007132677118800876,-0.020721914616085333,-0.0061600000000000005,-0.05952000000000001,-0.006060000000000001,0.43270000000000003,-0.8002,-10.567400000000001,9.408818807763666,21.046963143838855,26.059999465942383,26.170000076293945,26.15999984741211,26.15999984741211,21.160959839540293,21.25028134935139,21.24216107129723,21.24216107129723,21.223890832871536,0.008406328638650814,-1.2000000476837158,0.0,0.0,0.0,0.0,0.0,0.0,,,,,
frame_00098.png,1771858323154135253,1771858323.1541352,42.30087394209893,-83.69766492793585,238.11988830566406,-0.016976456380441873,-0.9995795069280597,-0.007270685499643164,-0.022355008176799616,0.018890000000000004,-0.04531000000000001,0.00404,0.1777,0.13390000000000002,-9.7448,9.44657469014248,21.131420787367322,26.219999313354492,26.219999313354492,26.06999969482422,26.25,21.290881190837517,21.290881190837517,21.169080117594454,21.315242025000003,21.26652113106737,0.006393339333851811,-1.399999976158142,0.875,0.0,0.0,0.0,0.0,0.0,,,,,
frame_00099.png,1771858323203897820,1771858323.203898,42.300874043982006,-83.69767179678126,238.1124267578125,-0.017086722887792616,-0.9995633483123665,-0.006413231233956663,-0.023238482667042145,0.07206,-0.030890000000000004,0.009260000000000001,-0.16690000000000002,1.9838,-9.7928,9.444627043742226,21.127064019228737,26.389999389648438,26.40999984741211,26.25,26.299999237060547,21.4289228201889,21.445163376297227,21.315242025000003,21.35584186648613,21.386292521993067,0.01226997289014668,-1.399999976158142,3.2750000953674316,0.0,0.0,0.0,0.0,0.0,,,,,
frame_00100.png,1771858323255556668,1771858323.2555566,42.300874124654,-83.69767638040435,238.10821533203125,-0.016929406960450588,-0.9995576793012235,-0.004335506726825009,-0.024063339571669475,0.07481000000000002,-0.030140000000000004,-0.012420000000000002,-0.1446,0.1376,-12.2486,9.467957266558873,21.179252327856208,26.399999618530273,26.44999885559082,26.439998626708984,26.279998779296875,21.437043098243066,21.477642939729197,21.469522661675033,21.33960131037781,21.430952502506273,0.011884280462488928,-1.0,3.200000047683716,0.0,0.0,0.0,0.0,0.0,,,,,
frame_00101.png,1771858323304648645,1771858323.3046486,42.30087424399152,-83.69768326459345,238.10476684570312,-0.016739153496107217,-0.9995450948225827,-0.00380392001170189,-0.024797869845867036,0.004410000000000001,-0.027250000000000003,-0.005790000000000001,-0.049800000000000004,-0.3184,-10.0328,9.478567538607075,21.202986869811713,26.309999465942383,26.399999618530273,26.420000076293945,26.469999313354492,21.36396214454029,21.437043098243066,21.453283654351388,21.49388349583752,21.43704309824307,0.011038832871447926,-0.800000011920929,1.4250000715255737,0.0,0.0,0.0,0.0,0.0,,,,,
frame_00102.png,1771858323355419074,1771858323.3554192,42.30087431732379,-83.69768785604455,238.10208129882812,-0.01657940012999526,-0.9995462139665319,-0.0040377648762222156,-0.024823095925086684,-0.014400000000000003,0.021500000000000002,-0.005520000000000001,-0.6068,0.16490000000000002,-5.6515,9.469830321997419,21.18344224048891,26.439998626708984,26.389999389648438,26.56999969482422,26.65999984741211,21.469522661675033,21.4289228201889,21.575084727594454,21.64816568129723,21.530423972688904,0.01637985593940883,-0.9000000357627869,0.0,0.0,0.0,0.0,0.0,0.0,,,,,
frame_00103.png,1771858323405316659,1771858323.4053166,42.30087441650163,-83.69769473426196,238.09039306640625,-0.016483695961774292,-0.9995704675308336,-0.004133507725794549,-0.023876396744717688,-0.028590000000000004,0.05037000000000001,0.006360000000000001,-0.9812000000000001,-1.0134,-7.970700000000001,9.462168466137186,21.16630312864092,26.579999923706055,26.549999237060547,26.69999885559082,26.649999618530273,21.58320500564861,21.558844171486133,21.680645244729195,21.640045403243068,21.615684956276752,0.021231002169091927,-1.100000023841858,0.0,0.0,0.0,0.0,0.0,0.0,,,,,
frame_00104.png,1771858323464998721,1771858323.4649987,42.300874508104044,-83.69770162255035,238.0725860595703,-0.016563171246031294,-0.9996009758401425,-0.00412026683673921,-0.022507195713899603,0.019010000000000003,0.027440000000000003,0.0005300000000000001,-0.058600000000000006,-0.4776,-12.0464,9.49673726606182,21.24363145994433,26.729999542236328,26.489999771118164,26.420000076293945,26.5,21.705006078891678,21.510124051945837,21.453283654351388,21.51824433,21.546664528797226,0.01426465477073814,-1.3000000715255737,0.0,0.0,0.0,0.0,0.0,0.0,,,,,
frame_00105.png,1771858323506317744,1771858323.5063179,42.30087457583907,-83.69770623306576,238.06260681152344,-0.016615028585763247,-0.9995940982387913,-0.0031761601590910484,-0.022923603510697426,0.07238000000000001,-0.049740000000000006,-0.00868,0.6478,0.38230000000000003,-12.8129,9.535458472862627,21.330248476285327,26.65999984741211,26.579999923706055,26.44999885559082,26.3799991607666,21.64816568129723,21.58320500564861,21.477642939729197,21.420802542134744,21.532454042202446,0.009479756700533894,-1.3000000715255737,0.0,0.0,0.0,0.0,0.0,0.0,,,,,
frame_00106.png,1771858323566259871,1771858323.5662599,42.30087469437741,-83.69771318794325,238.05575561523438,-0.016465152445758025,-0.9995010655330759,-0.0017233285941341547,-0.026898864134761575,-0.0025800000000000003,-0.19730000000000003,-0.01093,0.5771000000000001,-1.9532,-12.0595,9.622986844439787,21.526044191801137,25.979999542236328,26.34000015258789,26.420000076293945,26.389999389648438,21.09599916389168,21.388322978702774,21.453283654351388,21.4289228201889,21.341632154283687,0.008566926457750633,-1.2000000476837158,0.0,0.0,0.0,0.0,0.0,0.0,,,,,
frame_00107.png,1771858323615953115,1771858323.6159532,42.30087477122088,-83.69771785273765,238.05410766601562,-0.016332517959744997,-0.9993159148733017,-0.001974861712124694,-0.03312176111332511,0.0017000000000000001,-0.22601000000000002,-0.007260000000000001,-1.0634000000000001,-2.3971,-9.1707,9.630941954076311,21.543839294751464,26.40999984741211,26.279998779296875,26.25,26.349998474121094,21.445163376297227,21.33960131037781,21.315242025000003,21.396441707972258,21.374112104911823,0.007878223909746207,-1.8000000715255737,0.0,0.0,0.0,0.0,0.0,0.0,,,,,
frame_00108.png,1771858323658956106,1771858323.658956,42.300874830925856,-83.69772252503961,238.0518035888672,-0.016343943839342012,-0.9991440536592124,-0.003183399027588022,-0.03786689197497119,-0.06921000000000001,-0.23570000000000002,0.005550000000000001,-2.6877,0.6546000000000001,-8.133600000000001,9.604679086426895,21.48509083559178,26.489999771118164,26.529998779296875,26.34000015258789,26.309999465942383,21.510124051945837,21.542603615377807,21.388322978702774,21.36396214454029,21.451253197641677,0.0015749357640158896,-2.799999952316284,0.0,0.0,0.0,0.0,0.0,0.0,,,,,
frame_00109.png,1771858323708909658,1771858323.7089095,42.300874911716534,-83.69772948427767,238.04315185546875,-0.01650647816335249,-0.9990041722351906,-0.00419133743644793,-0.04123872846995383,-0.05582000000000001,-0.11089000000000002,0.017350000000000004,-2.3918,-0.6577000000000001,-6.4426000000000005,9.53606019133684,21.331594484409035,26.3799991607666,26.309999465942383,26.459999084472656,26.44999885559082,21.420802542134744,21.36396214454029,21.485763217783358,21.477642939729197,21.437042711046896,0.0049432885438982065,-3.299999952316284,0.0,0.0,0.0,0.0,0.0,0.0,,,,,
frame_00110.png,1771858323759629856,1771858323.7596297,42.30087498418727,-83.69773636662713,238.0249786376953,-0.016706993055779717,-0.9990241609545387,-0.005435618875917765,-0.04052229336488471,-0.03424000000000001,0.10723000000000002,0.013980000000000001,-2.3764000000000003,0.5967,-6.7361,9.440045209411458,21.11681473074087,26.3799991607666,26.60999870300293,26.59000015258789,26.739999771118164,21.420802542134744,21.60756429102642,21.591325283702773,21.71312635694584,21.583204618452445,0.022086185518909077,-3.1000001430511475,0.0,0.0,0.0,0.0,0.0,0.0,,,,,
frame_00111.png,1771858323809611303,1771858323.8096113,42.30087502704019,-83.69774091482103,238.00794982910156,-0.016749027803458716,-0.999212215742036,-0.006684304122778779,-0.03535163444487638,-0.07149000000000001,0.23020000000000002,-0.008960000000000003,1.0849,1.0091,-8.033100000000001,9.382435059684804,20.987944282411327,26.579999923706055,26.510000228881836,26.809999465942383,26.849998474121094,21.58320500564861,21.526364608054163,21.76996675454029,21.80244631797226,21.67049567155383,0.03252111688301491,-2.700000047683716,0.0,0.0,0.0,0.0,0.0,0.0,,,,,
frame_00112.png,1771858323859890823,1771858323.859891,42.30087511796838,-83.69774771318582,237.97911071777344,-0.016678171049066437,-0.9994350229885638,-0.005909714939461602,-0.028575316334931804,0.04796000000000001,0.39078,-0.025830000000000002,-0.3637,-0.6576000000000001,-4.3971,9.349531591355055,20.914341197965776,26.689998626708984,26.729999542236328,27.689998626708984,27.229999542236328,21.672524966675034,21.705006078891678,22.484534186675035,22.111010688891678,21.993268980283357,0.051587940165312166,-2.4000000953674316,0.0,0.0,0.0,0.0,0.0,0.0,,,,,
frame_00113.png,1771858323908743496,1771858323.9087434,42.300875180107674,-83.69775224235177,237.95095825195312,-0.01699563300616852,-0.9996194580799155,-0.0058174041288566744,-0.020934309062809135,0.0030600000000000007,0.27013000000000004,-0.012660000000000001,-1.8487,-0.1468,-3.593,9.382630400824814,20.98838124882106,26.969999313354492,26.849998474121094,27.10999870300293,26.939998626708984,21.899888105837515,21.80244631797226,22.01356890102642,21.875527271675033,21.897857649127808,0.04333237468505741,-2.799999952316284,0.0,0.0,0.0,0.0,0.0,0.0,,,,,
frame_00114.png,1771858323959963814,1771858323.9599638,42.30087524524985,-83.6977590797737,237.91017150878906,-0.01698316267809513,-0.9997052777866495,-0.007047490086639425,-0.015851266020281682,0.04998000000000001,0.07059000000000001,-0.008450000000000001,2.0385,-0.7357,-14.4512,9.466552829328705,21.176110686038555,26.719999313354492,26.729999542236328,26.829999923706055,26.579999923706055,21.696885800837517,21.705006078891678,21.786207310648614,21.58320500564861,21.692826049006605,0.024400862397679152,-3.200000047683716,0.0,0.0,0.0,0.0,0.0,0.0,,,,,
frame_00115.png,1771858324009522050,1771858324.0095222,42.300875301754516,-83.69776369086102,237.89761352539062,-0.017161821530243537,-0.9997105512571807,-0.007965840273559625,-0.014860382752943525,-0.03796,-0.153,0.013790000000000002,0.0455,2.4994,-21.1252,9.554575024457998,21.373011055211077,26.469999313354492,26.459999084472656,26.579999923706055,26.53999900817871,21.49388349583752,21.485763217783358,21.58320500564861,21.550723893431968,21.528393903175363,0.007270049482634873,-3.1000001430511475,0.0,0.0,0.0,0.0,0.0,0.0,,,,,
frame_00116.png,1771858324060893689,1771858324.0608938,42.30087536780568,-83.69777065627852,237.89515686035156,-0.017297250196362468,-0.9996356080477471,-0.008761541994295515,-0.0187800862761016,-0.06571000000000002,-0.22346000000000002,0.007490000000000002,1.1652,0.8642000000000001,-14.6136,9.622896571911971,21.525842257572766,26.279998779296875,26.15999984741211,26.1299991607666,26.09000015258789,21.33960131037781,21.24216107129723,21.217800237134743,21.185320673702773,21.246220823128137,0.012990034540751032,-2.4000000953674316,0.0,0.0,0.0,0.0,0.0,0.0,,,,,
frame_00117.png,1771858324110959249,1771858324.1109593,42.30087540815335,-83.69777533020046,237.90509033203125,-0.01756619015612315,-0.9994486816577051,-0.010025389807158433,-0.026329702909239226,-0.06988000000000001,-0.26266000000000006,0.008470000000000002,1.9624000000000001,0.3683,-9.757,9.626720743498785,21.534396699962173,26.059999465942383,25.969999313354492,26.1299991607666,26.1299991607666,21.160959839540293,21.08787888583752,21.217800237134743,21.217800237134743,21.17110979991182,0.01687007558707179,-1.899999976158142,0.0,0.0,0.0,0.0,0.0,0.0,,,,,
frame_00118.png,1771858324161842726,1771858324.1618426,42.300875471033194,-83.69778233913237,237.92083740234375,-0.01813776900545766,-0.9992162794416708,-0.010348784136374278,-0.033626639754042835,-0.01832,-0.21519000000000002,0.029680000000000005,-2.2003,-0.6712,-5.3291,9.600643778853415,21.47606409466836,26.260000228881836,26.079999923706055,26.439998626708984,26.369998931884766,21.323362303054164,21.17720039564861,21.469522661675033,21.412682264080583,21.3456919061146,0.006070581088744594,-1.899999976158142,0.0,0.0,0.0,0.0,0.0,0.0,,,,,
frame_00119.png,1771858324212987683,1771858324.2129877,42.30087551912792,-83.69778696925594,237.91946411132812,-0.01839843937498531,-0.9990918739398975,-0.010784727893937337,-0.03688650837478439,0.00289,-0.0432,0.013950000000000002,-1.6002,0.7085,-2.3756,9.530026212363989,21.318096835485502,26.549999237060547,26.489999771118164,26.53999900817871,26.3799991607666,21.558844171486133,21.510124051945837,21.550723893431968,21.420802542134744,21.51012366474967,0.009007691012291786,-1.7000000476837158,0.0,0.0,0.0,0.0,0.0,0.0,,,,,
frame_00120.png,1771858324263857317,1771858324.2638574,42.30087561157547,-83.69779384570589,237.89813232421875,-0.01852498773299227,-0.9991252741469885,-0.010174128159623671,-0.03608321640859154,0.02147,0.13141000000000003,0.00553,-2.0746,0.48260000000000003,-4.7492,9.4224211542332,21.077390776750416,26.76999855041504,26.94999885559082,26.69999885559082,26.53999900817871,21.737485642323648,21.883647549729197,21.680645244729195,21.550723893431968,21.713125582553502,0.030161930977924373,-1.0,0.0,0.0,0.0,0.0,0.0,0.0,,,,,
frame_00121.png,1771858324313957037,1771858324.3139572,42.30087567488582,-83.69779841141316,237.87705993652344,-0.018339782397402637,-0.9992287991037165,-0.010540363922803591,-0.03308111472932948,0.04845000000000001,0.16032000000000002,0.014930000000000002,-5.0674,5.3100000000000005,-9.8711,9.405599157106874,21.039760978498652,27.099998474121094,27.079999923706055,26.549999237060547,26.510000228881836,22.00544862297226,21.989209615648612,21.558844171486133,21.526364608054163,21.76996675454029,0.034705991992393125,0.0,0.0,0.0,0.0,0.0,0.0,0.0,,,,,
frame_00122.png,1771858324365333696,1771858324.3653338,42.3008757569418,-83.69780525292435,237.84230041503906,-0.018231243737183156,-0.9994151910867823,-0.010808598237548404,-0.026834153254852923,-0.005680000000000001,0.19271000000000002,0.014870000000000001,-0.1638,2.7501,-11.775500000000001,9.416156358581702,21.063376804765753,26.979999542236328,26.939998626708984,26.510000228881836,26.56999969482422,21.908008383891676,21.875527271675033,21.526364608054163,21.575084727594454,21.721246247803833,0.031232857349313175,1.3000000715255737,0.0,0.0,0.0,0.0,0.0,0.0,,,,,
frame_00123.png,1771858324414935428,1771858324.4149356,42.30087580894594,-83.69780981838969,237.82177734375,-0.018035365255255897,-0.9995151154763725,-0.01103130937862883,-0.022859784508090897,-0.011090000000000001,0.14394000000000004,-0.0014200000000000003,1.5699,1.5761,-10.9612,9.447857409383515,21.13429015334636,26.59000015258789,26.489999771118164,26.619998931884766,26.529998779296875,21.591325283702773,21.510124051945837,21.61568456908058,21.542603615377807,21.56493438002675,0.020376564509889717,2.4000000953674316,0.0,0.0,0.0,0.0,0.0,0.0,,,,,
frame_00124.png,1771858324465698952,1771858324.465699,42.300875896555134,-83.69781668265993,237.80108642578125,-0.017846330014886003,-0.9995568637131058,-0.011566636732689296,-0.02082780890331772,-0.030040000000000004,0.09920000000000001,-0.009900000000000003,0.168,2.3957,-10.964500000000001,9.431399491821956,21.097474779236208,26.989999771118164,26.619998931884766,26.60999870300293,26.549999237060547,21.91612866194584,21.61568456908058,21.60756429102642,21.558844171486133,21.674555423384742,0.027353067141309608,3.1000001430511475,0.0,0.0,0.0,0.0,0.0,0.0,,,,,
frame_00125.png,1771858324515443942,1771858324.515444,42.30087594996905,-83.69782125357958,237.79296875,-0.017455652039800207,-0.9996002075028692,-0.01189754998284697,-0.01879291559317507,-0.01972,0.06566000000000001,-0.01597,1.3308,3.0161000000000002,-13.4053,9.444175803538945,21.12605462196841,26.510000228881836,26.389999389648438,26.619998931884766,26.65999984741211,21.526364608054163,21.4289228201889,21.61568456908058,21.64816568129723,21.55478441965522,0.020293888535201702,3.6000001430511475,0.0,0.0,0.0,0.0,0.0,0.0,,,,,
frame_00126.png,1771858324575523680,1771858324.5755236,42.30087604451339,-83.69782811827854,237.7867889404297,-0.016893782115846134,-0.9996458738019447,-0.011539312532503478,-0.01701679707953307,-0.00406,0.05836000000000001,-0.014700000000000003,-1.0414,2.1118,-8.4689,9.428393643181005,21.09075087617732,26.489999771118164,26.549999237060547,27.01999855041504,27.18000030517578,21.510124051945837,21.558844171486133,21.940487947323646,22.070410847405547,21.76996675454029,0.032204442712856045,4.5,0.0,0.0,0.0,0.0,0.0,0.0,,,,,
frame_00127.png,1771858324625570142,1771858324.62557,42.30087613230975,-83.69783497499746,237.7806854248047,-0.016237422977209592,-0.999680126354236,-0.011684256759607136,-0.015474792774492523,-0.06069000000000001,0.04610000000000001,-0.0233,0.5637,-0.7344,-15.3811,9.436054057661897,21.107886763746205,26.40999984741211,26.510000228881836,26.69999885559082,26.579999923706055,21.445163376297227,21.526364608054163,21.680645244729195,21.58320500564861,21.5588445586823,0.021364421743565346,5.099999904632568,0.0,0.0,0.0,0.0,0.0,0.0,,,,,
frame_00128.png,1771858324668808317,1771858324.6688082,42.300876187829715,-83.69783955752374,237.7787628173828,-0.01584074190817425,-0.9996959572869888,-0.011603032137040566,-0.014914205479222283,0.016460000000000002,0.08668000000000001,-0.022920000000000003,0.5084000000000001,-0.7174,-8.736600000000001,9.45526857361597,21.150868483064507,26.329999923706055,26.69999885559082,26.549999237060547,26.6299991607666,21.380202700648614,21.680645244729195,21.558844171486133,21.623804847134743,21.560874240999674,0.01938481903300843,5.099999904632568,0.0,0.0,0.0,0.0,0.0,0.0,,,,,
frame_00129.png,1771858324718450449,1771858324.7184505,42.300876240564676,-83.6978441456478,237.77874755859375,-0.015253185139901204,-0.9996984920385541,-0.011504661432294196,-0.01542427062318325,0.01893,0.021390000000000003,-0.030280000000000005,1.2914,-0.4214,-8.7727,9.461852069178827,21.165595367628885,26.299999237060547,26.420000076293945,26.31999969482422,26.329999923706055,21.35584186648613,21.453283654351388,21.372082422594453,21.380202700648614,21.390352661020145,0.010618992260194516,5.0,0.0,0.0,0.0,0.0,0.0,0.0,,,,,
frame_00130.png,1771858324768955662,1771858324.7689557,42.30087631278934,-83.69785102067134,237.7747802734375,-0.014595497174948902,-0.9996866095666626,-0.012031744482211792,-0.016397903525812652,-0.06998,-0.054360000000000006,-0.021120000000000003,-0.40190000000000003,2.3996,-14.219100000000001,9.45309672177209,21.14601018080086,26.260000228881836,26.35999870300293,26.029998779296875,26.1299991607666,21.323362303054164,21.404561986026422,21.136599005377807,21.217800237134743,21.270580882898283,0.005890979008916017,5.0,0.0,0.0,0.0,0.0,0.0,0.0,,,,,
frame_00131.png,1771858324819506743,1771858324.8195066,42.30087637079985,-83.69785791034231,237.77931213378906,-0.014136170999825226,-0.9996573959232876,-0.012107516785846054,-0.018402920491474333,-0.02299,-0.053360000000000005,0.009010000000000002,-0.1623,3.9587000000000003,-7.7035,9.460707969152049,21.163036084514985,26.149999618530273,26.1299991607666,26.239999771118164,26.219999313354492,21.234040793243068,21.217800237134743,21.30712174694584,21.290881190837517,21.26246099204029,0.004698045551132101,5.0,0.0,0.0,0.0,0.0,0.0,0.0,,,,,
frame_00132.png,1771858324869532978,1771858324.8695328,42.30087641293683,-83.69786250564735,237.78457641601562,-0.013596830746464561,-0.999609905443501,-0.011692456904367644,-0.021411435832898944,-0.025850000000000005,-0.08920000000000002,0.0018000000000000004,-1.1640000000000001,1.0655000000000001,-10.138300000000001,9.445940005000104,21.130001034784932,26.119998931884766,26.170000076293945,26.34000015258789,26.349998474121094,21.20967995908058,21.25028134935139,21.388322978702774,21.396441707972258,21.31118149877675,0.008574560109748842,5.0,0.0,0.0,0.0,0.0,0.0,0.0,,,,,
frame_00133.png,1771858324918609445,1771858324.9186094,42.30087645061153,-83.69786709402024,237.78814697265625,-0.012996721058495753,-0.999578777614269,-0.011162305209764307,-0.023425531526420625,-0.004600000000000001,-0.06944,-0.022210000000000004,-1.6049,-1.7327000000000001,-8.6541,9.42723176336203,21.08815182073506,26.239999771118164,26.189998626708984,26.25,26.529998779296875,21.30712174694584,21.266520356675034,21.315242025000003,21.542603615377807,21.35787193599967,0.012790125827878572,4.900000095367432,0.0,0.0,0.0,0.0,0.0,0.0,,,,,
frame_00134.png,1771858324968832826,1771858324.9688327,42.300876509412,-83.69787395442113,237.78848266601562,-0.012386743022712199,-0.9995747473523853,-0.010702064592491355,-0.02413211275794782,0.03425,-0.023360000000000006,-0.034530000000000005,-1.1977,-0.7185,-7.1204,9.406275332268532,21.04127354176477,26.209999084472656,26.25,26.209999084472656,26.469999313354492,21.282760912783356,21.315242025000003,21.282760912783356,21.49388349583752,21.34366183660106,0.014371197362939143,4.700000286102295,0.0,0.0,0.0,0.0,0.0,0.0,,,,,
frame_00135.png,1771858325019726343,1771858325.0197263,42.30087656589891,-83.69788079269438,237.78024291992188,-0.011702842766441346,-0.9995954792462054,-0.010247904102466319,-0.02380969977214336,0.021920000000000002,0.0102,-0.03157,-0.7365,-0.2296,-8.0976,9.389739813751184,21.004284578972577,26.25,26.299999237060547,26.219999313354492,26.459999084472656,21.315242025000003,21.35584186648613,21.290881190837517,21.485763217783358,21.36193207502675,0.017027359094735142,4.400000095367432,0.0,0.0,0.0,0.0,0.0,0.0,,,,,
frame_00136.png,1771858325070789040,1771858325.070789,42.300876601661386,-83.69788534897265,237.77259826660156,-0.011065158721454027,-0.9996193792041008,-0.0099245013330149,-0.02324141250802323,0.00255,0.016960000000000003,-0.024180000000000004,-1.6358000000000001,0.3244,-9.3081,9.378794409001669,20.979800365272194,26.279998779296875,26.28999900817871,26.209999084472656,26.25,21.33960131037781,21.34772158843197,21.282760912783356,21.315242025000003,21.321331459148286,0.016279044029486,4.300000190734863,0.0,0.0,0.0,0.0,0.0,0.0,,,,,
frame_00137.png,1771858325120438681,1771858325.1204388,42.300876643676254,-83.69789217804846,237.76026916503906,-0.010492517994484585,-0.9996482958223889,-0.009825539014153752,-0.022285657015457632,-0.007160000000000001,0.051980000000000005,-0.016180000000000003,-0.5589000000000001,0.3507,-10.168800000000001,9.37424894698388,20.96963243946612,26.299999237060547,26.420000076293945,26.219999313354492,26.28999900817871,21.35584186648613,21.453283654351388,21.290881190837517,21.34772158843197,21.36193207502675,0.01870798816779915,4.300000190734863,0.0,0.0,0.0,0.0,0.0,0.0,,,,,
frame_00138.png,1771858325171057895,1771858325.171058,42.300876669673386,-83.69789673444937,237.75318908691406,-0.00987573647961143,-0.9996679860543445,-0.00948280432326785,-0.021828053261863472,0.017750000000000002,-0.011130000000000001,-0.02406,-0.2343,-0.20400000000000001,-11.210700000000001,9.387662990413228,20.999638849774968,26.029998779296875,26.260000228881836,26.19999885559082,26.25,21.136599005377807,21.323362303054164,21.274640634729195,21.315242025000003,21.262460992040292,0.012515555345759728,4.200000286102295,0.0,0.0,0.0,0.0,0.0,0.0,,,,,
frame_00139.png,1771858325220925204,1771858325.220925,42.30087670110275,-83.69790356253257,237.7449493408203,-0.00926794288845667,-0.9996850966066664,-0.009159536179121297,-0.021445646507379876,0.02579,0.009770000000000003,-0.023150000000000004,0.9516,0.4681,-10.3337,9.379480195006861,20.98133442741865,25.920000076293945,26.28999900817871,26.19999885559082,26.260000228881836,21.047279044351388,21.34772158843197,21.274640634729195,21.323362303054164,21.24825089264168,0.012721615307471604,3.799999952316284,0.0,0.0,0.0,0.0,0.0,0.0,,,,,
frame_00140.png,1771858325271954354,1771858325.2719545,42.30087672041679,-83.69790811821936,237.7411651611328,-0.008657901535097934,-0.9996890386329971,-0.008748126447104314,-0.021687255744050168,0.03175000000000001,-0.009800000000000001,-0.028810000000000006,0.9631000000000001,-0.0176,-9.4787,9.391192559441794,21.007534283917728,26.059999465942383,26.25,26.19999885559082,26.34000015258789,21.160959839540293,21.315242025000003,21.274640634729195,21.388322978702774,21.284791369493067,0.013197983248685825,3.4000000953674316,0.0,0.0,0.0,0.0,0.0,0.0,,,,,
frame_00141.png,1771858325322017064,1771858325.322017,42.30087673549983,-83.69791495653995,237.73695373535156,-0.008173048666972937,-0.9996672912778644,-0.008407577830233194,-0.022974347862204553,0.026250000000000006,-0.05034,-0.019140000000000004,-0.0094,0.6625,-10.2729,9.399164405701606,21.025366825690153,26.149999618530273,26.189998626708984,26.209999084472656,26.219999313354492,21.234040793243068,21.266520356675034,21.282760912783356,21.290881190837517,21.268550813384742,0.01156621854499354,2.799999952316284,0.0,0.0,0.0,0.0,0.0,0.0,,,,,
frame_00142.png,1771858325374220808,1771858325.3742208,42.30087673431179,-83.69791951653207,237.7337188720703,-0.007803876811807276,-0.9996342068058395,-0.009138827610236721,-0.02422878288888917,-0.047610000000000006,-0.04628,-0.010320000000000001,-0.8799,1.7295,-9.3177,9.387574800240879,20.999441573650834,26.10999870300293,26.170000076293945,26.149999618530273,26.260000228881836,21.201559681026424,21.25028134935139,21.234040793243068,21.323362303054164,21.25231103166876,0.012041722973015416,2.299999952316284,0.0,0.0,0.0,0.0,0.0,0.0,,,,,
frame_00143.png,1771858325423818732,1771858325.4238188,42.30087672951815,-83.69792633684115,237.72747802734375,-0.007369859320005613,-0.9996238205015556,-0.009519631248306945,-0.024643037158050825,-0.005700000000000001,0.004410000000000001,-0.010270000000000001,-1.3971,1.1424,-8.8353,9.350627229029367,20.916792073704954,26.170000076293945,26.209999084472656,26.09000015258789,26.209999084472656,21.25028134935139,21.282760912783356,21.185320673702773,21.282760912783356,21.25028096215522,0.015943596287382088,2.1000001430511475,0.0,0.0,0.0,0.0,0.0,0.0,,,,,
frame_00144.png,1771858325475078108,1771858325.475078,42.300876731676546,-83.69793086634702,237.72274780273438,-0.006854468035408235,-0.9996652249799167,-0.008433016113037426,-0.023480597799917072,0.03624000000000001,0.053790000000000004,-0.01591,-1.0483,0.31970000000000004,-8.6313,9.316778729819928,20.84107501188339,26.189998626708984,26.279998779296875,26.279998779296875,26.03999900817871,21.266520356675034,21.33960131037781,21.33960131037781,21.144719283431968,21.272610565215658,0.020706012194006772,2.200000047683716,0.0,0.0,0.0,0.0,0.0,0.0,,,,,
frame_00145.png,1771858325525018822,1771858325.525019,42.300876735616434,-83.69793764052837,237.7149200439453,-0.0064550101850923145,-0.999709481038886,-0.0075066686244032125,-0.02197581148978555,0.07466,0.08709000000000001,-0.02253,0.5345,-0.9977,-12.655100000000001,9.318465287625044,20.844847740499965,26.19999885559082,26.25,26.260000228881836,26.279998779296875,21.274640634729195,21.315242025000003,21.323362303054164,21.33960131037781,21.313211568290292,0.022469045282606286,2.200000047683716,0.0,0.0,0.0,0.0,0.0,0.0,,,,,
frame_00146.png,1771858325576112328,1771858325.5761123,42.30087673779612,-83.69794216012185,237.7110137939453,-0.006034397837898331,-0.9997380363599992,-0.006930406102885401,-0.020962208114508527,0.026860000000000005,0.07058,-0.034710000000000005,1.3783,-2.3534,-9.302100000000001,9.34261134148652,20.89886101422486,25.989999771118164,26.1299991607666,26.389999389648438,26.239999771118164,21.104119441945837,21.217800237134743,21.4289228201889,21.30712174694584,21.26449106155383,0.01749521407315468,2.0,0.0,0.0,0.0,0.0,0.0,0.0,,,,,
frame_00147.png,1771858325625881875,1771858325.625882,42.3008767209795,-83.69794895107763,237.70301818847656,-0.005634774636392337,-0.999745154815796,-0.0076327303346288775,-0.020484534770797296,-0.010320000000000001,0.00657,-0.035390000000000005,0.48510000000000003,-0.7551,-7.9674000000000005,9.344554809394117,20.903208435326075,26.06999969482422,26.10999870300293,26.19999885559082,26.170000076293945,21.169080117594454,21.201559681026424,21.274640634729195,21.25028134935139,21.223890445675366,0.015341281762628537,1.5,0.0,0.0,0.0,0.0,0.0,0.0,,,,,
frame_00148.png,1771858325685624489,1771858325.6856246,42.30087670202715,-83.69795573395075,237.69175720214844,-0.0052748767566691,-0.9997525932783582,-0.007823942799846679,-0.020142339175588605,0.011630000000000001,0.04376000000000001,-0.01114,-0.2536,-0.24650000000000002,-9.455400000000001,9.332905145192138,20.877148835486103,26.149999618530273,26.09000015258789,25.989999771118164,26.059999465942383,21.234040793243068,21.185320673702773,21.104119441945837,21.160959839540293,21.171110187107995,0.01408053149107357,0.9000000357627869,0.0,0.0,0.0,0.0,0.0,0.0,,,,,
frame_00149.png,1771858325735991130,1771858325.735991,42.30087668392118,-83.69796026275846,237.6849365234375,-0.005072076130010372,-0.9997417208023498,-0.008294995260230316,-0.02054163539061332,-0.03366,-0.03185,-0.009720000000000003,0.9655,-0.6501,-11.8629,9.351994278141058,20.919850080544858,26.06999969482422,26.10999870300293,25.84000015258789,25.989999771118164,21.169080117594454,21.201559681026424,20.982318368702774,21.104119441945837,21.114269402317372,0.009293533224376274,0.6000000238418579,0.0,0.0,0.0,0.0,0.0,0.0,,,,,
frame_00150.png,1771858325778655461,1771858325.7786555,42.300876655212036,-83.69796479534025,237.68174743652344,-0.004902015245691449,-0.9996970166599872,-0.009662952523940994,-0.02210141344286143,-0.12013000000000001,-0.11548000000000001,0.00203,-2.4197,-2.4391000000000003,-13.103900000000001,9.338029474765442,20.88861165328181,25.78999900817871,26.809999465942383,25.829999923706055,25.959999084472656,20.94171697843197,21.76996675454029,20.974198090648613,21.079758607783358,21.19141010785106,0.014495863085360982,0.20000000298023224,0.0,0.0,0.0,0.0,0.0,0.0,,,,,
frame_00151.png,1771858325828659112,1771858325.8286593,42.300876588780405,-83.69797158308322,237.6815185546875,-0.004622199349493372,-0.9996385394180798,-0.011646928630549124,-0.023786021877076843,-0.010570000000000001,-0.14547000000000004,-0.0016800000000000003,-1.9499000000000002,0.5294,-11.5129,9.3397540358865,20.89246939303595,25.719999313354492,25.779998779296875,25.969999313354492,26.059999465942383,20.884876580837517,20.93359670037781,21.08787888583752,21.160959839540293,21.016828001648285,0.005952317376795523,0.20000000298023224,0.0,0.0,0.0,0.0,0.0,0.0,,,,,
frame_00152.png,1771858325879587259,1771858325.8795874,42.300876538337945,-83.69797836309365,237.68246459960938,-0.004441155622430859,-0.9996207614688847,-0.011329670711823163,-0.0247031969321013,0.07195,-0.04203000000000001,-0.0017600000000000003,-0.5988,0.7707,-6.4183,9.312177231465165,20.83078173615369,25.78999900817871,26.03999900817871,26.170000076293945,26.09000015258789,20.94171697843197,21.144719283431968,21.25028134935139,21.185320673702773,21.130509571229524,0.014388698363423897,0.20000000298023224,0.0,0.0,0.0,0.0,0.0,0.0,,,,,
frame_00153.png,1771858325929977555,1771858325.9299777,42.30087651200618,-83.69798286284379,237.6782684326172,-0.0042705009984136955,-0.9996462913247389,-0.01043685870861783,-0.024085826583574107,0.0038900000000000002,0.07215,0.0021500000000000004,-0.3713,1.6817,-7.3158,9.260438710065927,20.715045768094875,26.010000228881836,26.01999855041504,26.119998931884766,26.09000015258789,21.120359998054163,21.12847872732365,21.20967995908058,21.185320673702773,21.16095983954029,0.0215260963667388,0.30000001192092896,0.0,0.0,0.0,0.0,0.0,0.0,,,,,
frame_00154.png,1771858325978987779,1771858325.9789877,42.3008764795118,-83.6979895982301,237.6670684814453,-0.004092417532713222,-0.9996954761023729,-0.009737312578686326,-0.022302285150471522,0.0134,0.12301000000000002,-0.00868,-0.3632,-0.10940000000000001,-8.5785,9.246240955066812,20.683286242027155,26.059999465942383,26.01999855041504,26.059999465942383,26.15999984741211,21.160959839540293,21.12847872732365,21.160959839540293,21.24216107129723,21.173139869425366,0.023683549203262464,0.10000000149011612,0.0,0.0,0.0,0.0,0.0,0.0,,,,,
frame_00155.png,1771858326028848071,1771858326.0288482,42.300876458744476,-83.69799408218505,237.6586151123047,-0.0037586594163323554,-0.9997289707038849,-0.009518024442799713,-0.02091087816063512,-0.015680000000000003,0.07198,-0.00931,-1.2565,-1.9427,-10.8599,9.2496573322602,20.690928472826133,25.959999084472656,26.059999465942383,26.10999870300293,25.979999542236328,21.079758607783358,21.160959839540293,21.201559681026424,21.09599916389168,21.13456932306044,0.021441321534553172,0.0,0.0,0.0,0.0,0.0,0.0,0.0,,,,,
frame_00156.png,1771858326079962968,1771858326.079963,42.300876387387994,-83.69800081472717,237.6453094482422,-0.003565740737965784,-0.9997364547756838,-0.011278587311675295,-0.019674855877222588,-0.11127000000000002,0.05666,-0.011810000000000003,-0.9127000000000001,-3.2762000000000002,-8.892800000000001,9.264371030360417,20.723842132654433,25.969999313354492,26.01999855041504,25.559999465942383,25.639999389648438,21.08787888583752,21.12847872732365,20.754955229540293,20.819915905188903,20.94780718697259,0.0108071202668185,-0.10000000149011612,0.0,0.0,0.0,0.0,0.0,0.0,,,,,
frame_00157.png,1771858326130302816,1771858326.1303027,42.300876319946674,-83.69800530826062,237.63877868652344,-0.003994210838278889,-0.9996974855029652,-0.013871836696182405,-0.01991371149490779,0.025220000000000003,-0.03673,0.0036900000000000006,0.8288000000000001,0.1675,-15.4954,9.28749973526386,20.775579657801142,25.829999923706055,25.829999923706055,25.649999618530273,25.959999084472656,20.974198090648613,20.974198090648613,20.828036183243064,21.079758607783358,20.96404774308091,0.009071616214039081,-0.4000000059604645,0.0,0.0,0.0,0.0,0.0,0.0,,,,,
frame_00158.png,1771858326181097496,1771858326.1810975,42.30087622995522,-83.69801206100031,237.63690185546875,-0.0041589722311269894,-0.9996648915537876,-0.014191622667755232,-0.02124630299113017,0.09985000000000002,-0.15240000000000004,-0.012500000000000002,-0.0227,3.9054,-10.8605,9.305110671220469,20.814974264879915,25.809999465942383,25.76999855041504,25.869998931884766,26.01999855041504,20.95795753454029,20.925476422323648,21.006677654080583,21.12847872732365,21.004647584567042,0.009112349468870299,-0.4000000059604645,0.0,0.0,0.0,0.0,0.0,0.0,,,,,
frame_00159.png,1771858326231353640,1771858326.2313535,42.300876206900135,-83.69801656955651,237.63694763183594,-0.003996614833046974,-0.999654191149424,-0.012474843765334193,-0.022801391630727044,0.09395000000000002,-0.08869000000000002,-0.00198,0.5587,2.4134,-7.120500000000001,9.291891489261806,20.785403747989307,25.739999771118164,25.760000228881836,25.869998931884766,25.959999084472656,20.90111713694584,20.917357693054164,21.006677654080583,21.079758607783358,20.976227772965984,0.009180674443003651,-0.30000001192092896,0.0,0.0,0.0,0.0,0.0,0.0,,,,,
frame_00160.png,1771858326281982090,1771858326.2819822,42.30087616652117,-83.69802331524008,237.63583374023438,-0.0035886571471839272,-0.9996343496017295,-0.011492738244167026,-0.024211683209935025,0.030900000000000004,-0.012140000000000001,-0.011360000000000002,0.3798,0.9329000000000001,-8.6539,9.264262735466685,20.723599883474847,25.68000030517578,25.779998779296875,25.8799991607666,25.8799991607666,20.852397017405547,20.93359670037781,21.014797932134744,21.014797932134744,20.95389739551321,0.011112814054183852,-0.5,0.0,0.0,0.0,0.0,0.0,0.0,,,,,
frame_00161.png,1771858326331941205,1771858326.3319411,42.30087613699644,-83.69802780172853,237.6319580078125,-0.003158911427847855,-0.9996193072836022,-0.011868283152252012,-0.024706388636559745,-0.05399,0.022390000000000004,-0.015020000000000002,-0.3443,-1.4542000000000002,-8.6884,9.240243562778762,20.669870435322323,25.719999313354492,25.829999923706055,25.899999618530273,25.920000076293945,20.884876580837517,20.974198090648613,21.031038488243063,21.047279044351388,20.984348051020145,0.015214300287069884,-1.3000000715255737,0.0,0.0,0.0,0.0,0.0,0.0,,,,,
frame_00162.png,1771858326383274023,1771858326.383274,42.30087607657103,-83.69803451994105,237.6214141845703,-0.0028943758326861473,-0.9996104662435146,-0.012701087964229453,-0.024682397158444388,-0.027330000000000004,0.018290000000000004,-0.00885,-0.8262,-0.9361,-8.9352,9.22451533963865,20.634687343851283,25.729999542236328,25.829999923706055,25.76999855041504,25.8799991607666,20.892996858891678,20.974198090648613,20.925476422323648,21.014797932134744,20.95186732599967,0.015371203685472942,-1.899999976158142,0.0,0.0,0.0,0.0,0.0,0.0,,,,,
frame_00163.png,1771858326433954952,1771858326.433955,42.300876029796434,-83.69803899136045,237.61268615722656,-0.0028615182689005207,-0.9996200895453975,-0.01284052454792664,-0.024220016923663375,0.029860000000000005,0.022800000000000004,-0.003110000000000001,-1.0418,0.3593,-9.9826,9.214328492944414,20.61189997900708,25.829999923706055,25.76999855041504,25.85999870300293,25.84000015258789,20.974198090648613,20.925476422323648,20.998557376026422,20.982318368702774,20.970137564425364,0.017380134086772366,-1.899999976158142,0.0,0.0,0.0,0.0,0.0,0.0,,,,,
frame_00164.png,1771858326484842778,1771858326.4848428,42.30087596698079,-83.69804569090672,237.59906005859375,-0.0028986668397326114,-0.9996545910457562,-0.01197923588976814,-0.023211941736774294,0.028760000000000004,0.03461,0.0011800000000000003,-0.9223,-0.051000000000000004,-10.3819,9.201505441013438,20.583215581220603,25.809999465942383,25.78999900817871,25.81999969482422,25.869998931884766,20.95795753454029,20.94171697843197,20.966077812594452,21.006677654080583,20.968107494911827,0.018699309258675082,-1.7000000476837158,0.0,0.0,0.0,0.0,0.0,0.0,,,,,
frame_00165.png,1771858326534782189,1771858326.5347822,42.30087593109029,-83.69805015316682,237.58998107910156,-0.002868977298663589,-0.9996827940524988,-0.011465428867789144,-0.022240148055419497,0.01429,0.044770000000000004,-0.0032300000000000002,-0.5192,0.1067,-9.5123,9.199212609542764,20.578086654790592,25.84000015258789,25.739999771118164,25.84000015258789,25.78999900817871,20.982318368702774,20.90111713694584,20.982318368702774,20.94171697843197,20.95186771319584,0.018164033647813882,-1.7000000476837158,0.0,0.0,0.0,0.0,0.0,0.0,,,,,
frame_00166.png,1771858326594549297,1771858326.5945492,42.30087587915834,-83.69805684116396,237.5763397216797,-0.0026592817937747264,-0.9997020544233048,-0.011258297444562436,-0.02149375120388831,0.01169,0.018290000000000004,-0.011360000000000002,-0.40750000000000003,-0.621,-10.6559,9.197752618142822,20.574820741628404,25.709999084472656,25.809999465942383,25.81999969482422,25.729999542236328,20.87675630278336,20.95795753454029,20.966077812594452,20.892996858891678,20.923447127202444,0.016944321894803906,-1.7000000476837158,0.0,0.0,0.0,0.0,0.0,0.0,,,,,
frame_00167.png,1771858326635504480,1771858326.6355045,42.30087584502842,-83.69806129851932,237.5684356689453,-0.0025055149995495967,-0.999714875327103,-0.011061796227599365,-0.021012546454939232,0.022550000000000004,0.030060000000000007,-0.010190000000000001,-0.0889,-0.09330000000000001,-10.336500000000001,9.188365873759949,20.55382315764858,25.739999771118164,25.739999771118164,25.809999465942383,25.709999084472656,20.90111713694584,20.90111713694584,20.95795753454029,20.87675630278336,20.909237027803833,0.01729186183169991,-1.600000023841858,0.0,0.0,0.0,0.0,0.0,0.0,,,,,
frame_00168.png,1771858326695997921,1771858326.695998,42.30087579153846,-83.69806797916657,237.5579376220703,-0.0022959811743863416,-0.999726564408103,-0.010803077040771967,-0.02061112354214123,0.0070100000000000015,0.00177,-0.0043300000000000005,-0.16640000000000002,-0.7432000000000001,-10.482700000000001,9.19054706744819,20.558702357057555,25.670000076293945,25.689998626708984,25.760000228881836,25.779998779296875,20.84427673935139,20.860515746675034,20.917357693054164,20.93359670037781,20.8889367198646,0.01606299644168341,-1.600000023841858,0.0,0.0,0.0,0.0,0.0,0.0,,,,,
frame_00169.png,1771858326755744424,1771858326.7557445,42.30087572959839,-83.69807466317322,237.54998779296875,-0.002266078527620508,-0.9997261028513227,-0.010547408384442031,-0.020768638428771163,0.005610000000000001,-0.018940000000000002,0.0025000000000000005,-0.9754,0.14020000000000002,-10.339500000000001,9.184312715363449,20.544756485505115,25.68000030517578,25.60999870300293,25.670000076293945,25.68000030517578,20.852397017405547,20.795555071026424,20.84427673935139,20.852397017405547,20.83615646129723,0.014183666571940368,-1.600000023841858,0.0,0.0,0.0,0.0,0.0,0.0,,,,,
frame_00170.png,1771858326796556854,1771858326.7965567,42.30087568570479,-83.69807912238821,237.54605102539062,-0.0022668047553244257,-0.9997195286953993,-0.010383851346978147,-0.021163675778412803,0.007230000000000001,-0.041620000000000004,0.0013300000000000002,-1.0014,-0.0352,-10.3595,9.179486825698296,20.533961259877547,25.719999313354492,25.670000076293945,25.76999855041504,25.670000076293945,20.884876580837517,20.84427673935139,20.925476422323648,20.84427673935139,20.874726620465985,0.016595208117699087,-1.7000000476837158,0.0,0.0,0.0,0.0,0.0,0.0,,,,,
frame_00171.png,1771858326848916944,1771858326.848917,42.30087562065539,-83.69808580505392,237.5420379638672,-0.0022349893882104292,-0.9997079303684286,-0.01044948321841076,-0.021676417632433276,-0.009460000000000001,-0.035070000000000004,-0.00269,-0.7617,-0.4924,-9.6553,9.171654025290545,20.516439755333433,25.60999870300293,25.56999969482422,25.670000076293945,25.68000030517578,20.795555071026424,20.763075507594454,20.84427673935139,20.852397017405547,20.813826083844454,0.014495026040456766,-2.0,0.0,0.0,0.0,0.0,0.0,0.0,,,,,
frame_00172.png,1771858326888666193,1771858326.8886662,42.30087557545219,-83.69809025344088,237.53868103027344,-0.0022239722694892276,-0.9997027811477439,-0.010750726795783127,-0.021767525954347222,-0.01584,-0.0009800000000000002,-0.004260000000000001,-0.5345,0.1374,-9.063,9.157317071597012,20.48436885013822,25.59000015258789,25.599998474121094,25.639999389648438,25.689998626708984,20.779316063702773,20.78743479297226,20.819915905188903,20.860515746675034,20.811795627134742,0.015984225796359452,-2.299999952316284,0.0,0.0,0.0,0.0,0.0,0.0,,,,,
frame_00173.png,1771858326948237278,1771858326.9482374,42.300875506539064,-83.69809691364266,237.53297424316406,-0.0022191406407521823,-0.9997065363052775,-0.011111604308747415,-0.02141142062095249,-0.0037600000000000008,0.023530000000000002,0.0024400000000000003,-0.7386,0.732,-9.472900000000001,9.136096733446264,20.436900226915288,25.6299991607666,25.59000015258789,25.60999870300293,25.670000076293945,20.811795627134742,20.779316063702773,20.795555071026424,20.84427673935139,20.80773587530383,0.018145396037122785,-3.299999952316284,0.0,0.0,0.0,0.0,0.0,0.0,,,,,
frame_00174.png,1771858326998617813,1771858326.998618,42.30087546010985,-83.69810134901748,237.52908325195312,-0.0022377420877246483,-0.9997142554539913,-0.011212370225016935,-0.02099244403012857,-0.0030300000000000006,0.017130000000000003,0.006730000000000001,-0.648,0.8019000000000001,-9.4428,9.12997255670616,20.42320081099828,25.59000015258789,25.549999237060547,25.619998931884766,25.65999984741211,20.779316063702773,20.74683495148613,20.803675349080585,20.83615646129723,20.79149570639168,0.018033162323658078,-4.200000286102295,0.0,0.0,0.0,0.0,0.0,0.0,,,,,
frame_00175.png,1771858327047525617,1771858327.0475256,42.300875391633234,-83.69810799587121,237.5225830078125,-0.0023407874526767407,-0.9997219291773103,-0.011403554197030192,-0.020507169179906706,-0.015640000000000005,0.018900000000000004,0.00817,-0.44520000000000004,0.5783,-9.514800000000001,9.123350561403063,20.40838780482497,25.60999870300293,25.53999900817871,25.619998931884766,25.60999870300293,20.795555071026424,20.738714673431968,20.803675349080585,20.795555071026424,20.78337504114135,0.018374172418838867,-5.300000190734863,0.0,0.0,0.0,0.0,0.0,0.0,,,,,
frame_00176.png,1771858327098448022,1771858327.098448,42.30087534650971,-83.69811242423481,237.5173797607422,-0.002507467742774106,-0.9997288537753517,-0.011544959922430303,-0.020066026884515,-0.00604,0.01857,0.006840000000000001,-0.5931000000000001,0.3063,-9.9262,9.117028239636387,20.39424515037222,25.599998474121094,25.5,25.60999870300293,25.56999969482422,20.78743479297226,20.706235109999998,20.795555071026424,20.763075507594454,20.763075120398284,0.018085002279151836,-6.700000286102295,0.0,0.0,0.0,0.0,0.0,0.0,,,,,
frame_00177.png,1771858327148321422,1771858327.1483216,42.30087528298795,-83.69811906069188,237.5097198486328,-0.0027622370992330674,-0.9997342588758278,-0.01159748030067633,-0.01973018314365899,-0.003910000000000001,0.0085,0.012270000000000001,-0.5459,0.32130000000000003,-9.8157,9.111101365647222,20.3809870888709,25.56999969482422,25.529998779296875,25.60999870300293,25.489999771118164,20.763075507594454,20.73059439537781,20.795555071026424,20.69811483194584,20.746834951486132,0.017950448671595766,-7.700000286102295,0.0,0.0,0.0,0.0,0.0,0.0,,,,,
frame_00178.png,1771858327199325095,1771858327.199325,42.30087522531634,-83.69812569241611,237.50228881835938,-0.003152884339160223,-0.9997410348345033,-0.01143156702943162,-0.0194227151457254,0.0025700000000000007,-0.00101,0.018390000000000004,-0.48200000000000004,0.09430000000000001,-10.0587,9.105957488519655,20.369480544369157,25.619998931884766,25.420000076293945,25.56999969482422,25.459999084472656,20.803675349080585,20.641274434351388,20.763075507594454,20.673753997783358,20.720444822202445,0.01722990810044526,-8.0,0.0,0.0,0.0,0.0,0.0,0.0,,,,,
frame_00179.png,1771858327249222163,1771858327.249222,42.300875186465596,-83.6981301087906,237.498291015625,-0.0036445223112595575,-0.9997434965332099,-0.011359315173250723,-0.019251611762894423,-0.0077800000000000005,0.006960000000000001,0.02338,-1.3757000000000001,0.7075,-10.300500000000001,9.090398222245696,20.33467539927029,25.56999969482422,25.420000076293945,25.529998779296875,25.389999389648438,20.763075507594454,20.641274434351388,20.73059439537781,20.616913600188905,20.68796448437814,0.017373726315814592,-7.900000095367432,0.0,0.0,0.0,0.0,0.0,0.0,,,,,
frame_00180.png,1771858327291025624,1771858327.2910256,42.30087514799778,-83.69813452195547,237.49484252929688,-0.004049573515320037,-0.9997432855128974,-0.011657029207617471,-0.019002044528789463,-0.025050000000000003,0.0006000000000000001,0.024020000000000003,-0.9068,0.3356,-10.1503,9.0825768736405,20.31717951172138,25.549999237060547,25.420000076293945,25.639999389648438,25.479999542236328,20.74683495148613,20.641274434351388,20.819915905188903,20.68999455389168,20.724504961229524,0.020048326554045003,-7.800000190734863,0.0,0.0,0.0,0.0,0.0,0.0,,,,,
frame_00181.png,1771858327341180488,1771858327.3411803,42.300875091298295,-83.69814113562931,237.4907989501953,-0.004547208973511352,-0.9997418477286517,-0.012161159907566664,-0.01864583010635408,-0.018270000000000005,0.010720000000000002,0.023100000000000006,-0.47800000000000004,0.3477,-10.261800000000001,9.079057067654144,20.309305916918262,25.599998474121094,25.3799991607666,25.479999542236328,25.43000030517578,20.78743479297226,20.608793322134744,20.68999455389168,20.64939471240555,20.68390434535106,0.018444669156356824,-7.800000190734863,0.0,0.0,0.0,0.0,0.0,0.0,,,,,
frame_00182.png,1771858327392145514,1771858327.3921454,42.300875057482614,-83.6981455458975,237.4890899658203,-0.004994362220648252,-0.9997332439638814,-0.012527036816769397,-0.018750216213546195,-0.014410000000000001,-0.010980000000000002,0.018430000000000005,-0.3793,0.6971,-10.3046,9.080378158255636,20.31226111732836,25.439998626708984,25.299999237060547,25.489999771118164,25.389999389648438,20.657513441675032,20.54383264648613,20.69811483194584,20.616913600188905,20.629093630073978,0.015598091759234378,-7.800000190734863,0.0,0.0,0.0,0.0,0.0,0.0,,,,,
frame_00183.png,1771858327441983417,1771858327.4419835,42.3008750146417,-83.69815215877104,237.48703002929688,-0.005452476137318474,-0.9997219594585718,-0.012494972389542872,-0.019239281308557586,-0.0031200000000000004,-0.023010000000000003,0.02023,-0.3165,0.6437,-9.719100000000001,9.079950412161828,20.311304274981282,25.44999885559082,25.19999885559082,25.479999542236328,25.34000015258789,20.665633719729193,20.462631414729195,20.68999455389168,20.576313758702774,20.59864336176321,0.014146757041883347,-7.800000190734863,0.0,0.0,0.0,0.0,0.0,0.0,,,,,
frame_00184.png,1771858327502206839,1771858327.5022068,42.300874978848626,-83.69815876561266,237.48388671875,-0.0060783273319920395,-0.9997074857438402,-0.012256815159818524,-0.019944106064524462,0.012550000000000002,-0.01871,0.02074,-0.8188000000000001,1.1899,-9.2173,9.065267200198305,20.278458810811596,25.420000076293945,25.229999542236328,25.43000030517578,25.26999855041504,20.641274434351388,20.486992248891678,20.64939471240555,20.519471812323648,20.574283301993066,0.014588115099937942,-7.900000095367432,0.0,0.0,0.0,0.0,0.0,0.0,,,,,
frame_00185.png,1771858327543875090,1771858327.543875,42.30087495697611,-83.69816316310732,237.48036193847656,-0.006482619883101504,-0.9997038141093344,-0.011919122348153472,-0.02020381689557856,0.005110000000000001,-0.008730000000000002,0.023520000000000003,-1.222,0.46040000000000003,-8.8938,9.049308320842464,20.242759755225343,25.399999618530273,25.189998626708984,25.459999084472656,25.28999900817871,20.625033878243066,20.454511136675034,20.673753997783358,20.53571236843197,20.572252845283355,0.01627708346303713,-7.900000095367432,0.0,0.0,0.0,0.0,0.0,0.0,,,,,
frame_00186.png,1771858327594903994,1771858327.594904,42.30087493693341,-83.69816755644968,237.4766845703125,-0.007157420478454413,-0.9997017869262803,-0.011872357753398533,-0.020103623302086145,-0.01907,0.007500000000000001,0.027180000000000003,-0.746,0.1178,-10.4841,9.030857802791077,20.201487053375473,25.399999618530273,25.239999771118164,25.389999389648438,25.219999313354492,20.625033878243066,20.49511252694584,20.616913600188905,20.47887197083752,20.553982994053833,0.017449009557910775,-8.0,0.0,0.0,0.0,0.0,0.0,0.0,,,,,
frame_00187.png,1771858327645231159,1771858327.645231,42.30087490897936,-83.69817413137453,237.47174072265625,-0.007772176196577496,-0.9996982140887561,-0.012199450151689436,-0.019855665209640473,-0.007550000000000001,0.022540000000000004,0.027970000000000002,-1.0494,0.45030000000000003,-10.122200000000001,9.011818150371546,20.15889649329213,25.399999618530273,25.15999984741211,25.3799991607666,25.260000228881836,20.625033878243066,20.430151851297225,20.608793322134744,20.511353083054164,20.5438330336823,0.019095119642003174,-8.0,0.0,0.0,0.0,0.0,0.0,0.0,,,,,
frame_00188.png,1771858327695990630,1771858327.6959906,42.30087489366591,-83.69817850864095,237.4686279296875,-0.008428937135429027,-0.9996990785870937,-0.012365204286035497,-0.01943725839328151,-0.0010800000000000002,0.018040000000000004,0.026200000000000005,-0.6204000000000001,0.6910000000000001,-9.7524,9.004011091697931,20.141432571462772,25.369998931884766,25.119998931884766,25.389999389648438,25.26999855041504,20.600673044080583,20.397670739080585,20.616913600188905,20.519471812323648,20.53368229891843,0.019474768046609164,-7.900000095367432,0.0,0.0,0.0,0.0,0.0,0.0,,,,,
frame_00189.png,1771858327755128226,1771858327.7551284,42.30087488096,-83.69818506504355,237.46437072753906,-0.009188315514882361,-0.9997066197201023,-0.012063646431163045,-0.018886973833561835,0.024220000000000005,0.017220000000000003,0.021660000000000002,-0.5208,0.7864,-9.7066,8.992293389258123,20.115220774167067,25.35999870300293,25.10999870300293,25.389999389648438,25.170000076293945,20.59255276602642,20.38955046102642,20.616913600188905,20.43827212935139,20.509322239148283,0.019592201816016824,-7.900000095367432,0.0,0.0,0.0,0.0,0.0,0.0,,,,,
frame_00190.png,1771858327806236378,1771858327.8062365,42.30087487459518,-83.69819162015011,237.45933532714844,-0.009772625190238082,-0.9997062700371633,-0.01210231337036231,-0.018585033127737922,-0.005750000000000001,0.0026500000000000004,0.021020000000000004,-0.1875,0.6104,-9.6934,8.992855331515882,20.11647780528114,25.079999923706055,25.18000030517578,25.34000015258789,25.119998931884766,20.365191175648615,20.44639240740555,20.576313758702774,20.397670739080585,20.44639202020938,0.01640019779415009,-7.900000095367432,0.0,0.0,0.0,0.0,0.0,0.0,,,,,
frame_00191.png,1771858327856013112,1771858327.856013,42.300874877438005,-83.69819598264154,237.45550537109375,-0.010252471738140922,-0.9997074682752283,-0.012006372657482335,-0.01832243743615384,0.025130000000000006,0.020540000000000003,0.012820000000000003,-0.0599,0.5318,-9.052200000000001,8.975676182598548,20.078049079901998,25.26999855041504,25.10999870300293,25.25,25.10999870300293,20.519471812323648,20.38955046102642,20.503232805,20.38955046102642,20.450451384844122,0.018547733570135384,-7.800000190734863,0.0,0.0,0.0,0.0,0.0,0.0,,,,,
frame_00192.png,1771858327898992421,1771858327.8989923,42.30087488285575,-83.69820034327532,237.4514923095703,-0.010575901591948655,-0.9997166068961423,-0.011600472076520933,-0.01789651500107191,0.01536,0.026360000000000005,0.01352,-0.6641,0.34700000000000003,-9.7133,8.958323583121965,20.03923235602885,25.26999855041504,25.079999923706055,25.19999885559082,25.03999900817871,20.519471812323648,20.365191175648615,20.462631414729195,20.332710063431968,20.420001116533356,0.019001165001709768,-7.099999904632568,0.0,68.0,0.0,0.0,0.0,0.0,,,,,
frame_00193.png,1771858327957677341,1771858327.9576774,42.3008748990095,-83.69820687142406,237.44546508789062,-0.011057618299838479,-0.9997238229971557,-0.011566936440816486,-0.01721083353184222,-0.0034200000000000003,0.02172,0.012240000000000003,0.15430000000000002,-0.35710000000000003,-10.6925,8.955459899878331,20.032826468433836,25.149999618530273,25.119998931884766,25.170000076293945,25.03999900817871,20.422031573243064,20.397670739080585,20.43827212935139,20.332710063431968,20.39767112627675,0.01821234055103555,-5.800000190734863,0.0,340.0,0.0,0.0,0.0,0.0,,,,,
frame_00194.png,1771858328008863820,1771858328.0088637,42.30087491221176,-83.698213396142,237.44186401367188,-0.011306382476968635,-0.9997140545856137,-0.012042527537034543,-0.017290237412968607,-0.005800000000000001,-0.012520000000000002,0.0006900000000000001,-0.3825,-0.367,-10.806000000000001,8.950942199779561,20.022720644374893,25.03999900817871,24.969999313354492,25.10999870300293,24.989999771118164,20.332710063431968,20.27586966583752,20.38955046102642,20.29211022194584,20.32256010306044,0.01497496089622479,-4.800000190734863,0.0,800.0,0.0,0.0,0.0,0.0,,,,,
frame_00195.png,1771858328049426470,1771858328.0494263,42.300874922233724,-83.69821774816394,237.4407196044922,-0.011453183588623017,-0.9997047780700086,-0.01234867751802463,-0.017512608407546405,-7.000000000000002e-05,-0.00727,0.00206,-0.5163,1.5058,-9.837900000000001,8.936032138052616,19.98936773089542,24.969999313354492,25.03999900817871,25.079999923706055,25.0,20.27586966583752,20.332710063431968,20.365191175648615,20.3002305,20.318500351229524,0.016465384236510824,-4.200000286102295,0.0,1452.0,0.0,0.0,0.0,0.0,,,,,
frame_00196.png,1771858328099364543,1771858328.0993645,42.300874942509246,-83.69822426036198,237.4401397705078,-0.01139287018811519,-0.9997071284135388,-0.011894809490490384,-0.017730578535905425,0.020190000000000003,0.00031,-0.007020000000000001,-0.6423,0.06620000000000001,-9.2492,8.914914177363961,19.942128119912542,24.35999870300293,24.43000030517578,24.78999900817871,24.739999771118164,19.780543546026422,19.83738549240555,20.12970775843197,20.08910791694584,19.959186178452445,0.0008553780437740506,-4.0,0.0,2512.0,996.0,0.0,0.0,0.0,,,,,
frame_00197.png,1771858328150135145,1771858328.150135,42.3008749539403,-83.69822856129998,237.43966674804688,-0.011259294895421712,-0.9997001267645619,-0.011966539590464204,-0.01815727830944573,-0.02109,-0.03603,-0.0004900000000000001,-2.5624000000000002,0.9067000000000001,-9.99,8.816741990190508,19.722522827536757,22.78999900817871,22.809999465942383,24.35999870300293,24.309999465942383,18.50568931843197,18.52192987454029,19.780543546026422,19.73994370454029,19.137026610884742,0.02968667962876127,-4.5,0.0,3008.0,1788.0,0.0,0.0,0.0,,,,,
frame_00198.png,1771858328200223443,1771858328.2002234,42.30087496920273,-83.69823493809493,237.44041442871094,-0.010970905416064769,-0.999685398203931,-0.012048580089536479,-0.019067657696356377,0.00384,-0.04086000000000001,-0.00935,-3.6788000000000003,1.4516,-9.9623,8.682855149723023,19.42302599862142,20.389999389648438,19.889999389648438,23.850000381469727,23.869998931884766,16.556867500188904,16.150862890188904,19.366420206756935,19.382659214080583,17.86420245280383,0.08025647218555074,-5.700000286102295,0.0,3364.0,2288.0,0.0,0.0,0.0,,,,,
frame_00199.png,1771858328249947684,1771858328.2499475,42.30087497377168,-83.69823912878746,237.44174194335938,-0.010371079301207842,-0.999673952286549,-0.011655970981378752,-0.020213069395808417,0.0051600000000000005,-0.04274000000000001,-0.02416,-4.2391000000000005,-0.34,-10.128400000000001,8.531597649505143,19.084672046084034,17.709999084472656,20.40999984741211,23.469999313354492,23.369998931884766,14.380682542783356,16.573108056297226,19.05785583583752,18.976654604080583,17.24707525974967,0.09628652679475398,-7.700000286102295,0.0,3800.0,1824.0,1.0,0.0,0.0,,,,,
frame_00200.png,1771858328301769629,1771858328.3017697,42.30087497321664,-83.69824528988244,237.4409637451172,-0.009598717091563569,-0.9996685155378842,-0.011798115996549872,-0.020773255195348866,-0.03427,-0.03687000000000001,-0.026840000000000003,-4.0518,-0.8754000000000001,-8.398900000000001,8.391031394967564,18.770233768658745,18.869998931884766,21.760000228881836,22.719999313354492,22.920000076293945,15.322613114080582,17.66932081305416,18.448848920837516,18.611251384351387,17.513008558080912,0.06697973110367232,-9.40000057220459,0.0,4680.0,1840.0,1.0,0.0,0.0,,,,,
frame_00201.png,1771858328360990894,1771858328.360991,42.30087495090223,-83.69825132126236,237.43536376953125,-0.00850954771030904,-0.9996692002865999,-0.013105970995221478,-0.020428194251778133,-0.04570000000000001,0.00897,-0.030130000000000004,-2.8151,-1.1282,-9.433900000000001,8.224703778772728,18.39816887088787,22.809999465942383,21.889999389648438,22.079999923706055,21.889999389648438,18.52192987454029,17.774881330188904,17.929163515648614,17.774881330188904,18.000214012641678,0.021630134011645596,-9.300000190734863,0.0,5372.0,1968.0,1.0,0.0,0.0,,,,,
frame_00202.png,1771858328401972889,1771858328.401973,42.300874924840095,-83.69825528494601,237.43101501464844,-0.008151959926256891,-0.9996639846131459,-0.014041609939199532,-0.020206350661212385,-0.02441,0.0027400000000000002,-0.01573,-2.5978000000000003,1.1747,-9.428600000000001,8.121287980046805,18.1668339340859,22.31999969482422,20.939998626708984,22.020000457763672,20.869998931884766,18.12404554259445,17.003471951675035,17.880443396108323,16.946631554080582,17.488648111114596,0.037330985984236044,-8.600000381469727,0.0,5452.0,2264.0,1.0,0.0,0.0,,,,,
frame_00203.png,1771858328453371631,1771858328.4533718,42.30087489740307,-83.69825919228626,237.42771911621094,-0.008010292062763102,-0.9996576852552724,-0.01422873237423032,-0.020442375257352364,-0.015290000000000003,-0.0034700000000000004,0.004430000000000001,-3.4651,0.058800000000000005,-10.5784,7.996894964379605,17.888574221619315,21.459999084472656,20.529998779296875,21.43000030517578,20.510000228881836,17.425717117783357,16.670548295377806,17.401357832405548,16.65430928805416,17.03798313340522,0.04754940654723112,-8.699999809265137,0.0,5452.0,2796.0,1.0,0.0,0.0,,,,,
frame_00204.png,1771858328504112924,1771858328.504113,42.30087483999668,-83.69826495942326,237.4232177734375,-0.008056786427095342,-0.9996225084462432,-0.015595564589241873,-0.021135448073111567,-0.061700000000000005,-0.041650000000000006,0.00218,-3.4236,1.0669,-9.883600000000001,7.816875806348611,17.48588216625346,20.03999900817871,19.389999389648438,20.770000457763672,19.649999618530273,16.27266396343197,15.744858280188904,16.86543187110832,15.955980863243067,16.209733744493064,0.07298164368414162,-9.90000057220459,0.0,5464.0,2996.0,1.0,0.0,0.0,,,,,
frame_00205.png,1771858328553986674,1771858328.5539865,42.30087479401686,-83.6982687332129,237.42091369628906,-0.007969954762245046,-0.999596381289613,-0.016567422143304665,-0.021658136053776523,-0.05936000000000001,-0.01591,-0.00445,-3.4625000000000004,-0.7205,-9.844800000000001,7.679334461683077,17.178210430717343,19.10999870300293,18.579999923706055,20.529998779296875,18.69999885559082,15.517495141026421,15.087131245648612,16.670548295377806,15.184571484729195,15.614936541695508,0.09100330301149734,-11.699999809265137,0.0,5496.0,3232.0,1.0,0.0,0.0,,,,,
frame_00206.png,1771858328604481600,1771858328.6044815,42.30087473030298,-83.69827424948492,237.417236328125,-0.007595115807343733,-0.9995764005109062,-0.01739176763889796,-0.022064908246532622,0.004900000000000001,0.015670000000000003,-0.01685,-4.5637,0.4716,-8.9563,7.439752275201274,16.642279454488737,19.549999237060547,15.269999504089355,20.559999465942383,17.799999237060547,15.874779631486131,12.399380386715984,16.694909129540292,14.45376349648613,14.855708161057136,0.10735135762605699,-14.100000381469727,0.0,5604.0,3040.0,1.0,0.0,0.0,,,,,
frame_00207.png,1771858328654705888,1771858328.654706,42.30087469581709,-83.69827783004682,237.41456604003906,-0.007028773163795299,-0.999597892722254,-0.016909487042428447,-0.02164990672042981,0.026720000000000004,0.026880000000000005,-0.026980000000000004,-3.8120000000000003,0.1957,-9.5337,7.25096408461071,16.219971599429083,17.28999900817871,19.209999084472656,19.959999084472656,17.219999313354492,14.03963860843197,15.598696372783357,16.207703287783357,13.982798210837517,14.95720911995905,0.07785232370656438,-17.600000381469727,0.0,5760.0,3152.0,1.0,0.0,0.0,,,,,
frame_00208.png,1771858328706350832,1771858328.7063508,42.300874654075606,-83.69828307215936,237.4119110107422,-0.0062658076397654194,-0.9996316395116813,-0.01606918600653052,-0.020954861080349493,0.06031,0.0103,-0.039950000000000006,-3.5953000000000004,0.5745,-11.7461,7.089161000180061,15.858027807742786,16.170000076293945,15.309999465942383,19.029998779296875,16.270000457763672,13.130189149351388,12.431860724540291,15.45253446537781,13.211390381108323,13.556493680094453,0.1451336922567757,-20.0,0.0,5940.0,3272.0,1.0,0.0,0.0,,,,,
frame_00209.png,1771858328756139813,1771858328.7561398,42.30087463089477,-83.69828648393859,237.41107177734375,-0.005522498577678503,-0.9996647894850352,-0.01468907807579049,-0.02059227181694707,0.03950000000000001,-0.00206,-0.025590000000000005,-4.1651,-0.18000000000000002,-7.4034,6.933810654875543,15.5105184063173,18.549999237060547,14.019999504089355,17.940000534057617,17.369998931884766,15.06277041148613,11.384368861715986,14.56744584045971,14.104599284080582,13.7797960994356,0.11158378214984682,-21.80000114440918,0.0,5948.0,2700.0,1.0,0.0,0.0,,,,,
frame_00210.png,1771858328816304124,1771858328.8163042,42.30087458953621,-83.69829149880373,237.4081268310547,-0.0047886872196968855,-0.9996833079623637,-0.014072207690735358,-0.02030579293813988,0.04343,0.025750000000000006,-0.04313,-2.8093000000000004,-0.9418000000000001,-8.1067,6.761881746495389,15.125923754005397,13.809999465942383,17.440000534057617,15.559999465942383,16.6299991607666,11.213846894540291,14.161441230459708,12.634863029540291,13.503712647134742,12.878465950418757,0.1485831768120281,-24.200000762939453,0.0,5876.0,2508.0,1.0,0.0,0.0,,,,,
frame_00211.png,1771858328876070580,1771858328.8760707,42.30087451985899,-83.69829638869714,237.4020233154297,-0.004228619911852749,-0.9996654780856539,-0.014940983170062823,-0.02068375496214585,-0.07097000000000002,-0.012500000000000002,-0.013430000000000003,-5.0693,0.2695,-9.4466,6.559926705858721,14.674162445403608,16.1299991607666,14.929999351501465,16.65999984741211,15.399999618530273,13.097708037134742,12.123297128013212,13.528073481297227,12.504941678243066,12.813505081172062,0.12679819861298866,-25.399999618530273,0.0,5716.0,2752.0,1.0,0.0,0.0,,,,,
