image_filename,timestamp_ns,timestamp_sec,latitude,longitude,altitude,orientation_x,orientation_y,orientation_z,orientation_w,angular_velocity_x,angular_velocity_y,angular_velocity_z,linear_acceleration_x,linear_acceleration_y,linear_acceleration_z,vehicle_speed_mps,vehicle_speed_mph,wheel_speed_fl_rads,wheel_speed_fr_rads,wheel_speed_rl_rads,wheel_speed_rr_rads,wheel_speed_fl_mph,wheel_speed_fr_mph,wheel_speed_rl_mph,wheel_speed_rr_mph,avg_wheel_speed_mph,wheel_slip,steering_angle_deg,throttle_pedal,brake_pedal,brake_torque_actual,abs_active,esc_active,trac_active,marwis_road_condition,marwis_friction,marwis_surface_temp_c,marwis_ice_percent,marwis_water_film_height
pylon_camera_1771859463453176776.png,1771859463453176776,1771859463.4531767,42.300098725075884,-83.6985857329669,236.21142578125,-0.7042216031460321,-0.7099530135457559,0.002853947333495266,0.005523332721284133,-0.009010000000000002,0.008270000000000001,-0.00223,3.6669,-0.3652,-9.4853,1.6757986209514855,3.748660967151216,4.46999979019165,4.5,4.480000019073486,4.369999885559082,3.6296810430336857,3.65404149,3.637801321087847,3.5484801984729195,3.617501013148613,0.034988481260890755,5.400000095367432,42.42499923706055,0.0,0.0,0.0,0.0,0.0,,,,,
pylon_camera_1771859463491224393.png,1771859463491224393,1771859463.4912243,42.30009934453428,-83.69858575838342,236.2117919921875,-0.704213708586509,-0.7099619206645841,0.0025475235677500526,0.005534796180690237,-0.009770000000000003,0.014270000000000003,-0.0035800000000000007,3.7671,-0.23650000000000002,-9.7128,1.8161000340468318,4.062506810160721,4.769999980926514,4.769999980926514,4.789999961853027,4.809999942779541,3.8732839639121535,3.8732839639121535,3.889524132824307,3.90576430173646,3.8854640905962685,0.043579673299661004,5.200000286102295,42.92499923706055,0.0,0.0,0.0,0.0,0.0,,,,,
pylon_camera_1771859463539019875.png,1771859463539019875,1771859463.5390198,42.30010036540565,-83.6985858010034,236.2122344970703,-0.7041795187326804,-0.7099970354649077,0.0021483345164051144,0.005549746594119528,-0.010180000000000002,0.011790000000000002,-0.00302,3.591,-0.1416,-9.8777,1.993743017555191,4.459883505689909,5.339999675750732,5.369999885559082,5.339999675750732,5.409999847412109,4.336128971506605,4.36048941847292,4.336128971506605,4.392969756297226,4.356429279445839,0.023196620744035848,5.099999904632568,43.79999923706055,0.0,0.0,0.0,0.0,0.0,,,,,
pylon_camera_1771859463589905257.png,1771859463589905257,1771859463.5899053,42.300101115423026,-83.69858583043963,236.21295166015625,-0.704138650223472,-0.7100383876125456,0.0018389653160709068,0.005555860384297065,-0.0035900000000000003,0.010990000000000003,-0.0031000000000000003,3.7293000000000003,-0.1106,-10.1233,2.177707373699132,4.871400732522536,5.859999656677246,5.849999904632568,5.849999904632568,5.920000076293945,4.758373750418759,4.750253859560766,4.750253859560766,4.807094644351388,4.76649402847292,0.02153522360606395,5.099999904632568,44.25,0.0,0.0,0.0,0.0,0.0,,,,,
pylon_camera_1771859463639819240.png,1771859463639819240,1771859463.6398191,42.30010233347737,-83.69858587487032,236.21482849121094,-0.7040957019058917,-0.7100811839496122,0.0017608075700462932,0.0055546660627085725,0.0038200000000000005,0.0005300000000000001,-0.003920000000000001,3.8645,0.06760000000000001,-10.2041,2.366361834404319,5.293409441852398,6.339999675750732,6.349999904632568,6.449999809265137,6.369999885559082,5.148138191506605,5.1562584695607665,5.237459314121533,5.17249863847292,5.178588653415456,0.021691272836200738,5.099999904632568,44.67499923706055,0.0,0.0,0.0,0.0,0.0,,,,,
pylon_camera_1771859463690853869.png,1771859463690853869,1771859463.6908538,42.300103206091904,-83.69858590183814,236.2167205810547,-0.7040231220426653,-0.7101518892822223,0.0020455475194361243,0.005617251421687036,0.018740000000000003,-0.009760000000000001,-0.004900000000000001,3.7004,0.27490000000000003,-10.248700000000001,2.553462072286022,5.711941447979495,6.889999866485596,6.869999885559082,6.87999963760376,6.909999847412109,5.5947434173850725,5.578503248472919,5.586623139330912,5.610983586297227,5.592713347871532,0.02087348079349403,5.200000286102295,44.22500228881836,0.0,0.0,0.0,0.0,0.0,,,,,
pylon_camera_1771859463740885145.png,1771859463740885145,1771859463.7408853,42.30010462558484,-83.69858593509093,236.2208251953125,-0.7039524083841092,-0.7102192983943676,0.0026358887140810845,0.00571025473261378,0.022080000000000002,-0.02213,-0.004390000000000001,3.7323000000000004,0.0108,-10.1692,2.736959330174302,6.122413804040103,7.37999963760376,7.369999885559082,7.37999963760376,7.429999828338623,5.992627749330913,5.98450785847292,5.992627749330913,6.033228365209379,6.000747930586031,0.019872206836752216,5.400000095367432,44.625,0.0,0.0,0.0,0.0,0.0,,,,,
pylon_camera_1771859463792237011.png,1771859463792237011,1771859463.792237,42.30010563974594,-83.69858595609217,236.22390747070312,-0.7038926254802257,-0.7102746689130048,0.003286837519863062,0.005853477102882577,0.023100000000000006,-0.01327,-0.004240000000000001,3.6366,-0.20800000000000002,-9.790000000000001,2.916451954880154,6.523928035949612,7.949999809265137,7.899999618530273,7.949999809265137,7.96999979019165,6.455473144121533,6.414872528243065,6.455473144121533,6.471713313033686,6.449383032379954,0.011426398813549657,5.800000190734863,44.32500076293945,0.0,0.0,0.0,0.0,0.0,,,,,
pylon_camera_1771859463841867490.png,1771859463841867490,1771859463.8418674,42.300107254784784,-83.69858599200312,236.2286376953125,-0.7038416621323181,-0.7103221208617316,0.0037279039249119147,0.00595835494356877,0.0165,-0.005280000000000001,-0.00464,3.6001000000000003,-0.2444,-9.748700000000001,3.0933870232185736,6.919721167718556,8.5,8.489999771118164,8.5,8.4399995803833,6.90207837,6.89395809194584,6.90207837,6.853357476067372,6.8878680770033025,0.004603233272440644,6.5,44.29999923706055,0.0,0.0,0.0,0.0,0.0,,,,,
pylon_camera_1771859463893027066.png,1771859463893027066,1771859463.893027,42.300108400024534,-83.6985860199407,236.23187255859375,-0.703760077324993,-0.7103998167813516,0.0040634002217755875,0.006110864028901818,0.01776,-0.0015,-0.006010000000000001,3.7138,-0.2637,-9.81,3.273647449726088,7.3229529261902755,9.019999504089355,8.979999542236328,8.989999771118164,9.039999961853027,7.324322761715985,7.291842423891678,7.299962701945839,7.340563317824307,7.314172801344451,0.001198986929770139,7.400000095367432,44.375,0.0,0.0,0.0,0.0,0.0,,,,,
pylon_camera_1771859463942841490.png,1771859463942841490,1771859463.9428415,42.30011020750272,-83.69858606794848,236.2367401123047,-0.7036018882025638,-0.7105523067888213,0.004508243179626897,0.0062831503487420625,0.018530000000000005,-0.016940000000000004,-0.009400000000000002,3.4186,0.0492,-9.820500000000001,3.4500060145098144,7.717456454097585,9.529999732971191,9.469999313354492,9.519999504089355,9.510000228881836,7.738447649770146,7.689726755837517,7.730327371715985,7.722207868054161,7.720177411344453,0.0003525717654582685,8.199999809265137,44.29999923706055,0.0,0.0,0.0,0.0,0.0,,,,,
pylon_camera_1771859463993922376.png,1771859463993922376,1771859463.9939222,42.300111469237315,-83.69858610317137,236.2401580810547,-0.7033891693654177,-0.7107587957786005,0.004881224588397836,0.006464076832697794,0.010590000000000002,-0.004920000000000001,-0.01284,3.4216,-0.11040000000000001,-9.9657,3.6237937265996196,8.106209138779754,10.010000228881836,9.960000038146973,10.019999504089355,10.019999504089355,8.128212478054161,8.087611862175693,8.136331981715985,8.136331981715985,8.122122075915456,0.0019630553398352034,8.800000190734863,43.775001525878906,0.0,0.0,0.0,0.0,0.0,,,,,
pylon_camera_1771859464043877875.png,1771859464043877875,1771859464.0438778,42.30011346535596,-83.69858616315257,236.2453155517578,-0.7031213692387926,-0.7110213587604703,0.005049486559962729,0.006593192827504292,-5.000000000000001e-05,0.006270000000000001,-0.012780000000000001,3.4831000000000003,-0.4786,-10.304,3.798076476917133,8.496069194275012,10.529999732971191,10.529999732971191,10.489999771118164,10.40999984741211,8.550456869770146,8.550456869770146,8.51797653194584,8.453015856297226,8.51797653194584,0.002578526277256429,9.0,44.0,0.0,0.0,0.0,0.0,0.0,,,,,
pylon_camera_1771859464095213537.png,1771859464095213537,1771859464.0952137,42.30011557755605,-83.69858623687459,236.251708984375,-0.7028822204915959,-0.7112599062309813,0.005167168660160618,0.006263407470115086,-0.006590000000000001,-0.014740000000000001,-0.010060000000000001,3.4244000000000003,-0.1413,-10.4382,3.9746615400657284,8.891079385434631,11.010000228881836,10.979999542236328,10.920000076293945,11.010000228881836,8.940221698054161,8.915860863891679,8.867140744351389,8.940221698054161,8.915861251087847,0.002787273015896515,8.90000057220459,43.42499923706055,0.0,0.0,0.0,0.0,0.0,,,,,
pylon_camera_1771859464153673238.png,1771859464153673238,1771859464.1536732,42.30011705110852,-83.69858629164446,236.25682067871094,-0.702645527537817,-0.7114943663899024,0.005621657462617442,0.005781539060408647,0.005560000000000001,-0.023360000000000006,-0.011890000000000001,3.4432,-0.0403,-9.781,4.182140377811632,9.355197096741954,11.559999465942383,11.59000015258789,11.569999694824219,11.539999961853027,9.38682614954029,9.411186983702773,9.394946427594453,9.370586367824306,9.390886482165456,0.0038149260838055174,8.0,43.57500076293945,0.0,0.0,0.0,0.0,0.0,,,,,
pylon_camera_1771859464196187149.png,1771859464196187149,1771859464.196187,42.30011935038842,-83.69858637863979,236.2650909423828,-0.7025184641237093,-0.7116179912029288,0.006095501684369998,0.005521505300968805,0.005800000000000001,-0.024300000000000002,-0.006560000000000001,3.1692,-0.17600000000000002,-9.5016,4.317997208742118,9.659100676123593,11.920000076293945,11.869999885559082,11.949999809265137,11.9399995803833,9.679149964351387,9.638549348472921,9.703510024121533,9.695389746067372,9.679149770753304,0.002075668874564069,6.900000095367432,43.150001525878906,0.0,0.0,0.0,0.0,0.0,,,,,
pylon_camera_1771859464246356805.png,1771859464246356805,1771859464.2463567,42.30012094768891,-83.69858644328788,236.2698516845703,-0.7023993412510952,-0.7117349125213649,0.006419795442789107,0.005231245999324432,-0.008020000000000001,-0.017670000000000005,-0.004090000000000001,3.0824000000000003,-0.40080000000000005,-9.1653,4.4864240634500545,10.035861444493966,12.359999656677246,12.40999984741211,12.479999542236328,12.4399995803833,10.03643368041876,10.077034296297228,10.133874693891677,10.101394356067372,10.08718425666876,0.005113941883180491,5.300000190734863,43.400001525878906,0.0,0.0,0.0,0.0,0.0,,,,,
pylon_camera_1771859464296889138.png,1771859464296889138,1771859464.296889,42.3001234259049,-83.69858654769591,236.27491760253906,-0.702320724174148,-0.711816943667492,0.006158516436394505,0.004930697584864805,-0.014080000000000002,0.007000000000000001,-0.00487,3.1814,-0.30920000000000003,-9.1698,4.645292104191066,10.391239719549164,12.90999984741211,12.889999389648438,12.859999656677246,12.969999313354492,10.483038906297226,10.466798350188904,10.442438290418758,10.531759025837516,10.481008643185602,0.008638904121089084,3.799999952316284,43.29999923706055,0.0,0.0,0.0,0.0,0.0,,,,,
pylon_camera_1771859464346876532.png,1771859464346876532,1771859464.3468764,42.30012513014416,-83.69858661800933,236.2771759033203,-0.7022214445556547,-0.7119163609581401,0.005820415221249036,0.005124507092479561,0.004730000000000001,0.013100000000000002,-0.006390000000000001,3.3522000000000003,-0.17270000000000002,-9.4542,4.8052524676728865,10.749061455036188,13.479999542236328,13.469999313354492,13.460000038146973,13.489999771118164,10.945883913891679,10.937763635837516,10.929644132175694,10.954004191945838,10.941823968462682,0.017932962262131317,2.799999952316284,43.150001525878906,0.0,0.0,0.0,0.0,0.0,,,,,
pylon_camera_1771859464399074421.png,1771859464399074421,1771859464.3990743,42.30012778476069,-83.69858672347854,236.27957153320312,-0.7021442904334875,-0.7119891092926756,0.0056818396967525985,0.005711423459789502,0.012360000000000001,0.012210000000000002,-0.00117,3.4036,-0.13520000000000001,-10.0085,5.00349566013968,11.192519581992856,13.969999313354492,13.949999809265137,13.989999771118164,13.90999984741211,11.343768245837518,11.327528464121533,11.36000880194584,11.295048126297226,11.331588409550529,0.012425158297816494,2.6000001430511475,43.400001525878906,0.0,0.0,0.0,0.0,0.0,,,,,
pylon_camera_1771859464450567004.png,1771859464450567004,1771859464.450567,42.300129618246615,-83.69858679322437,236.2815704345703,-0.702115509374477,-0.7120115605815585,0.005984054972165393,0.006127004171900493,0.025360000000000004,-0.0018100000000000002,-0.00042000000000000007,3.6099,-0.0083,-10.1356,5.1731544886368805,11.572036201811384,14.399999618530273,14.359999656677246,14.420000076293945,14.380000114440918,11.692932458243066,11.66045212041876,11.709173014351387,11.67669267652708,11.684812567385073,0.009745593913371603,2.700000047683716,43.57500076293945,0.0,0.0,0.0,0.0,0.0,,,,,
pylon_camera_1771859464501055999.png,1771859464501055999,1771859464.501056,42.30013245119126,-83.69858688885297,236.28543090820312,-0.7020511868023178,-0.7120661340180979,0.006563840230948462,0.006547357894561374,0.0327,-0.006170000000000001,-0.005090000000000001,3.2267,0.026000000000000002,-10.2165,5.329201468011079,11.921103931852704,14.84999942779541,14.869999885559082,14.809999465942383,14.789999961853027,12.058336452364598,12.07457700847292,12.025856114540291,12.009616332824306,12.04209647705053,0.010149441351193878,2.9000000953674316,43.35000228881836,0.0,0.0,0.0,0.0,0.0,,,,,
pylon_camera_1771859464549634723.png,1771859464549634723,1771859464.549635,42.300134398785936,-83.69858695264296,236.2887420654297,-0.7019688298911048,-0.7121374688159414,0.007139860001619762,0.007000697743407559,0.027360000000000002,-0.00557,-0.0060300000000000015,3.0207,-0.1303,-10.2661,5.479791548003107,12.257964905390072,15.229999542236328,15.279999732971191,15.309999465942383,15.199999809265137,12.36690004889168,12.407500664770147,12.431860724540291,12.342539989121533,12.387200356830913,0.010542977764931778,3.1000001430511475,43.0,0.0,0.0,0.0,0.0,0.0,,,,,
pylon_camera_1771859464601466796.png,1771859464601466796,1771859464.601467,42.30013739824777,-83.69858705340737,236.2948455810547,-0.7018676114621933,-0.7122276900471833,0.0076456006688471415,0.007424170042602084,0.020880000000000003,-0.006390000000000001,-0.00354,2.8003,-0.5943,-10.2902,5.632167046086902,12.598819752073636,15.639999389648438,15.59999942779541,15.75999927520752,15.670000076293945,12.699823705188903,12.667343367364598,12.797264718661824,12.724184539351388,12.722154082641676,0.009789355907543701,3.299999952316284,43.42499923706055,0.0,0.0,0.0,0.0,0.0,,,,,
pylon_camera_1771859464649962994.png,1771859464649962994,1771859464.649963,42.30013944642488,-83.69858712544126,236.2998504638672,-0.7017834369528015,-0.7123063335250662,0.007963123521968854,0.007502233171822734,-0.0035100000000000005,-0.014370000000000003,-0.0017500000000000003,3.0909,-0.9746,-10.4983,5.78780687891496,12.946976719720032,16.020000457763672,16.1299991607666,16.19999885559082,16.100000381469727,13.008388076108323,13.097708037134742,13.154548434729195,13.073348751756935,13.0834983249323,0.010544670633749323,3.4000000953674316,43.29999923706055,0.0,0.0,0.0,0.0,0.0,,,,,
pylon_camera_1771859464699966133.png,1771859464699966133,1771859464.6999662,42.30014261326291,-83.69858725329726,236.30947875976562,-0.7016984779822055,-0.7123900603569876,0.008432012983853257,0.006967715483879694,-0.0022800000000000003,-0.04517,-0.005920000000000001,3.1189,-0.4451,-10.0784,5.9519629954582935,13.314184103060477,16.549999237060547,16.369998931884766,16.53999900817871,16.579999923706055,13.43875197148613,13.292590064080583,13.43063169343197,13.463112805648613,13.406271633661824,0.006916498216378075,3.4000000953674316,43.20000076293945,0.0,0.0,0.0,0.0,0.0,,,,,
pylon_camera_1771859464750183921.png,1771859464750183921,1771859464.7501838,42.30014478426839,-83.69858735070164,236.31643676757812,-0.7016293207236967,-0.7124579454263151,0.009072656704328592,0.006136709219375949,-0.0014600000000000004,-0.020920000000000005,-0.0035900000000000003,2.5921000000000003,0.2315,-8.4977,6.088696717385938,13.6200492349893,16.979999542236328,17.020000457763672,16.940000534057617,16.959999084472656,13.78791618389168,13.820397296108322,13.75543662045971,13.771675627783356,13.783856432060766,0.012026916661259327,3.299999952316284,42.97500228881836,0.0,0.0,0.0,0.0,0.0,,,,,
pylon_camera_1771859464801737915.png,1771859464801737915,1771859464.801738,42.30014811113515,-83.69858750146668,236.3250732421875,-0.7015226074617248,-0.7125619700645469,0.009408488743208964,0.0057402419289844684,0.011730000000000003,0.00892,-0.005490000000000001,2.6830000000000003,-0.3549,-8.5802,6.220653276521005,13.915228140380897,17.389999389648438,17.329999923706055,17.35999870300293,17.329999923706055,14.120839840188903,14.072119720648613,14.09647900602642,14.072119720648613,14.090389571878138,0.012587751327549999,3.0,42.97500228881836,0.0,0.0,0.0,0.0,0.0,,,,,
pylon_camera_1771859464851493290.png,1771859464851493290,1771859464.8514934,42.300150379419506,-83.69858760047698,236.3292999267578,-0.7014369940540947,-0.7126445842264197,0.009448116302997613,0.0058798846446440085,0.022050000000000004,0.02655,-0.00903,2.2139,-0.2361,-9.974300000000001,6.355701112158736,14.217322045832365,17.770000457763672,17.78999900817871,17.75,17.809999465942383,14.429404211108324,14.445643218431968,14.413163655,14.461883774540292,14.437523714770146,0.015488266231004487,2.9000000953674316,43.0,0.0,0.0,0.0,0.0,0.0,,,,,
pylon_camera_1771859464902008296.png,1771859464902008296,1771859464.9020083,42.30015385441417,-83.69858775160029,236.33509826660156,-0.7013396107268326,-0.7127385128484146,0.00945386096834955,0.006098134219319465,0.015550000000000001,0.013610000000000002,-0.010360000000000001,2.3735,0.1898,-9.8164,6.505596568607187,14.55262918818016,18.15999984741211,18.19999885559082,18.19999885559082,18.18000030517578,14.746087311297225,14.778566874729195,14.778566874729195,14.762327867405547,14.766387232040291,0.014688620255214585,2.9000000953674316,42.92499923706055,0.0,0.0,0.0,0.0,0.0,,,,,
pylon_camera_1771859464952165753.png,1771859464952165753,1771859464.9521656,42.300156219233735,-83.6985878482896,236.3390655517578,-0.7011924837699688,-0.712878183983971,0.009757980681810993,0.006211064098152104,0.015260000000000003,-0.007660000000000001,-0.010030000000000002,2.4276,0.24080000000000001,-9.7804,6.656265382552153,14.889666284846214,18.60999870300293,18.56999969482422,18.529998779296875,18.549999237060547,15.111490531026423,15.079010967594453,15.046529855377807,15.06277041148613,15.074950441371202,0.012443808543483521,2.799999952316284,42.42499923706055,0.0,0.0,0.0,0.0,0.0,,,,,
pylon_camera_1771859465003014362.png,1771859465003014362,1771859465.0030143,42.30015985258309,-83.6985879874251,236.34567260742188,-0.7010023096356224,-0.7130560263086482,0.010370707375623067,0.006270060523829122,0.03612,-0.01959,-0.011860000000000002,2.4927,0.2383,-10.2294,6.801290683218284,15.214079180918308,18.920000076293945,18.94999885559082,18.899999618530273,18.969999313354492,15.363214504351387,15.387573789729194,15.346973948243065,15.403814345837517,15.37539414704029,0.01060300555845041,2.6000001430511475,41.95000076293945,0.0,0.0,0.0,0.0,0.0,,,,,
pylon_camera_1771859465053172228.png,1771859465053172228,1771859465.053172,42.30016232874958,-83.69858807761698,236.3512420654297,-0.7007843482127493,-0.7132554254460512,0.011249107067641075,0.006438397470251373,0.038020000000000005,-0.022410000000000003,-0.014550000000000002,2.5506,-0.1967,-10.024700000000001,6.936673782212734,15.516923050382953,19.329999923706055,19.329999923706055,19.28999900817871,19.329999923706055,15.696138160648614,15.696138160648614,15.663657048431968,15.696138160648614,15.688017882594453,0.011026337609328881,2.200000047683716,42.20000076293945,0.0,0.0,0.0,0.0,0.0,,,,,
pylon_camera_1771859465104129681.png,1771859465104129681,1771859465.1041298,42.30016611023093,-83.69858822063874,236.3604736328125,-0.7006146513891119,-0.713411675547174,0.011833882639153383,0.006546042588448894,0.015870000000000002,-0.00936,-0.0122,2.6143,-0.5486,-9.7921,7.067033759129844,15.808530497147913,19.649999618530273,19.739999771118164,19.760000228881836,19.719999313354492,15.955980863243067,16.029061816945838,16.04530237305416,16.01282126083752,16.01079157852015,0.012794426490730811,1.7000000476837158,41.875,0.0,0.0,0.0,0.0,0.0,,,,,
pylon_camera_1771859465153809552.png,1771859465153809552,1771859465.1538095,42.30016997526177,-83.69858838186441,236.36895751953125,-0.700556924010081,-0.7134648428033901,0.011965113230199078,0.006689571769277081,0.00022000000000000003,0.026840000000000003,-0.0022700000000000003,2.665,-0.7481,-8.095,7.190662282378848,16.08508008594454,20.059999465942383,20.049999237060547,20.5,20.119998931884766,16.288904519540292,16.28078424148613,16.64618901,16.337624639080584,16.388375602526754,0.01885570447655025,1.100000023841858,41.60000228881836,0.0,0.0,0.0,0.0,0.0,,,,,
pylon_camera_1771859465205515651.png,1771859465205515651,1771859465.2055159,42.30017259735472,-83.6985885032547,236.37298583984375,-0.7005642663798048,-0.7134643092784659,0.011509785423566597,0.006775905624409075,-0.008820000000000001,0.031030000000000005,0.0009800000000000002,2.1431,0.38630000000000003,-10.5012,7.31263865980837,16.357933923671737,20.459999084472656,20.44999885559082,20.44999885559082,20.529998779296875,16.613707897783357,16.605587619729196,16.605587619729196,16.670548295377806,16.623857858154885,0.016256572237299868,0.6000000238418579,39.17499923706055,0.0,0.0,0.0,0.0,0.0,,,,,
pylon_camera_1771859465255341678.png,1771859465255341678,1771859465.2553415,42.300176598082274,-83.6985886941227,236.3787384033203,-0.7005729383959759,-0.7134607257362908,0.011051929015971403,0.007014676336040299,-0.020310000000000005,0.0037600000000000008,0.00553,2.4023000000000003,0.456,-10.3644,7.446636787728453,16.657679695941287,20.889999389648438,20.869998931884766,20.760000228881836,20.829999923706055,16.962872110188904,16.946631554080582,16.857311593054163,16.914151990648616,16.920241811993066,0.015762226243055517,0.20000000298023224,36.47500228881836,0.0,0.0,0.0,0.0,0.0,,,,,
pylon_camera_1771859465306419083.png,1771859465306419083,1771859465.3064191,42.30017930532498,-83.6985888237493,236.38345336914062,-0.7005541821917706,-0.713478800015592,0.010857493569620976,0.007345377819831016,-0.01238,0.00642,0.004570000000000001,2.0606,0.0575,-9.669,7.570209796489279,16.93410510215873,21.1299991607666,21.189998626708984,21.170000076293945,21.19999885559082,17.157754137134745,17.206474256675033,17.190235249351385,17.214594534729194,17.192264544472593,0.015244941539955068,0.20000000298023224,29.80000114440918,0.0,0.0,0.0,0.0,0.0,,,,,
pylon_camera_1771859465356206660.png,1771859465356206660,1771859465.3562067,42.30018344152828,-83.69858901596373,236.39157104492188,-0.700517165280943,-0.7135160860775543,0.010709125187893144,0.007470655461888163,-0.01665,0.011940000000000001,0.0027100000000000006,2.1135,-0.5750000000000001,-9.9021,7.692848094189002,17.20843961581515,21.469999313354492,21.469999313354492,21.489999771118164,21.53999900817871,17.433837395837518,17.433837395837518,17.45007795194584,17.49067779343197,17.45210763426321,0.014159797395234075,0.20000000298023224,23.399999618530273,0.0,0.0,0.0,0.0,0.0,,,,,
pylon_camera_1771859465407307667.png,1771859465407307667,1771859465.4073079,42.300186244344744,-83.69858914865999,236.3975372314453,-0.7004848111649035,-0.7135540705687822,0.010533710896924202,0.007117488091370686,-0.02045,-0.007720000000000001,-0.00079,1.6439000000000001,-0.4182,-9.8754,7.807611914170071,17.4651593952836,21.84000015258789,21.809999465942383,21.809999465942383,21.850000381469727,17.734281488702777,17.70992065454029,17.70992065454029,17.742401766756934,17.724131141135075,0.014827906232645656,0.10000000149011612,23.274999618530273,0.0,0.0,0.0,0.0,0.0,,,,,
pylon_camera_1771859465456981436.png,1771859465456981436,1771859465.4569814,42.30019049355908,-83.6985893415008,236.40621948242188,-0.7004444211912033,-0.7135959557500594,0.010519488599595967,0.006911231357923535,-0.0019100000000000002,-0.00493,-0.00072,1.3063,-0.39230000000000004,-10.1112,7.89095591437598,17.651594923104206,22.079999923706055,22.06999969482422,22.049999237060547,22.049999237060547,17.929163515648614,17.921043237594454,17.904802681486128,17.904802681486128,17.914953029053834,0.014919790936563926,0.10000000149011612,23.67500114440918,0.0,0.0,0.0,0.0,0.0,,,,,
pylon_camera_1771859465508426337.png,1771859465508426337,1771859465.5084262,42.300193354367956,-83.69858946827573,236.41221618652344,-0.7004018226937386,-0.7136376570384366,0.010588669598518662,0.006816252644454027,0.005070000000000001,-0.0041800000000000006,-0.005260000000000001,1.4246,-0.4374,-9.7981,7.961967350860283,17.8104432458334,22.209999084472656,22.299999237060547,22.299999237060547,22.299999237060547,18.03472403278336,18.107804986486133,18.107804986486133,18.107804986486133,18.089534748060437,0.015670104240237098,0.20000000298023224,23.700000762939453,0.0,0.0,0.0,0.0,0.0,,,,,
pylon_camera_1771859465559401164.png,1771859465559401164,1771859465.5594013,42.30019768080092,-83.69858966214282,236.42185974121094,-0.7002896948578663,-0.7137447831943996,0.010915099127518554,0.006602147354652162,0.0034900000000000005,-0.019040000000000005,-0.01114,1.4165,-0.7853,-10.253,8.046812019176228,18.00023567817607,22.3799991607666,22.489999771118164,22.420000076293945,22.420000076293945,18.172765662134744,18.262087171945836,18.205246774351387,18.205246774351387,18.21133659569584,0.011727675197926026,0.20000000298023224,23.825000762939453,0.0,0.0,0.0,0.0,0.0,,,,,
pylon_camera_1771859465611125008.png,1771859465611125008,1771859465.611125,42.30020058457749,-83.69858978988181,236.42884826660156,-0.7002038265014372,-0.7138252632034611,0.011451086159363267,0.006080097945396153,0.005510000000000001,-0.024650000000000002,-0.007750000000000001,1.0339,-0.9543,-9.8743,8.102486104146003,18.12477526580836,22.53999900817871,22.549999237060547,22.579999923706055,22.489999771118164,18.302687013431967,18.31080729148613,18.33516812564861,18.262087171945836,18.302687400628137,0.009815963630478857,0.30000001192092896,23.80000114440918,0.0,0.0,0.0,0.0,0.0,,,,,
pylon_camera_1771859465669221684.png,1771859465669221684,1771859465.6692216,42.30020497326573,-83.6985899880613,236.4403533935547,-0.7001250864711928,-0.7139026927029511,0.011890885366080288,0.0051396002171067755,-0.010850000000000002,-0.03463,-0.00525,1.2087,-0.9379000000000001,-9.843300000000001,8.164121223974734,18.26264933075804,22.739999771118164,22.68000030517578,22.739999771118164,22.779998779296875,18.46508947694584,18.416369357405546,18.46508947694584,18.497569040377808,18.46102933791876,0.010862608352590218,0.20000000298023224,23.774999618530273,0.0,0.0,0.0,0.0,0.0,,,,,
pylon_camera_1771859465712325841.png,1771859465712325841,1771859465.7123258,42.300207917118755,-83.69859012763098,236.4483642578125,-0.7000975294355738,-0.7139312169747535,0.012084244933297678,0.004431448019011801,-0.012110000000000003,-0.02237,-0.00442,0.9665,-0.2432,-9.3545,8.19641934398082,18.334898287324457,22.84000015258789,22.78999900817871,22.85999870300293,22.899999618530273,18.546290708702777,18.50568931843197,18.56252971602642,18.595010828243066,18.552380142851057,0.011861634142631307,0.20000000298023224,23.625,0.0,0.0,0.0,0.0,0.0,,,,,
pylon_camera_1771859465760069583.png,1771859465760069583,1771859465.7600696,42.30021235610673,-83.69859034068222,236.45916748046875,-0.7000656453679792,-0.7139637930271742,0.012261796491517908,0.0036664381306230165,-0.01642,-0.015120000000000001,-0.00305,0.6381,0.4282,-9.0356,8.23800068836686,18.427913259835364,22.959999084472656,23.029998779296875,23.029998779296875,23.049999237060547,18.643730947783357,18.700571345377806,18.700571345377806,18.716811901486132,18.690421385006275,0.014245135706334216,0.10000000149011612,24.075000762939453,0.0,0.0,0.0,0.0,0.0,,,,,
pylon_camera_1771859465811221701.png,1771859465811221701,1771859465.8112218,42.300215329981576,-83.69859048677155,236.46560668945312,-0.6999892356037928,-0.714035668895578,0.012590621573051575,0.003099972913749399,-0.013080000000000001,-0.018420000000000002,-0.0014700000000000002,0.6848000000000001,-0.12860000000000002,-10.1228,8.281111649667775,18.524349893607834,23.029998779296875,23.15999984741211,23.10999870300293,23.029998779296875,18.700571345377806,18.80613341129723,18.76553202102642,18.700571345377806,18.743202030769815,0.011814295153078505,-0.10000000149011612,23.825000762939453,0.0,0.0,0.0,0.0,0.0,,,,,
pylon_camera_1771859465861400763.png,1771859465861400763,1771859465.8614008,42.300219812125476,-83.69859070940247,236.47494506835938,-0.6999322390288687,-0.7140912433314887,0.012802336202711992,0.002158043807728069,-0.021810000000000003,-0.027090000000000003,-0.0036800000000000005,0.5295,-0.19110000000000002,-9.8728,8.32156657247346,18.614845128628783,23.1299991607666,23.209999084472656,23.19999885559082,23.25,18.781772577134742,18.846733252783356,18.838612974729198,18.879214365000003,18.836583292411824,0.011911899467915394,-0.20000000298023224,24.149999618530273,0.0,0.0,0.0,0.0,0.0,,,,,
pylon_camera_1771859465912444166.png,1771859465912444166,1771859465.912444,42.30022281429699,-83.69859086095045,236.48086547851562,-0.6998720588754371,-0.7141504477507075,0.01290710530079205,0.0012828934778216093,-0.020790000000000003,-0.014650000000000003,-0.0032500000000000007,0.5491,-0.28190000000000004,-9.0009,8.357036721800725,18.694189724464916,23.309999465942383,23.350000381469727,23.31999969482422,23.3799991607666,18.92793448454029,18.960415596756935,18.936054762594452,18.98477488213474,18.952294931506604,0.01380670736982558,-0.5,23.92500114440918,0.0,0.0,0.0,0.0,0.0,,,,,
pylon_camera_1771859465962557412.png,1771859465962557412,1771859465.9625576,42.30022733512811,-83.69859108680458,236.48822021484375,-0.6998292020423551,-0.7141890491603212,0.01312592647874972,0.0008944732031417753,-0.006010000000000001,-0.0027400000000000002,-0.0002800000000000001,0.26030000000000003,-0.8077000000000001,-9.5107,8.386874629799674,18.760935334384087,23.420000076293945,23.510000228881836,23.479999542236328,23.399999618530273,19.017255994351387,19.090336948054162,19.065976113891676,19.001015438243066,19.04364612363507,0.015069120180423331,-0.800000011920929,24.05000114440918,0.0,0.0,0.0,0.0,0.0,,,,,
pylon_camera_1771859466014014876.png,1771859466014014876,1771859466.014015,42.30023187672302,-83.69859130800654,236.4945068359375,-0.6998164127866542,-0.7141965844587225,0.013395894169284349,0.0008815675352877553,0.01454,0.004070000000000001,-0.0029600000000000004,0.5152,-1.0519,-9.5119,8.423198316902818,18.84218924301259,23.600000381469727,23.579999923706055,23.60999870300293,23.59000015258789,19.163417901756937,19.14717734564861,19.17153663102642,19.155297623702776,19.159357375533684,0.016832870556095888,-1.0,24.450000762939453,0.0,0.0,0.0,0.0,0.0,,,,,
pylon_camera_1771859466063307803.png,1771859466063307803,1771859466.0633078,42.30023492314594,-83.6985914532122,236.4988555908203,-0.6998130907585479,-0.7141900496484563,0.013899210198786783,0.001011405929312949,0.028140000000000005,-0.017300000000000003,-0.0014000000000000002,0.3719,-0.2998,-10.1232,8.467217256741357,18.940656970295013,23.719999313354492,23.69999885559082,23.729999542236328,23.60999870300293,19.260858140837517,19.244617584729195,19.26897841889168,19.17153663102642,19.2364976938712,0.01561934858121131,-1.0,24.975000381469727,0.0,0.0,0.0,0.0,0.0,,,,,
pylon_camera_1771859466114981055.png,1771859466114981055,1771859466.1149812,42.30023951489087,-83.69859166324746,236.50535583496094,-0.6998296038110324,-0.7141616526368899,0.014526887126876931,0.0007931475539310405,0.020170000000000004,-0.033400000000000006,0.00036,0.4625,0.8293,-10.2273,8.511957998132045,19.040739324341498,23.76999855041504,23.76999855041504,23.760000228881836,23.739999771118164,19.301457982323647,19.301457982323647,19.29333925305416,19.277098696945842,19.293338478661823,0.01326624717756653,-1.0,26.05000114440918,0.0,0.0,0.0,0.0,0.0,,,,,
pylon_camera_1771859466164878055.png,1771859466164878055,1771859466.1648781,42.30024259168943,-83.69859179985173,236.50942993164062,-0.6998244445019621,-0.7141457101093415,0.015537558745247667,0.00048567291703068135,0.01933,-0.04213000000000001,0.004380000000000001,0.0582,0.0405,-9.5356,8.550333860481595,19.1265838258657,23.81999969482422,23.850000381469727,23.90999984741211,23.850000381469727,19.342059372594452,19.366420206756935,19.415140326297227,19.366420206756935,19.372510028101388,0.012857821578316048,-1.0,28.149999618530273,0.0,0.0,0.0,0.0,0.0,,,,,
pylon_camera_1771859466215712326.png,1771859466215712326,1771859466.2157123,42.300247225602455,-83.69859201065644,236.514892578125,-0.6998277287073638,-0.714125352699022,0.01631327278272466,8.885891220614247e-05,0.013480000000000002,-0.031790000000000006,0.0037500000000000003,0.0164,0.137,-9.5967,8.585322171657046,19.204850578666512,23.989999771118164,23.8799991607666,23.969999313354492,23.94999885559082,19.48010100194584,19.390779492134744,19.463860445837515,19.447619889729197,19.445590207411822,0.012535355469661008,-1.100000023841858,28.80000114440918,0.0,0.0,0.0,0.0,0.0,,,,,
pylon_camera_1771859466265867557.png,1771859466265867557,1771859466.2658675,42.30025032622706,-83.69859215096645,236.517822265625,-0.6998904484061856,-0.7140452502466118,0.017109198473800352,-0.00012711265013906148,0.022590000000000006,-0.032470000000000006,0.006950000000000001,0.16720000000000002,0.5212,-9.8406,8.619716629334516,19.28178891682355,24.100000381469727,24.029998779296875,24.09000015258789,24.06999969482422,19.569422511756937,19.51258056537781,19.561302233702776,19.54506167759445,19.54709174710799,0.01375924357583653,-1.3000000715255737,29.375,0.0,0.0,0.0,0.0,0.0,,,,,
pylon_camera_1771859466318062995.png,1771859466318062995,1771859466.318063,42.30025499783195,-83.69859235740277,236.5216522216797,-0.6999334589112176,-0.7139846068765842,0.017864326482039783,-8.90010055096821e-06,0.016540000000000003,-0.018490000000000003,0.005700000000000001,0.36710000000000004,0.3058,-10.5495,8.656745123745436,19.364619437111116,24.209999084472656,24.219999313354492,24.209999084472656,24.139999389648438,19.658742472783356,19.666862750837517,19.658742472783356,19.601902075188907,19.646562442898283,0.014559697736524567,-1.5,29.375,0.0,0.0,0.0,0.0,0.0,,,,,
pylon_camera_1771859466368860742.png,1771859466368860742,1771859466.3688607,42.30025812733905,-83.69859249426928,236.5244598388672,-0.6999656198388028,-0.7139326486336166,0.018659878943476163,0.0003364171286067241,0.012500000000000002,0.00032,0.008060000000000001,0.42000000000000004,0.2833,-9.8823,8.694531627812383,19.449145579518632,24.389999389648438,24.279998779296875,24.34000015258789,24.35999870300293,19.804904380188905,19.71558287037781,19.764304538702774,19.780543546026422,19.76633383382398,0.016308595820238435,-1.5,29.375,0.0,0.0,0.0,0.0,0.0,,,,,
pylon_camera_1771859466427362702.png,1771859466427362702,1771859466.427363,42.30026284342453,-83.69859268053013,236.52838134765625,-0.6999458674531339,-0.7139164721834843,0.01994057143656238,0.0011945673491855608,0.03908000000000001,-0.00727,0.0007600000000000002,0.5827,0.0533,-9.6387,8.748243307868334,19.569295385102993,24.439998626708984,24.459999084472656,24.60999870300293,24.559999465942383,19.845504221675036,19.861744777783354,19.98354585102642,19.94294600954029,19.908435215006275,0.01733020138075332,-1.5,29.100000381469727,0.0,0.0,0.0,0.0,0.0,,,,,
pylon_camera_1771859466470563377.png,1771859466470563377,1771859466.4705634,42.30026600523636,-83.6985928035472,236.5304412841797,-0.6999573944979659,-0.7138723982413062,0.021022771221258375,0.0019718029829891167,0.031610000000000006,-0.0032200000000000006,0.00464,-0.0008,-1.1463,-8.9003,8.792038633732378,19.667262901341307,24.6299991607666,24.68000030517578,24.579999923706055,24.689998626708984,19.999786407134746,20.04038779740555,19.959186565648615,20.048506526675034,20.011966824215985,0.017526786752373666,-1.5,29.17500114440918,0.0,0.0,0.0,0.0,0.0,,,,,
pylon_camera_1771859466530255189.png,1771859466530255189,1771859466.530255,42.30027076591433,-83.69859299231072,236.53170776367188,-0.7000415143666981,-0.7137768256261436,0.021358506825396605,0.0028871349874151713,0.01668,0.03196,0.00477,0.42600000000000005,-0.8395,-9.409500000000001,8.835178160763352,19.763763434937974,24.84000015258789,24.829999923706055,24.829999923706055,24.81999969482422,20.170309148702774,20.162188870648613,20.162188870648613,20.154068592594456,20.162188870648613,0.02015939105030525,-1.600000023841858,28.92500114440918,0.0,0.0,0.0,0.0,0.0,,,,,
pylon_camera_1771859466580346773.png,1771859466580346773,1771859466.5803468,42.30027555077252,-83.69859318811498,236.5302734375,-0.7000980039700425,-0.7137270291781121,0.021029509188503867,0.003777883142594506,0.011590000000000001,0.03943000000000001,0.00185,0.3191,-0.6211,-9.4639,8.87194154599882,19.8460009219066,25.0,24.93000030517578,24.90999984741211,24.93000030517578,20.3002305,20.24339010240555,20.227149546297223,20.24339010240555,20.253540062777084,0.020535076183566505,-1.8000000715255737,28.774999618530273,0.0,0.0,0.0,0.0,0.0,,,,,
pylon_camera_1771859466621626668.png,1771859466621626668,1771859466.6216266,42.300278752435155,-83.6985933245458,236.52896118164062,-0.7001548898315002,-0.7136832499411795,0.020473843917608377,0.004491181768000738,0.00151,0.04934,0.00079,0.6481,-0.7855000000000001,-10.0954,8.909654651167758,19.930362875383207,25.06999969482422,25.079999923706055,25.0,25.01999855041504,20.357070897594454,20.365191175648615,20.3002305,20.31646950732365,20.33474052014168,0.02028952745551541,-2.1000001430511475,28.899999618530273,0.0,0.0,0.0,0.0,0.0,,,,,
pylon_camera_1771859466669538626.png,1771859466669538626,1771859466.6695385,42.30028197193102,-83.69859346733203,236.52801513671875,-0.7001989322208243,-0.7136555623021938,0.019776531190445035,0.005107105445388271,-0.0032400000000000003,0.027120000000000005,0.00018,0.7216,-0.7336,-10.620000000000001,8.961303860758868,20.045899058285944,25.189998626708984,25.170000076293945,25.119998931884766,25.119998931884766,20.454511136675034,20.43827212935139,20.397670739080585,20.397670739080585,20.422031186046897,0.018763544935914474,-2.299999952316284,28.975000381469727,0.0,0.0,0.0,0.0,0.0,,,,,
pylon_camera_1771859466720128372.png,1771859466720128372,1771859466.7201283,42.30028682535837,-83.69859368464796,236.52879333496094,-0.7002760907062904,-0.7135920073027088,0.019275743586859795,0.005318797606595059,-0.00218,0.022000000000000002,-0.0012300000000000002,0.5464,-0.608,-9.6395,9.007258233339046,20.14869623248545,25.350000381469727,25.219999313354492,25.239999771118164,25.350000381469727,20.584434036756935,20.47887197083752,20.49511252694584,20.584434036756935,20.535713142824306,0.019208037377370153,-2.299999952316284,29.05000114440918,0.0,0.0,0.0,0.0,0.0,,,,,
pylon_camera_1771859466770290082.png,1771859466770290082,1771859466.7702901,42.30029007598051,-83.69859382864144,236.52996826171875,-0.7003629434620653,-0.7135208192671135,0.018652892316900475,0.005644245366128781,-0.00941,0.03327000000000001,0.0024700000000000004,0.4325,-0.4418,-9.4374,9.041521070442556,20.225340143315773,25.439998626708984,25.420000076293945,25.44999885559082,25.459999084472656,20.657513441675032,20.641274434351388,20.665633719729193,20.673753997783358,20.659543898384744,0.021468304216009444,-2.4000000953674316,28.899999618530273,0.0,0.0,0.0,0.0,0.0,,,,,
pylon_camera_1771859466821264364.png,1771859466821264364,1771859466.8212643,42.300294977713925,-83.69859404556904,236.53199768066406,-0.7004416951674196,-0.7134614058216422,0.017819482699193177,0.006059712066660478,0.0010500000000000002,0.0313,0.00427,0.8934000000000001,0.2033,-10.630500000000001,9.089482192205205,20.332626295031513,25.51999855041504,25.549999237060547,25.619998931884766,25.559999465942383,20.72247411732365,20.74683495148613,20.803675349080585,20.754955229540293,20.756984911857664,0.020870821637529787,-2.4000000953674316,28.92500114440918,0.0,0.0,0.0,0.0,0.0,,,,,
pylon_camera_1771859466870846591.png,1771859466870846591,1771859466.8708465,42.30029826033035,-83.69859418795014,236.5344696044922,-0.7005073835505824,-0.713399178891971,0.017633702970957277,0.006330060577187315,0.020530000000000003,0.0017500000000000003,0.00051,1.0243,0.5439,-10.596200000000001,9.145614644653335,20.458191223210832,25.60999870300293,25.549999237060547,25.619998931884766,25.56999969482422,20.795555071026424,20.74683495148613,20.803675349080585,20.763075507594454,20.777285219796898,0.015597370906575444,-2.299999952316284,29.100000381469727,0.0,0.0,0.0,0.0,0.0,,,,,
pylon_camera_1771859466930858614.png,1771859466930858614,1771859466.9308586,42.300303217152795,-83.69859439473431,236.54074096679688,-0.7005746529057328,-0.713327604788197,0.01787540119900238,0.00627327546984924,0.0019500000000000003,-0.009900000000000003,0.00019000000000000004,0.8922,-0.9605,-10.3461,9.200704239262658,20.58142334097621,25.68000030517578,25.709999084472656,25.78999900817871,25.78999900817871,20.852397017405547,20.87675630278336,20.94171697843197,20.94171697843197,20.903146819263213,0.015631740961591905,-2.299999952316284,29.0,0.0,0.0,0.0,0.0,0.0,,,,,
pylon_camera_1771859466971401248.png,1771859466971401248,1771859466.9714012,42.30030653974038,-83.69859453587394,236.54559326171875,-0.700673223484519,-0.7132368729206483,0.01776084867464915,0.005894849662574211,-0.011550000000000003,-0.009300000000000001,0.005710000000000001,0.7639,0.5623,-9.5915,9.233013646722958,20.653697546900453,25.84000015258789,25.719999313354492,25.869998931884766,25.829999923706055,20.982318368702774,20.884876580837517,21.006677654080583,20.974198090648613,20.962017673567374,0.014928083747076607,-2.299999952316284,28.899999618530273,0.0,0.0,0.0,0.0,0.0,,,,,
pylon_camera_1771859467022470691.png,1771859467022470691,1771859467.0224707,42.30031154166046,-83.69859474941077,236.55267333984375,-0.7008318959098566,-0.7130827325025753,0.017743573249107268,0.005730260937373538,-0.029400000000000006,0.017460000000000003,0.010590000000000002,0.6960000000000001,-0.43160000000000004,-8.4733,9.265345113203086,20.726021097528513,25.979999542236328,25.899999618530273,26.03999900817871,25.979999542236328,21.09599916389168,21.031038488243063,21.144719283431968,21.09599916389168,21.091939024864597,0.017655001199420713,-2.299999952316284,24.375,0.0,0.0,0.0,0.0,0.0,,,,,
pylon_camera_1771859467072824993.png,1771859467072824993,1771859467.0728252,42.300314887546755,-83.69859489816709,236.55738830566406,-0.7010107225017744,-0.7129163668083247,0.017481890881360145,0.005348304925004127,-0.040720000000000006,0.0037100000000000006,0.010840000000000002,0.538,-1.2962,-9.9445,9.303957368643378,20.81239439621312,26.09000015258789,26.03999900817871,26.10999870300293,25.969999313354492,21.185320673702773,21.144719283431968,21.201559681026424,21.08787888583752,21.15486963099967,0.016455350031655457,-2.299999952316284,8.52500057220459,0.0,0.0,0.0,0.0,0.0,,,,,
pylon_camera_1771859467123876918.png,1771859467123876918,1771859467.1238768,42.300319928856524,-83.69859512488364,236.56460571289062,-0.7012292354900074,-0.7127147766114349,0.0171183177931625,0.004708470000392286,-0.028800000000000006,-0.01999,0.014530000000000003,-0.0966,-0.8388,-10.1986,9.346963185057165,20.908595827181777,26.170000076293945,26.079999923706055,26.149999618530273,26.209999084472656,21.25028134935139,21.17720039564861,21.234040793243068,21.282760912783356,21.236070862756605,0.015662220374890082,-2.299999952316284,0.0,0.0,0.0,0.0,0.0,0.0,,,,,
pylon_camera_1771859467173631513.png,1771859467173631513,1771859467.1736314,42.30032330210332,-83.6985952746949,236.56951904296875,-0.7014130782944388,-0.712543666863551,0.01683568024944152,0.004216192678570704,-0.009710000000000002,-0.017070000000000002,0.009340000000000003,-0.0032,0.0936,-10.0473,9.384984324458982,20.993646834755275,26.239999771118164,26.15999984741211,26.25,26.279998779296875,21.30712174694584,21.24216107129723,21.315242025000003,21.33960131037781,21.30103153840522,0.014641796447726497,-2.299999952316284,0.0,0.0,0.0,0.0,0.0,0.0,,,,,
pylon_camera_1771859467225121203.png,1771859467225121203,1771859467.2251213,42.30032838081574,-83.69859549775803,236.5763397216797,-0.7015593897758605,-0.7124099856948046,0.016476836686772297,0.0038663616550839107,-0.025300000000000003,-0.007700000000000001,0.010750000000000001,0.22970000000000002,-0.1499,-10.0789,9.409423687718501,21.048316224005024,26.31999969482422,26.34000015258789,26.3799991607666,26.25,21.372082422594453,21.388322978702774,21.420802542134744,21.315242025000003,21.374112492107994,0.015478495506990146,-2.299999952316284,0.0,0.0,0.0,0.0,0.0,0.0,,,,,
pylon_camera_1771859467274858350.png,1771859467274858350,1771859467.2748582,42.300333472871884,-83.69859571682865,236.5830078125,-0.7017053203892767,-0.7122772505271585,0.016082513892977893,0.0034805841084637732,-0.0027600000000000003,-0.0031700000000000005,0.005830000000000001,0.6546000000000001,0.2301,-10.1788,9.432461317969974,21.099850020619755,26.43000030517578,26.299999237060547,26.43000030517578,26.469999313354492,21.46140393240555,21.35584186648613,21.46140393240555,21.49388349583752,21.443133306783686,0.016269465698972214,-2.299999952316284,0.0,0.0,0.0,0.0,0.0,0.0,,,,,
pylon_camera_1771859467335073709.png,1771859467335073709,1771859467.3350737,42.300338574008954,-83.69859590929707,236.58973693847656,-0.7018488942635527,-0.7121235220828366,0.016600867612039966,0.003553886870954551,0.024080000000000004,-0.020520000000000004,0.011970000000000001,-0.1968,1.2504,-10.657,9.443572353611419,21.12470474068753,26.529998779296875,26.3799991607666,26.40999984741211,26.349998474121094,21.542603615377807,21.420802542134744,21.445163376297227,21.396441707972258,21.45125281044551,0.015458112847798872,-2.200000047683716,0.0,0.0,0.0,0.0,0.0,0.0,,,,,
pylon_camera_1771859467376146877.png,1771859467376146877,1771859467.376147,42.30034197654459,-83.69859602532402,236.5943145751953,-0.7018783311195874,-0.7120837846600978,0.01697623898026211,0.00391142416766105,-0.006530000000000001,0.00534,0.009120000000000001,-0.0637,-0.8694000000000001,-9.5784,9.441345126251942,21.11972256671802,26.329999923706055,26.369998931884766,26.420000076293945,26.43000030517578,21.380202700648614,21.412682264080583,21.453283654351388,21.46140393240555,21.42689313787153,0.014544252188121592,-2.1000001430511475,0.0,0.0,0.0,0.0,0.0,0.0,,,,,
pylon_camera_1771859467427205919.png,1771859467427205919,1771859467.4272058,42.3003453753152,-83.69859614890393,236.5985565185547,-0.70192601827363,-0.7120355498553465,0.016940419686482105,0.004273498984179481,-0.008130000000000002,0.012770000000000002,0.00632,-0.157,-1.3043,-9.4534,9.433324327375496,21.101780520879345,26.5,26.439998626708984,26.510000228881836,26.439998626708984,21.51824433,21.469522661675033,21.526364608054163,21.469522661675033,21.495913565351056,0.018677715090522018,-2.1000001430511475,0.0,0.0,0.0,0.0,0.0,0.0,,,,,
pylon_camera_1771859467478241583.png,1771859467478241583,1771859467.4782414,42.30035047971558,-83.69859632584034,236.6052703857422,-0.7020016925084939,-0.7119653488044455,0.01671929164967463,0.004408072561461981,0.019350000000000003,-0.00821,0.0027100000000000006,0.036500000000000005,-0.34790000000000004,-10.3491,9.451181517679434,21.141725984157834,26.510000228881836,26.299999237060547,26.59000015258789,26.459999084472656,21.526364608054163,21.35584186648613,21.591325283702773,21.485763217783358,21.489823744006607,0.016464964124008327,-2.200000047683716,0.0,0.0,0.0,0.0,0.0,0.0,,,,,
pylon_camera_1771859467538888848.png,1771859467538888848,1771859467.538889,42.30035560084226,-83.69859650611954,236.61373901367188,-0.7022062304312857,-0.7117393485491502,0.017821091576029586,0.003989782619917536,0.0031000000000000003,-0.04247000000000001,0.013680000000000001,0.054,0.41100000000000003,-9.844000000000001,9.477461404094665,21.200512513275523,26.420000076293945,26.19999885559082,26.510000228881836,26.459999084472656,21.453283654351388,21.274640634729195,21.526364608054163,21.485763217783358,21.435013028729525,0.011061077665323433,-2.1000001430511475,0.0,0.0,0.0,0.0,0.0,0.0,,,,,
pylon_camera_1771859467587655988.png,1771859467587655988,1771859467.587656,42.30035901802771,-83.69859662368036,236.61965942382812,-0.7023187711098781,-0.7116036398198207,0.018855296243395984,0.0036168142705432665,-0.0009300000000000002,-0.053500000000000006,0.00544,-0.47590000000000005,-1.0486,-7.9775,9.475039901691467,21.19509575768971,26.469999313354492,26.399999618530273,26.44999885559082,26.420000076293945,21.49388349583752,21.437043098243066,21.477642939729197,21.453283654351388,21.465463297040294,0.012756136723397109,-2.1000001430511475,0.0,0.0,0.0,0.0,0.0,0.0,,,,,
pylon_camera_1771859467640027814.png,1771859467640027814,1771859467.640028,42.300364143679474,-83.69859680047027,236.6266326904297,-0.7024253353844608,-0.7114813992227358,0.019577276489997124,0.003097904988823129,-0.008940000000000002,-0.03812000000000001,0.007700000000000001,-0.4973,-1.11,-10.2279,9.471858448385746,21.18797903753201,26.439998626708984,26.420000076293945,26.459999084472656,26.459999084472656,21.469522661675033,21.453283654351388,21.485763217783358,21.485763217783358,21.473583187898285,0.013479537140392723,-2.200000047683716,0.0,0.0,0.0,0.0,0.0,0.0,,,,,
pylon_camera_1771859467687831631.png,1771859467687831631,1771859467.6878316,42.30036756251815,-83.6985969190405,236.63101196289062,-0.7024630225627316,-0.7114472476025853,0.01949019843576178,0.00294074406769014,-0.00423,0.00302,-0.0026800000000000005,0.28750000000000003,-0.7873,-10.3789,9.46711032260377,21.177357765045276,26.469999313354492,26.510000228881836,26.510000228881836,26.43000030517578,21.49388349583752,21.526364608054163,21.526364608054163,21.46140393240555,21.502004161087847,0.015329882020429505,-2.200000047683716,0.0,0.0,0.0,0.0,0.0,0.0,,,,,
pylon_camera_1771859467730050179.png,1771859467730050179,1771859467.7300503,42.30037097527213,-83.69859704708124,236.6356201171875,-0.7026213228637455,-0.7113051634975006,0.019066213649306326,0.002172679468588685,-0.028800000000000006,-0.024590000000000004,0.012220000000000002,0.5376000000000001,0.5046,-10.547,9.474287393693231,21.19341244244814,26.53999900817871,26.389999389648438,26.529998779296875,26.43000030517578,21.550723893431968,21.4289228201889,21.542603615377807,21.46140393240555,21.495913565351053,0.014273356106496403,-2.200000047683716,0.0,0.0,0.0,0.0,0.0,0.0,,,,,
pylon_camera_1771859467779777155.png,1771859467779777155,1771859467.7797773,42.300376102602506,-83.69859723584904,236.6434783935547,-0.702839291521897,-0.7110877677220819,0.0192014148906781,0.0015564559808745931,0.006050000000000001,-0.02101,0.012910000000000001,0.1484,1.2263000000000002,-8.380600000000001,9.478631105664963,21.203129065506182,26.510000228881836,26.469999313354492,26.579999923706055,26.59000015258789,21.526364608054163,21.49388349583752,21.58320500564861,21.591325283702773,21.548694598310767,0.016297855459775523,-2.200000047683716,0.0,0.0,0.0,0.0,0.0,0.0,,,,,
pylon_camera_1771859467830825494.png,1771859467830825494,1771859467.8308256,42.30037951939994,-83.6985973628687,236.6478729248047,-0.7029617179794375,-0.7109604977460271,0.019434169710629442,0.0015187981358914247,0.0011900000000000003,-0.00037000000000000005,0.00808,-0.596,1.9679000000000002,-8.337900000000001,9.471487220715547,21.187148623507436,26.53999900817871,26.469999313354492,26.53999900817871,26.44999885559082,21.550723893431968,21.49388349583752,21.550723893431968,21.477642939729197,21.51824355560766,0.01562715861316375,-2.200000047683716,0.0,0.0,0.0,0.0,0.0,0.0,,,,,
pylon_camera_1771859467880667857.png,1771859467880667857,1771859467.880668,42.300384645204495,-83.69859753585733,236.65057373046875,-0.7029967612136194,-0.7109232382827456,0.01948767115667954,0.001983347076289235,-0.01754,0.026580000000000003,0.008050000000000002,-0.043000000000000003,-0.3381,-9.0554,9.472962176980207,21.190448012174105,26.529998779296875,26.5,26.489999771118164,26.649999618530273,21.542603615377807,21.51824433,21.510124051945837,21.640045403243068,21.55275435014168,0.017097625201667556,-2.200000047683716,0.0,0.0,0.0,0.0,0.0,0.0,,,,,
pylon_camera_1771859467931463641.png,1771859467931463641,1771859467.9314637,42.300388064016765,-83.69859764999396,236.65185546875,-0.7030391716176032,-0.7108897019280113,0.01914672174100168,0.0022711033684572296,-0.030530000000000005,0.06099000000000001,0.011860000000000002,-0.2381,-1.4813,-9.8584,9.473368190870833,21.191356240886602,26.53999900817871,26.59000015258789,26.65999984741211,26.439998626708984,21.550723893431968,21.591325283702773,21.64816568129723,21.469522661675033,21.56493438002675,0.017628798029423198,-2.200000047683716,0.0,0.0,0.0,0.0,0.0,0.0,,,,,
pylon_camera_1771859467981679186.png,1771859467981679186,1771859467.9816792,42.300393190747954,-83.69859782122649,236.65370178222656,-0.7031253208731862,-0.7108118681863559,0.018851486605414906,0.0024274771198285762,-0.00538,0.015420000000000003,0.0038500000000000006,-0.1279,-2.4147000000000003,-12.1698,9.481393017138243,21.209307295757224,26.619998931884766,26.579999923706055,26.649999618530273,26.420000076293945,21.61568456908058,21.58320500564861,21.640045403243068,21.453283654351388,21.573054658080913,0.01715036503792156,-2.200000047683716,0.0,0.0,0.0,0.0,0.0,0.0,,,,,
pylon_camera_1771859468032816473.png,1771859468032816473,1771859468.0328164,42.30039660944573,-83.69859793372638,236.6559600830078,-0.7033124603597548,-0.7106328307287788,0.01864033222797607,0.0022585410206028985,0.0035300000000000006,-0.020900000000000002,0.006550000000000001,-0.794,-1.6826,-10.061,9.48315224517213,21.213242583315346,26.619998931884766,26.649999618530273,26.549999237060547,26.510000228881836,21.61568456908058,21.640045403243068,21.558844171486133,21.526364608054163,21.585234687965986,0.017535843621720528,-2.200000047683716,0.0,0.0,0.0,0.0,0.0,0.0,,,,,
pylon_camera_1771859468082591234.png,1771859468082591234,1771859468.0825913,42.30040173374969,-83.69859811431344,236.66085815429688,-0.7034840760928993,-0.710481493791869,0.017949269880092836,0.0020063334134352902,-0.0064600000000000005,0.008130000000000002,0.005740000000000001,-0.6385000000000001,-0.1443,-9.9671,9.480342719522177,21.20695784300794,26.579999923706055,26.53999900817871,26.619998931884766,26.56999969482422,21.58320500564861,21.550723893431968,21.61568456908058,21.575084727594454,21.581174548938904,0.017645940011822285,-2.200000047683716,0.0,0.0,0.0,0.0,0.0,0.0,,,,,
pylon_camera_1771859468133702773.png,1771859468133702773,1771859468.1337028,42.30040514823319,-83.69859823827794,236.66444396972656,-0.7036316783409464,-0.7103554312015389,0.017159204469595988,0.0017844605765277705,-0.013980000000000001,0.01162,0.0035600000000000002,-0.2457,0.8335,-10.1487,9.477363603095728,21.20029373830896,26.619998931884766,26.579999923706055,26.53999900817871,26.579999923706055,21.61568456908058,21.58320500564861,21.550723893431968,21.58320500564861,21.58320461845244,0.01806158371530297,-2.200000047683716,0.0,0.0,0.0,0.0,0.0,0.0,,,,,
pylon_camera_1771859468183402716.png,1771859468183402716,1771859468.1834028,42.300410270730765,-83.69859841829839,236.67047119140625,-0.7037703037583525,-0.7102363787655336,0.01640707117436234,0.0015664741865868534,-0.024580000000000005,0.012310000000000001,0.0079,-0.0792,0.9615,-9.642100000000001,9.474528381567055,21.193951517862608,26.56999969482422,26.389999389648438,26.60999870300293,26.529998779296875,21.575084727594454,21.4289228201889,21.60756429102642,21.542603615377807,21.5385438635469,0.016258994713367277,-2.200000047683716,0.0,0.0,0.0,0.0,0.0,0.0,,,,,
pylon_camera_1771859468234485028.png,1771859468234485028,1771859468.234485,42.30041539024962,-83.69859859866887,236.67630004882812,-0.7039388600581437,-0.7100866716070438,0.015666520351644377,0.0012490981318594413,-0.04825000000000001,0.009170000000000001,0.015760000000000003,-0.499,0.8127000000000001,-9.4201,9.467515718178136,21.1782646106214,26.5,26.5,26.549999237060547,26.579999923706055,21.51824433,21.51824433,21.558844171486133,21.58320500564861,21.544634459283685,0.01729933284895029,-2.200000047683716,0.0,0.0,0.0,0.0,0.0,0.0,,,,,
pylon_camera_1771859468284608468.png,1771859468284608468,1771859468.2846086,42.300418800609265,-83.69859871249571,236.6802520751953,-0.7040557866634553,-0.7099836724207453,0.015076648991307846,0.0011527431838953713,-0.00642,0.014730000000000002,0.009830000000000002,-0.4193,0.7161000000000001,-9.822700000000001,9.460553770844154,21.162691152152124,26.649999618530273,26.469999313354492,26.579999923706055,26.44999885559082,21.640045403243068,21.49388349583752,21.58320500564861,21.477642939729197,21.548694211114597,0.018239790780258044,-2.1000001430511475,0.0,0.0,0.0,0.0,0.0,0.0,,,,,
pylon_camera_1771859468335441576.png,1771859468335441576,1771859468.3354416,42.30042390957892,-83.69859887441866,236.68605041503906,-0.7041369227581624,-0.7099038042561671,0.01500971698713147,0.001578324191521354,0.005330000000000001,0.017220000000000003,0.0036100000000000004,-0.36920000000000003,-0.7160000000000001,-9.8702,9.45273426986642,21.145199397634993,26.510000228881836,26.510000228881836,26.549999237060547,26.43000030517578,21.526364608054163,21.526364608054163,21.558844171486133,21.46140393240555,21.51824433,0.0176420626426787,-1.899999976158142,0.0,0.0,0.0,0.0,0.0,0.0,,,,,
pylon_camera_1771859468385649395.png,1771859468385649395,1771859468.3856494,42.30042731324959,-83.69859898339756,236.69036865234375,-0.7042233517266568,-0.7098259092364729,0.01464365166171761,0.001487590500892412,-0.023880000000000002,0.0038300000000000005,0.0031700000000000005,-0.4606,-0.0224,-9.8976,9.446575736281318,21.13142312751713,26.459999084472656,26.439998626708984,26.459999084472656,26.439998626708984,21.485763217783358,21.469522661675033,21.485763217783358,21.469522661675033,21.477642939729193,0.01638412188913195,-1.5,0.0,0.0,0.0,0.0,0.0,0.0,,,,,
pylon_camera_1771859468436705236.png,1771859468436705236,1771859468.4367054,42.30043242006495,-83.69859914215726,236.69827270507812,-0.7043170146127302,-0.7097331779743462,0.014681110023812248,0.0009077543251627474,-0.022600000000000006,-0.03676000000000001,0.007890000000000001,-0.4661,0.0955,-10.1235,9.452906242451174,21.14558408998873,26.399999618530273,26.279998779296875,26.510000228881836,26.420000076293945,21.437043098243066,21.33960131037781,21.526364608054163,21.453283654351388,21.439073167756604,0.01387945003168884,-1.5,0.0,0.0,0.0,0.0,0.0,0.0,,,,,
pylon_camera_1771859468486213100.png,1771859468486213100,1771859468.4862132,42.30043582730185,-83.69859925254093,236.7041015625,-0.7043972029698149,-0.7096426444052345,0.015228176345724966,-1.830384733888054e-05,-0.018680000000000006,-0.054770000000000006,0.007230000000000001,-0.4932,-0.2152,-9.8983,9.450086228236131,21.139275887390532,26.279998779296875,26.25,26.420000076293945,26.349998474121094,21.33960131037781,21.315242025000003,21.453283654351388,21.396441707972258,21.376142174425365,0.011205033147617033,-1.5,0.0,0.0,0.0,0.0,0.0,0.0,,,,,
pylon_camera_1771859468537672208.png,1771859468537672208,1771859468.5376723,42.30044092830636,-83.69859941979894,236.7126922607422,-0.7044742185603288,-0.7095580450513072,0.015566802963989892,-0.001063358952432825,-0.029100000000000004,-0.04012000000000001,0.009770000000000003,-0.4369,-0.3095,-9.747,9.434450505029229,21.104299712720085,26.299999237060547,26.279998779296875,26.329999923706055,26.239999771118164,21.35584186648613,21.33960131037781,21.380202700648614,21.30712174694584,21.3456919061146,0.011438057489726653,-1.5,0.0,0.0,0.0,0.0,0.0,0.0,,,,,
pylon_camera_1771859468587450038.png,1771859468587450038,1771859468.58745,42.30044432028113,-83.69859952754427,236.7178497314453,-0.7045820635169712,-0.7094509827062294,0.01548222517643549,-0.0019286292848540974,-0.023440000000000003,-0.031900000000000005,0.00786,-0.559,0.5084000000000001,-9.6274,9.409309271496937,21.04806028178236,26.309999465942383,26.28999900817871,26.28999900817871,26.309999465942383,21.36396214454029,21.34772158843197,21.34772158843197,21.36396214454029,21.35584186648613,0.014622800418818872,-1.600000023841858,0.0,0.0,0.0,0.0,0.0,0.0,,,,,
pylon_camera_1771859468638192778.png,1771859468638192778,1771859468.638193,42.30044939616507,-83.69859969039504,236.72511291503906,-0.7046743889393351,-0.7093637030441093,0.015216936792968788,-0.0023637282336026553,-0.012940000000000002,-0.00204,0.004660000000000001,-0.40080000000000005,0.5084000000000001,-9.793700000000001,9.38760445159864,20.999507901959063,26.25,26.25,26.35999870300293,26.219999313354492,21.315242025000003,21.315242025000003,21.404561986026422,21.290881190837517,21.331481806715985,0.015808651626829373,-1.7000000476837158,0.0,0.0,0.0,0.0,0.0,0.0,,,,,
pylon_camera_1771859468688061329.png,1771859468688061329,1771859468.6880615,42.300452772406196,-83.69859980036347,236.72988891601562,-0.7047635351283097,-0.7092806490754119,0.014896863939555197,-0.002721000804276369,-0.03819000000000001,0.005470000000000001,0.009760000000000001,-0.5868,-0.48410000000000003,-9.260900000000001,9.36562208725215,20.950334671857828,26.260000228881836,26.25,26.279998779296875,26.299999237060547,21.323362303054164,21.315242025000003,21.33960131037781,21.35584186648613,21.33351187622953,0.018289789178710165,-1.899999976158142,0.0,0.0,0.0,0.0,0.0,0.0,,,,,
pylon_camera_1771859468739584187.png,1771859468739584187,1771859468.7395842,42.300457824746296,-83.6985999630113,236.73536682128906,-0.7049210069864945,-0.7091461517093547,0.013742352908902033,-0.0030425583784742536,-0.045970000000000004,0.031760000000000004,0.00935,-0.4288,1.0724,-8.153,9.334680016549065,20.881119116219267,26.219999313354492,26.189998626708984,26.279998779296875,26.25,21.290881190837517,21.266520356675034,21.33960131037781,21.315242025000003,21.30306122072259,0.020206872158283044,-2.1000001430511475,0.0,0.0,0.0,0.0,0.0,0.0,,,,,
pylon_camera_1771859468789200390.png,1771859468789200390,1771859468.7892003,42.30046118505168,-83.69860007352146,236.73719787597656,-0.7049827902699094,-0.7091109138221419,0.012390007832879336,-0.0027322202475670333,-0.03654000000000001,0.06259,0.00578,-0.3502,0.6091,-9.3408,9.314849801423541,20.836760114796377,26.19999885559082,26.19999885559082,26.189998626708984,26.19999885559082,21.274640634729195,21.274640634729195,21.266520356675034,21.274640634729195,21.272610565215654,0.02091738101403662,-2.200000047683716,0.0,0.0,0.0,0.0,0.0,0.0,,,,,
pylon_camera_1771859468840091802.png,1771859468840091802,1771859468.840092,42.300466215603734,-83.69860023038616,236.73870849609375,-0.7050351174308495,-0.7090747752909512,0.011549567940233652,-0.0022480470966794253,-0.01302,0.026430000000000002,0.00585,-0.37360000000000004,0.0015,-10.5694,9.314144270039785,20.8351818834228,26.099998474121094,26.01999855041504,26.119998931884766,26.119998931884766,21.19343940297226,21.12847872732365,21.20967995908058,21.20967995908058,21.18531951211427,0.016805115052537765,-2.200000047683716,0.0,0.0,0.0,0.0,0.0,0.0,,,,,
pylon_camera_1771859468890276036.png,1771859468890276036,1771859468.8902762,42.30046956765686,-83.6986003286065,236.7406463623047,-0.7051156066511183,-0.7090000335471469,0.011267008054582786,-0.0019970519942122573,-0.027450000000000002,0.007030000000000001,0.006670000000000001,-0.6703,-1.1118000000000001,-10.5517,9.303468461055113,20.811300739272625,25.989999771118164,26.01999855041504,26.10999870300293,26.010000228881836,21.104119441945837,21.12847872732365,21.201559681026424,21.120359998054163,21.13862946208752,0.01572841250605724,-2.200000047683716,0.0,0.0,0.0,0.0,0.0,0.0,,,,,
pylon_camera_1771859468941024886.png,1771859468941024886,1771859468.9410248,42.30047458816195,-83.6986004793733,236.74476623535156,-0.7052297051766762,-0.7088921475362553,0.010860846458893441,-0.002242345212198853,-0.028880000000000003,-0.007800000000000001,0.00474,-0.7795000000000001,-1.0998,-10.1812,9.286805687369144,20.774027114303536,26.059999465942383,26.01999855041504,26.01999855041504,26.059999465942383,21.160959839540293,21.12847872732365,21.12847872732365,21.160959839540293,21.14471928343197,0.017844020665266348,-2.200000047683716,0.0,0.0,0.0,0.0,0.0,0.0,,,,,
pylon_camera_1771859468990986705.png,1771859468990986705,1771859468.9909868,42.3004779310721,-83.69860057675294,236.7484893798828,-0.7053512879568393,-0.7087763410593099,0.010424353677990847,-0.00264419791265624,-0.01717,-0.013510000000000003,0.005140000000000001,-0.3985,-0.7405,-10.9061,9.277590864579826,20.7534141086132,25.93000030517578,26.01999855041504,25.979999542236328,25.869998931884766,21.05539932240555,21.12847872732365,21.09599916389168,21.006677654080583,21.071638716925364,0.015333602782016124,-2.200000047683716,0.0,0.0,0.0,0.0,0.0,0.0,,,,,
pylon_camera_1771859469042296116.png,1771859469042296116,1771859469.0422962,42.300482939556595,-83.6986007235558,236.75657653808594,-0.7054668571978234,-0.7086565250842252,0.0105821570355469,-0.0032343165354813464,-0.0021200000000000004,-0.03877,0.00253,-0.5827,-0.3483,-10.610700000000001,9.265765462687934,20.72696139410515,25.869998931884766,25.85999870300293,25.939998626708984,25.85999870300293,21.006677654080583,20.998557376026422,21.063518051675032,20.998557376026422,21.016827614452115,0.013984983849557655,-2.200000047683716,0.0,0.0,0.0,0.0,0.0,0.0,,,,,
pylon_camera_1771859469091855980.png,1771859469091855980,1771859469.0918558,42.30048627568105,-83.6986008189608,236.7633819580078,-0.7055959767204081,-0.7085176097191014,0.010991487667266741,-0.004037518144239705,-0.01042,-0.04073000000000001,0.010520000000000002,-0.2235,-0.12610000000000002,-9.997900000000001,9.255473494419613,20.703938878607012,25.869998931884766,25.809999465942383,25.829999923706055,25.869998931884766,21.006677654080583,20.95795753454029,20.974198090648613,21.006677654080583,20.98637773333752,0.013641793302546232,-2.200000047683716,0.0,0.0,0.0,0.0,0.0,0.0,,,,,
pylon_camera_1771859469143002872.png,1771859469143002872,1771859469.143003,42.300491272805786,-83.69860095820097,236.7742462158203,-0.7057499084145595,-0.7083494893265342,0.01157509382563584,-0.0049076416542604365,-0.0037700000000000003,-0.033240000000000006,0.010890000000000002,-0.561,0.5373,-8.6698,9.233360877278411,20.65447428081917,25.760000228881836,25.649999618530273,25.84000015258789,25.779998779296875,20.917357693054164,20.828036183243064,20.982318368702774,20.93359670037781,20.915327236344453,0.012629367950920223,-2.200000047683716,0.0,0.0,0.0,0.0,0.0,0.0,,,,,
pylon_camera_1771859469192988675.png,1771859469192988675,1771859469.1929886,42.300494595532555,-83.69860104449579,236.7799072265625,-0.7058702638542053,-0.7082190321619763,0.012136313592166003,-0.005067838034192533,-0.00202,-0.0067,0.009170000000000001,-0.9380000000000001,-0.1184,-9.3253,9.202250562328828,20.58488237289585,25.779998779296875,25.689998626708984,25.85999870300293,25.78999900817871,20.93359670037781,20.860515746675034,20.998557376026422,20.94171697843197,20.93359670037781,0.016940311883497088,-2.200000047683716,0.0,0.0,0.0,0.0,0.0,0.0,,,,,
pylon_camera_1771859469243960925.png,1771859469243960925,1771859469.2439609,42.30049956420497,-83.69860116911828,236.7863006591797,-0.7059883790510805,-0.7081003603975022,0.012244110665418424,-0.004936598400538465,0.0013000000000000002,0.008480000000000001,0.004980000000000001,-0.8722000000000001,-0.7173,-9.5081,9.178027110163097,20.53069596380824,25.84000015258789,25.709999084472656,25.760000228881836,25.68000030517578,20.982318368702774,20.87675630278336,20.917357693054164,20.852397017405547,20.907207345486462,0.018338948779035198,-2.200000047683716,0.0,0.0,0.0,0.0,0.0,0.0,,,,,
pylon_camera_1771859469293736034.png,1771859469293736034,1771859469.293736,42.3005028677626,-83.6986012494591,236.78970336914062,-0.7061013912380117,-0.7079954760889142,0.011832872053821563,-0.004818118754675211,-0.00491,0.023930000000000003,0.00429,-0.5247,-0.2441,-9.3099,9.159695965030394,20.48969029201509,25.76999855041504,25.719999313354492,25.719999313354492,25.739999771118164,20.925476422323648,20.884876580837517,20.884876580837517,20.90111713694584,20.89908668023613,0.01998060402018783,-2.200000047683716,0.0,0.0,0.0,0.0,0.0,0.0,,,,,
pylon_camera_1771859469344905375.png,1771859469344905375,1771859469.3449054,42.30050781507182,-83.69860137255094,236.79429626464844,-0.7061962949550057,-0.7079095394417554,0.0113911985095556,-0.004595384173315732,0.0005900000000000001,0.017190000000000004,0.0037400000000000007,-0.7095,0.4308,-9.506400000000001,9.143454040506334,20.45335808137024,25.689998626708984,25.670000076293945,25.6299991607666,25.68000030517578,20.860515746675034,20.84427673935139,20.811795627134742,20.852397017405547,20.84224628264168,0.01901341577868593,-2.200000047683716,0.0,0.0,0.0,0.0,0.0,0.0,,,,,
pylon_camera_1771859469394946013.png,1771859469394946013,1771859469.394946,42.30051275199368,-83.69860148866715,236.7985076904297,-0.7063093352188151,-0.7078031956498116,0.011152353710122777,-0.004169438498680626,0.01624,0.02152,0.01081,-0.606,1.1233,-9.925500000000001,9.128136894678216,20.41909454518149,25.68000030517578,25.510000228881836,25.719999313354492,25.60999870300293,20.852397017405547,20.714355388054162,20.884876580837517,20.795555071026424,20.811796014330913,0.01923207066211915,-2.200000047683716,0.0,0.0,0.0,0.0,0.0,0.0,,,,,
pylon_camera_1771859469446202271.png,1771859469446202271,1771859469.4462023,42.30051603887153,-83.69860156899175,236.80099487304688,-0.7064304083974048,-0.7076853930307143,0.011165979322158175,-0.003575400427439507,-0.0005600000000000002,0.020430000000000004,0.004240000000000001,-0.29960000000000003,0.5907,-9.5694,9.115489355300605,20.39080275844614,25.6299991607666,25.549999237060547,25.529998779296875,25.6299991607666,20.811795627134742,20.74683495148613,20.73059439537781,20.811795627134742,20.775255150283357,0.018854205809919523,-2.1000001430511475,0.0,0.0,0.0,0.0,0.0,0.0,,,,,
pylon_camera_1771859469496097282.png,1771859469496097282,1771859469.4960973,42.300520964405635,-83.69860168142108,236.80508422851562,-0.7065385031983912,-0.7075766286787073,0.011253570894636057,-0.003466293116703488,-0.00708,0.00521,0.006080000000000001,-0.9237000000000001,0.6094,-9.4703,9.10636485007924,20.370391787736256,25.68000030517578,25.459999084472656,25.5,25.479999542236328,20.852397017405547,20.673753997783358,20.706235109999998,20.68999455389168,20.730595169770144,0.017682692890116303,-2.0,0.0,0.0,0.0,0.0,0.0,0.0,,,,,
pylon_camera_1771859469547049519.png,1771859469547049519,1771859469.5470495,42.300524243363654,-83.69860174904507,236.80862426757812,-0.7065672460739378,-0.7075421053277912,0.01168339902583366,-0.0032239961246024592,0.014680000000000002,-0.004220000000000001,0.00229,-0.7287,-0.3195,-10.392800000000001,9.094147983700974,20.34306339066006,25.43000030517578,25.44999885559082,25.479999542236328,25.420000076293945,20.64939471240555,20.665633719729193,20.68999455389168,20.641274434351388,20.66157435509445,0.015656981365973967,-1.899999976158142,0.0,0.0,0.0,0.0,0.0,0.0,,,,,
pylon_camera_1771859469596975471.png,1771859469596975471,1771859469.5969753,42.3005291553046,-83.69860184737603,236.81494140625,-0.7065790770041235,-0.7075221053429004,0.012218795494479276,-0.0030297570553991125,0.012940000000000002,-0.014790000000000001,0.0006900000000000001,-0.766,-0.7829,-10.5535,9.082518920193953,20.317049873338664,25.479999542236328,25.350000381469727,25.3799991607666,25.369998931884766,20.68999455389168,20.584434036756935,20.608793322134744,20.600673044080583,20.620973739215984,0.014959054969695563,-1.7000000476837158,0.0,0.0,0.0,0.0,0.0,0.0,,,,,
pylon_camera_1771859469647953384.png,1771859469647953384,1771859469.6479535,42.300532425914305,-83.69860191695835,236.81996154785156,-0.7066885239935993,-0.7074025994755504,0.012783418623857509,-0.0030783955673747386,0.007840000000000001,-0.025960000000000004,0.008510000000000002,-1.0649,-0.7835000000000001,-10.22,9.06906613936575,20.286956809792823,25.3799991607666,25.309999465942383,25.44999885559082,25.3799991607666,20.608793322134744,20.551952924540288,20.665633719729193,20.608793322134744,20.608793322134744,0.015864208484269348,-1.2000000476837158,0.0,0.0,16.0,0.0,0.0,0.0,,,,,
pylon_camera_1771859469707686224.png,1771859469707686224,1771859469.7076862,42.30053732406625,-83.69860202154929,236.82814025878906,-0.7068525855419855,-0.7072277712805832,0.013277127324895038,-0.003466948529698973,0.0022400000000000007,-0.018740000000000003,0.011230000000000002,-0.8589,0.0945,-9.8969,9.051927109893988,20.24861782920626,25.309999465942383,25.329999923706055,25.329999923706055,25.34000015258789,20.551952924540288,20.568193480648613,20.568193480648613,20.576313758702774,20.566163411135072,0.015682333708268693,-0.5,0.0,0.0,0.0,0.0,0.0,0.0,,,,,
pylon_camera_1771859469751221481.png,1771859469751221481,1771859469.7512214,42.30054058674225,-83.69860208951081,236.8334197998047,-0.7068572290268739,-0.7072092081831927,0.013965348640018624,-0.0036003709133645093,0.005260000000000001,-0.021740000000000002,0.0016400000000000002,-1.211,-0.6171,-10.1059,9.035792782215726,20.212526306249647,25.26999855041504,25.309999465942383,25.309999465942383,25.26999855041504,20.519471812323648,20.551952924540288,20.551952924540288,20.519471812323648,20.535712368431966,0.015989394758753706,0.20000000298023224,0.0,0.0,0.0,0.0,0.0,0.0,,,,,
pylon_camera_1771859469798985781.png,1771859469798985781,1771859469.7989857,42.300545469152844,-83.69860218539992,236.84007263183594,-0.7068173192091523,-0.7072455576910267,0.014198528220829766,-0.0033764165410101205,0.016290000000000002,0.004510000000000001,-0.005980000000000001,-0.5417000000000001,-0.8499,-8.3429,9.018257558362647,20.17330106260374,25.309999465942383,25.26999855041504,25.25,25.309999465942383,20.551952924540288,20.519471812323648,20.503232805,20.551952924540288,20.531652616601054,0.017763654688206038,1.0,0.0,0.0,0.0,0.0,0.0,0.0,,,,,
pylon_camera_1771859469849690396.png,1771859469849690396,1771859469.8496904,42.30054871914185,-83.69860224901427,236.8430633544922,-0.7067464468078036,-0.7073208101512825,0.014075744540712285,-0.0029334053764239,-0.00099,0.017890000000000003,0.0024100000000000002,-0.8123,-0.0145,-9.530100000000001,8.991684933443862,20.113859695017915,25.260000228881836,25.239999771118164,25.229999542236328,25.25,20.511353083054164,20.49511252694584,20.486992248891678,20.503232805,20.49917266597292,0.01915659037088967,1.8000000715255737,0.0,0.0,0.0,0.0,0.0,0.0,,,,,
pylon_camera_1771859469899801225.png,1771859469899801225,1771859469.8998013,42.30055358108609,-83.69860233967933,236.8472900390625,-0.7066241401578134,-0.7074462769158922,0.014020837102043604,-0.0023464763010497235,0.0177,0.01947,-0.0017400000000000002,-0.6713,-0.0692,-9.978,8.9785243573098,20.084420275840586,25.219999313354492,25.15999984741211,25.229999542236328,25.239999771118164,20.47887197083752,20.430151851297225,20.486992248891678,20.49511252694584,20.472782149493064,0.01933647415851161,2.200000047683716,0.0,0.0,32.0,0.0,0.0,0.0,,,,,
pylon_camera_1771859469951026676.png,1771859469951026676,1771859469.9510267,42.30055681758876,-83.6986024002142,236.84979248046875,-0.7064394751354166,-0.7076306135342113,0.014113057686741225,-0.0017333096443658972,0.016370000000000003,0.01353,-0.010940000000000002,-0.3815,-0.45630000000000004,-10.0218,8.972262136315422,20.07041206320942,25.09000015258789,25.309999465942383,25.189998626708984,25.15999984741211,20.373311453702776,20.551952924540288,20.454511136675034,20.430151851297225,20.45248184155383,0.019036469064069274,2.299999952316284,0.0,0.0,0.0,0.0,0.0,0.0,,,,,
pylon_camera_1771859470000791837.png,1771859470000791837,1771859470.0007918,42.30056166770816,-83.69860249364525,236.8536834716797,-0.7062259827432724,-0.7078436861212357,0.014160457717965758,-0.0012879261694847977,0.007030000000000001,0.008480000000000001,-0.015260000000000003,-0.3572,-0.8170000000000001,-9.818,8.961032177650377,20.045291319473236,25.079999923706055,25.189998626708984,25.100000381469727,25.119998931884766,20.365191175648615,20.454511136675034,20.381431731756933,20.397670739080585,20.399701195790293,0.01768045525847564,2.299999952316284,0.0,0.0,0.0,0.0,0.0,0.0,,,,,
pylon_camera_1771859470051993237.png,1771859470051993237,1771859470.0519934,42.30056489594153,-83.69860255646638,236.8562469482422,-0.7060112859353002,-0.7080580777069638,0.014174013239292533,-0.0009592051892710428,0.016290000000000002,0.0028000000000000004,-0.012240000000000003,-0.4451,-0.3794,-9.755600000000001,8.951976265501916,20.025033787351855,25.149999618530273,25.100000381469727,25.079999923706055,25.079999923706055,20.422031573243064,20.381431731756933,20.365191175648615,20.365191175648615,20.383461414074308,0.017898977376449736,2.299999952316284,0.0,0.0,0.0,0.0,0.0,0.0,,,,,
pylon_camera_1771859470101931465.png,1771859470101931465,1771859470.1019316,42.30056974150006,-83.69860265350414,236.8603515625,-0.7058027848338613,-0.7082626094839829,0.014340285418961183,-0.0009279772668467869,0.00837,-0.004620000000000001,-0.010750000000000001,0.0151,-0.09050000000000001,-10.317,8.950073451101625,20.02077730570727,24.989999771118164,24.969999313354492,24.969999313354492,25.01999855041504,20.29211022194584,20.27586966583752,20.27586966583752,20.31646950732365,20.290079765236133,0.013451149044652394,2.5,0.0,0.0,0.0,0.0,0.0,0.0,,,,,
pylon_camera_1771859470152885420.png,1771859470152885420,1771859470.1528854,42.30057297246967,-83.69860272182427,236.8642578125,-0.7056150313924664,-0.7084413543841004,0.014707012040518962,-0.0014066514388593578,0.0005400000000000001,-0.020550000000000002,-0.01068,-0.139,0.1111,-9.8217,8.938903501289031,19.995790798173488,24.93000030517578,24.94999885559082,25.0,25.010000228881836,20.24339010240555,20.259629109729193,20.3002305,20.30835077805416,20.277900122547226,0.014108435481306792,2.9000000953674316,0.0,0.0,16.0,0.0,0.0,0.0,,,,,
pylon_camera_1771859470202765413.png,1771859470202765413,1771859470.2027652,42.300577809635826,-83.69860283499966,236.87081909179688,-0.7054487371265112,-0.7085944358622623,0.015255760807042034,-0.0018073499525560598,0.00109,-0.021670000000000002,-0.009040000000000001,-0.5028,0.0636,-9.575000000000001,8.923429536505104,19.961176467389727,24.8799991607666,25.079999923706055,24.969999313354492,25.0,20.202788712134744,20.365191175648615,20.27586966583752,20.3002305,20.28602001340522,0.016273767558048782,3.5,0.0,0.0,0.0,0.0,0.0,0.0,,,,,
pylon_camera_1771859470253467958.png,1771859470253467958,1771859470.2534678,42.30058102653671,-83.69860291523176,236.8753204345703,-0.7052216928229951,-0.7088112107562853,0.01564689994553648,-0.0020508535229088456,-0.004540000000000001,-0.011380000000000001,-0.014440000000000001,-0.40590000000000004,-0.29760000000000003,-9.6684,8.909515887356271,19.930052469062737,24.850000381469727,24.93000030517578,24.889999389648438,24.93000030517578,20.178429426756935,20.24339010240555,20.210908990188905,20.24339010240555,20.219029655439236,0.014499569774092474,4.400000095367432,0.0,0.0,0.0,0.0,0.0,0.0,,,,,
pylon_camera_1771859470303491619.png,1771859470303491619,1771859470.3034916,42.30058584890101,-83.69860303032144,236.8817138671875,-0.7049225563649206,-0.7091010110267876,0.015975818095802723,-0.0021723086574129457,0.0056300000000000005,-0.007640000000000001,-0.014690000000000002,-0.8601000000000001,0.11370000000000001,-9.652000000000001,8.893278148275995,19.893729621004503,24.869998931884766,24.85999870300293,24.90999984741211,24.920000076293945,20.194668434080583,20.18654815602642,20.227149546297223,20.235269824351388,20.210908990188905,0.01594368553443656,5.099999904632568,0.0,0.0,0.0,0.0,0.0,0.0,,,,,
pylon_camera_1771859470354054633.png,1771859470354054633,1771859470.3540547,42.30059066002166,-83.69860314619366,236.8876190185547,-0.704585958115918,-0.7094319525987633,0.01615903487249062,-0.00195393187432336,0.008510000000000002,0.011280000000000002,-0.01959,-0.6471,-0.07490000000000001,-9.0549,8.873666168616849,19.849858799225775,24.8799991607666,24.920000076293945,24.850000381469727,24.94999885559082,20.202788712134744,20.235269824351388,20.178429426756935,20.259629109729193,20.219029268243066,0.018598140810537674,5.5,0.0,0.0,0.0,0.0,0.0,0.0,,,,,
pylon_camera_1771859470404581197.png,1771859470404581197,1771859470.404581,42.300593859033945,-83.69860322979173,236.89100646972656,-0.7042343807665911,-0.7097829941530998,0.016102383831622987,-0.0016587321350569767,0.004480000000000001,0.01959,-0.019670000000000003,-0.6513,-0.30260000000000004,-8.8984,8.85837517895144,19.81565377280364,24.799999237060547,24.850000381469727,24.8799991607666,24.94999885559082,20.13782803648613,20.178429426756935,20.202788712134744,20.259629109729193,20.19466882127675,0.01912705242121746,5.700000286102295,0.0,0.0,44.0,0.0,0.0,0.0,,,,,
pylon_camera_1771859470455550529.png,1771859470455550529,1771859470.4555504,42.300598652260945,-83.69860335964339,236.89405822753906,-0.7038740845457531,-0.7101470555082419,0.01583568360353288,-0.0012898769943798752,0.0029700000000000004,0.0205,-0.01958,-0.5281,-0.7039000000000001,-9.369,8.85112912241133,19.7994447790868,24.81999969482422,24.8799991607666,24.8799991607666,24.939998626708984,20.154068592594456,20.202788712134744,20.202788712134744,20.251508831675036,20.202788712134748,0.02037147695545376,5.700000286102295,0.0,0.0,0.0,0.0,0.0,0.0,,,,,
pylon_camera_1771859470505777415.png,1771859470505777415,1771859470.5057774,42.30060184803682,-83.69860344889129,236.8953857421875,-0.7035134953498983,-0.7105057411690018,0.015799060088307726,-0.0008621640113162749,0.00553,0.012770000000000002,-0.023160000000000004,-0.32080000000000003,-1.0173,-9.4326,8.84598563122612,19.787939097914958,24.78999900817871,24.84000015258789,24.729999542236328,24.84000015258789,20.12970775843197,20.170309148702774,20.08098763889168,20.170309148702774,20.1378284236823,0.01768194878890701,5.700000286102295,0.0,0.0,0.0,0.0,0.0,0.0,,,,,
pylon_camera_1771859470556561585.png,1771859470556561585,1771859470.5565617,42.3006066323964,-83.69860359343168,236.89671325683594,-0.7031125209395254,-0.7109086779813913,0.015533263538470586,-0.000593458221305147,-0.00267,0.011720000000000001,-0.025440000000000004,0.006200000000000001,-1.2984,-10.0106,8.83794585499205,19.76995460086592,24.6299991607666,24.779998779296875,24.779998779296875,24.829999923706055,19.999786407134746,20.12158748037781,20.12158748037781,20.162188870648613,20.10128755963474,0.016759419303588586,5.700000286102295,0.0,0.0,0.0,0.0,0.0,0.0,,,,,
pylon_camera_1771859470607256126.png,1771859470607256126,1771859470.6072562,42.300609818461865,-83.69860370019134,236.89791870117188,-0.702725623821023,-0.7113007435993295,0.015086168986374089,-0.0005977338117035254,-0.015070000000000002,0.0025900000000000003,-0.022300000000000004,0.1578,-1.2555,-10.2796,8.835489562293079,19.76446002147588,24.579999923706055,24.850000381469727,24.68000030517578,24.78999900817871,19.959186565648615,20.178429426756935,20.04038779740555,20.12970775843197,20.07692788706077,0.015809582717937358,5.700000286102295,0.0,0.0,0.0,0.0,0.0,0.0,,,,,
pylon_camera_1771859470666218711.png,1771859470666218711,1771859470.6662188,42.30061459538619,-83.69860386737402,236.90089416503906,-0.7022660863446284,-0.7117576028208693,0.014923949705662309,-0.0008570426312702609,-0.022160000000000003,-0.02096,-0.0164,-0.4677,-1.2317,-11.199900000000001,8.828645334571426,19.749149894716208,24.60999870300293,24.760000228881836,24.670000076293945,24.76999855041504,19.98354585102642,20.10534847305416,20.03226751935139,20.113467202323648,20.058657261438906,0.015671933646394857,5.700000286102295,0.0,0.0,0.0,0.0,0.0,0.0,,,,,
pylon_camera_1771859470708295978.png,1771859470708295978,1771859470.7082958,42.30061777609876,-83.69860397733464,236.9039764404297,-0.7019211763950854,-0.7120946466246295,0.015070548053648453,-0.0008688832175295615,0.015200000000000002,-0.008650000000000001,-0.031670000000000004,0.5117,-1.3095,-9.7452,8.825025621497474,19.74105281375256,24.579999923706055,24.78999900817871,24.65999984741211,24.76999855041504,19.959186565648615,20.12970775843197,20.024147241297225,20.113467202323648,20.056627191925365,0.015985691399040314,5.5,0.0,0.0,0.0,0.0,0.0,0.0,,,,,
pylon_camera_1771859470759192735.png,1771859470759192735,1771859470.759193,42.300622548812946,-83.69860414860537,236.91000366210938,-0.7014746721423668,-0.7125302383448539,0.015255584543500737,-0.001100421383354856,0.00019000000000000004,-0.013540000000000002,-0.021830000000000006,-0.1526,-0.3573,-10.0066,8.818445690866518,19.72633390372695,24.670000076293945,24.739999771118164,24.6299991607666,24.739999771118164,20.03226751935139,20.08910791694584,19.999786407134746,20.08910791694584,20.052567440094453,0.016537970915410052,4.900000095367432,0.0,0.0,0.0,0.0,0.0,0.0,,,,,
pylon_camera_1771859470820403821.png,1771859470820403821,1771859470.8204038,42.300627316984304,-83.6986043252091,236.91641235351562,-0.7010023384556798,-0.7129900701313251,0.015490074022227525,-0.0009690101044368937,0.007700000000000001,-0.0020000000000000005,-0.021140000000000003,-0.10700000000000001,-0.5206000000000001,-9.555,8.811369690805824,19.71050531615118,24.6299991607666,24.729999542236328,24.729999542236328,24.739999771118164,19.999786407134746,20.08098763889168,20.08098763889168,20.08910791694584,20.062717400465985,0.01786925696045926,4.0,0.0,0.0,0.0,0.0,0.0,0.0,,,,,
pylon_camera_1771859470861177091.png,1771859470861177091,1771859470.8611772,42.30063049429707,-83.69860444702296,236.92007446289062,-0.7007262072064571,-0.7132602902412494,0.01555355074187444,-0.0007924382261082111,0.0061400000000000005,0.011220000000000003,-0.014280000000000003,-0.39440000000000003,-0.1602,-9.7235,8.803481775963947,19.692860523924793,24.729999542236328,24.68000030517578,24.649999618530273,24.729999542236328,20.08098763889168,20.04038779740555,20.016026963243064,20.08098763889168,20.054597509607994,0.018368940624127625,3.299999952316284,0.0,0.0,0.0,0.0,0.0,0.0,,,,,
pylon_camera_1771859470909452375.png,1771859470909452375,1771859470.9094522,42.30063366745368,-83.69860457830768,236.9237060546875,-0.7004856124039253,-0.7134951397941869,0.01562794584944472,-0.0005996779957309242,0.00846,0.003980000000000001,-0.009150000000000002,-0.5803,0.2409,-9.4313,8.798692522186286,19.68214725057939,24.65999984741211,24.6299991607666,24.75,24.670000076293945,20.024147241297225,19.999786407134746,20.097228195,20.03226751935139,20.03835734069584,0.0180981315494407,2.299999952316284,0.0,0.0,0.0,0.0,0.0,0.0,,,,,
pylon_camera_1771859470960140494.png,1771859470960140494,1771859470.9601405,42.30063842500266,-83.69860478080444,236.92750549316406,-0.7003369044243737,-0.7136454873056938,0.015433902182940995,-0.0003652573230055879,-0.00491,0.006260000000000001,-0.010670000000000002,-0.3309,-0.4298,-9.51,8.798521775522033,19.68176530053626,24.670000076293945,24.850000381469727,24.779998779296875,24.68000030517578,20.03226751935139,20.178429426756935,20.12158748037781,20.04038779740555,20.093168055972924,0.0209027365764521,1.2000000476837158,0.0,0.0,0.0,0.0,0.0,0.0,,,,,
pylon_camera_1771859471010206521.png,1771859471010206521,1771859471.0102065,42.30064159370166,-83.69860492432741,236.9295196533203,-0.7002815131462704,-0.7137106847003309,0.014926185469323627,-0.00026434350771370333,-0.004410000000000001,0.028390000000000006,-0.005690000000000001,0.5654,-0.5523,-9.7631,8.805030237088614,19.696324338553005,24.729999542236328,24.649999618530273,24.6299991607666,24.649999618530273,20.08098763889168,20.016026963243064,19.999786407134746,20.016026963243064,20.02820699312814,0.01684997915705106,-0.20000000298023224,0.0,0.0,0.0,0.0,0.0,0.0,,,,,
pylon_camera_1771859471070162962.png,1771859471070162962,1771859471.070163,42.300646351133686,-83.69860514511241,236.93247985839844,-0.7002365957114414,-0.7137633214048312,0.014495505602730089,-0.0007150950397739604,0.00116,0.00013000000000000002,-0.006450000000000001,-0.4229,0.1197,-9.7821,8.804546380387274,19.69524198014351,24.619998931884766,24.670000076293945,24.65999984741211,24.6299991607666,19.99166612908058,20.03226751935139,20.024147241297225,19.999786407134746,20.011966824215985,0.01608128726683291,-2.1000001430511475,0.0,0.0,0.0,0.0,0.0,0.0,,,,,
pylon_camera_1771859471120493642.png,1771859471120493642,1771859471.1204937,42.30065111251966,-83.69860536958693,236.93637084960938,-0.700284254929764,-0.7137218785422084,0.014204534465529054,-0.0011285336788093496,-0.007140000000000001,0.0039000000000000007,0.0010500000000000002,0.3276,-0.1754,-9.5802,8.806811672106965,19.700309301802957,24.69999885559082,24.739999771118164,24.670000076293945,24.619998931884766,20.056626804729195,20.08910791694584,20.03226751935139,19.99166612908058,20.04241709252675,0.017365605051311805,-3.9000000953674316,0.0,0.0,0.0,0.0,0.0,0.0,,,,,
pylon_camera_1771859471171209745.png,1771859471171209745,1771859471.1712098,42.30065428676393,-83.69860551506244,236.93923950195312,-0.7004349527127975,-0.7135782099637732,0.013960204043956037,-0.001458761861844206,-0.0037200000000000006,0.010890000000000002,0.00982,0.2464,0.7531,-9.8666,8.800486706079859,19.68616073229828,24.689998626708984,24.6299991607666,24.670000076293945,24.68000030517578,20.048506526675034,19.999786407134746,20.03226751935139,20.04038779740555,20.03023706264168,0.017478081938998385,-6.200000286102295,0.0,0.0,0.0,0.0,0.0,0.0,,,,,
pylon_camera_1771859471221241864.png,1771859471221241864,1771859471.221242,42.3006590472721,-83.69860573106271,236.94454956054688,-0.7006533767043556,-0.713362693162584,0.013999738323815222,-0.0015877794160972136,0.0064600000000000005,0.0034200000000000003,0.012830000000000001,0.2773,0.4066,-10.1643,8.800966173290309,19.687233271680025,24.729999542236328,24.619998931884766,24.670000076293945,24.6299991607666,20.08098763889168,19.99166612908058,20.03226751935139,19.999786407134746,20.0261769236146,0.017216418744940808,-9.0,0.0,0.0,0.0,0.0,0.0,0.0,,,,,
pylon_camera_1771859471271986905.png,1771859471271986905,1771859471.271987,42.30066221951791,-83.69860586777591,236.94866943359375,-0.7010043027131972,-0.7130101502046093,0.014385320973439596,-0.001598694240839749,0.0032800000000000004,-0.0006100000000000001,0.023250000000000003,-0.7614000000000001,-0.0352,-10.1758,8.798781222410247,19.682345667658378,24.69999885559082,24.579999923706055,24.739999771118164,24.559999465942383,20.056626804729195,19.959186565648615,20.08910791694584,19.94294600954029,20.011966824215985,0.016747046420347852,-12.5,0.0,0.0,0.0,0.0,0.0,0.0,,,,,
pylon_camera_1771859471322523096.png,1771859471322523096,1771859471.322523,42.300666981361424,-83.69860606159787,236.95448303222656,-0.701549597956216,-0.7124698835583518,0.014534772320501092,-0.0018886565096370655,-0.0164,-0.008820000000000001,0.038630000000000005,-0.153,-0.8323,-9.5027,8.804825576490947,19.695866525075658,24.69999885559082,24.579999923706055,24.829999923706055,24.53999900817871,20.056626804729195,19.959186565648615,20.162188870648613,19.92670545343197,20.0261769236146,0.016770544119925308,-16.80000114440918,0.0,0.0,0.0,0.0,0.0,0.0,,,,,
pylon_camera_1771859471373066839.png,1771859471373066839,1771859471.3730667,42.30067015597748,-83.69860618960051,236.9583282470703,-0.7023363922811686,-0.7116976388028684,0.014279303478375582,-0.002482839516943272,-0.014660000000000003,-0.00316,0.05091000000000001,-0.6235,0.37720000000000004,-9.6661,8.803504158742392,19.692910592857206,24.81999969482422,24.5,24.81999969482422,24.579999923706055,20.154068592594456,19.89422589,20.154068592594456,19.959186565648615,20.040387410209384,0.017644766918213213,-21.399999618530273,0.0,0.0,0.0,0.0,0.0,0.0,,,,,
pylon_camera_1771859471423753733.png,1771859471423753733,1771859471.4237537,42.300674918102956,-83.69860638097981,236.96229553222656,-0.7034385188832801,-0.7106151980514029,0.01383832133045486,-0.002965014741540178,-0.022860000000000005,0.0035600000000000002,0.07018,-0.0409,0.1296,-9.311,8.80193802739742,19.689407251006383,24.850000381469727,24.510000228881836,24.81999969482422,24.469999313354492,20.178429426756935,19.902346168054162,20.154068592594456,19.869865055837515,20.026177310810766,0.01710412383222811,-26.100000381469727,0.0,0.0,0.0,0.0,0.0,0.0,,,,,
pylon_camera_1771859471474534721.png,1771859471474534721,1771859471.4745347,42.30067967709096,-83.6986065596011,236.9649200439453,-0.7048491942859232,-0.7092242476655605,0.013325473444448607,-0.003318372370026538,-0.02086,-0.0018200000000000002,0.08828000000000001,-0.3418,0.5189,-10.0317,8.802280214609043,19.690172703267553,24.829999923706055,24.59000015258789,24.81999969482422,24.469999313354492,20.162188870648613,19.967306843702776,20.154068592594456,19.869865055837515,20.03835734069584,0.017683168282749764,-30.700000762939453,0.0,0.0,0.0,0.0,0.0,0.0,,,,,
pylon_camera_1771859471515732726.png,1771859471515732726,1771859471.5157328,42.300682851029485,-83.69860666268953,236.9663848876953,-0.706197864779662,-0.7078880755693522,0.012927877700107235,-0.0034522783109967826,-0.02237,0.011720000000000001,0.09913000000000001,0.017400000000000002,0.06570000000000001,-9.940900000000001,8.801692537601987,19.68885810506339,24.850000381469727,24.479999542236328,24.850000381469727,24.439998626708984,20.178429426756935,19.87798533389168,20.178429426756935,19.845504221675036,20.020087102270146,0.016823169502225992,-34.60000228881836,0.0,0.0,0.0,0.0,0.0,0.0,,,,,
pylon_camera_1771859471575324175.png,1771859471575324175,1771859471.575324,42.300687607735114,-83.69860678884922,236.96922302246094,0.7085268689159819,0.7055643140055923,-0.012451232779475106,0.0036934574864607135,-0.013890000000000003,0.004090000000000001,0.11838000000000001,-0.0049,0.6970000000000001,-9.8492,8.804195238245013,19.694456496239802,24.959999084472656,24.329999923706055,24.939998626708984,24.44999885559082,20.267749387783354,19.756184260648617,20.251508831675036,19.853624499729197,20.03226674495905,0.017152555023985768,-41.20000076293945,0.0,0.0,0.0,0.0,0.0,0.0,,,,,
pylon_camera_1771859471625604061.png,1771859471625604061,1771859471.6256042,42.300690780779945,-83.69860684842612,236.97166442871094,0.7107271266451217,0.7033495805553578,-0.012240687072563147,0.0040601186390481344,-0.016110000000000003,-0.010190000000000001,0.13157000000000002,0.0111,0.6265000000000001,-9.8637,8.808383736351429,19.703825915193967,25.0,24.309999465942383,24.93000030517578,24.350000381469727,20.3002305,19.73994370454029,20.24339010240555,19.772424816756935,20.013997280925693,0.015741682202568975,-47.0,0.0,0.0,0.0,0.0,0.0,0.0,,,,,
pylon_camera_1771859471676442764.png,1771859471676442764,1771859471.6764429,42.30069553988899,-83.6986069005242,236.9753875732422,0.7133130910976828,0.7007271781236476,-0.012035067047341731,0.0045840013857749,-0.014260000000000002,-0.005030000000000001,0.16129000000000002,-0.525,1.7396,-9.4567,8.801286518015653,19.687949863609937,25.03999900817871,24.260000228881836,25.0,24.31999969482422,20.332710063431968,19.69934386305416,20.3002305,19.748063982594452,20.020087102270146,0.016870077431175932,-53.10000228881836,0.0,0.0,0.0,0.0,0.0,0.0,,,,,
pylon_camera_1771859471728778530.png,1771859471728778530,1771859471.7287786,42.30069871139883,-83.69860691051244,236.97779846191406,0.7162076096758,0.6977703579686771,-0.011857737644064371,0.004751993340192339,-0.0013300000000000002,0.011790000000000002,0.17118000000000003,-0.29700000000000004,1.1429,-9.549900000000001,8.797358220150848,19.67916249698424,25.10999870300293,24.399999618530273,25.029998779296875,24.260000228881836,20.38955046102642,19.813024658243066,20.32458978537781,19.69934386305416,20.056627191925365,0.019180932877553604,-59.5,0.0,0.0,0.0,0.0,0.0,0.0,,,,,
pylon_camera_1771859471770462777.png,1771859471770462777,1771859471.7704628,42.30070188222559,-83.69860688513876,236.9796905517578,0.7194821342569538,0.6943919260693849,-0.01191929859820814,0.004820976626689925,-0.00117,-0.00144,0.19724000000000003,-0.3551,1.3507,-10.068800000000001,8.800820637835365,19.686907717599443,25.119998931884766,24.229999542236328,25.03999900817871,24.219999313354492,20.397670739080585,19.67498302889168,20.332710063431968,19.666862750837517,20.01805664556044,0.016820769046677637,-62.79999923706055,0.0,0.0,0.0,0.0,0.0,0.0,,,,,
pylon_camera_1771859471829222870.png,1771859471829222870,1771859471.829223,42.3007066420585,-83.69860679638128,236.98355102539062,0.723751643846179,0.6899362426590694,-0.01207002907628276,0.0050846330779055786,-0.0035500000000000006,-0.01233,0.21345000000000003,0.0989,1.5756000000000001,-10.5389,8.808474883083896,19.704029804965693,25.119998931884766,24.10999870300293,25.1299991607666,24.10999870300293,20.397670739080585,19.57754124102642,20.405791017134746,19.57754124102642,19.989636059567044,0.014494814382049623,-68.0999984741211,0.0,0.0,0.0,0.0,0.0,0.0,,,,,
pylon_camera_1771859471871374838.png,1771859471871374838,1771859471.8713748,42.30070981792835,-83.69860669139548,236.98666381835938,0.7267747919925455,0.6867415219868802,-0.012386267617049775,0.005573515753519114,-0.00218,-0.033080000000000005,0.22483000000000003,-0.3411,1.9225,-9.199300000000001,8.8111369141894,19.709984608826836,25.189998626708984,24.100000381469727,25.1299991607666,24.1299991607666,20.454511136675034,19.569422511756937,20.405791017134746,19.593781797134746,20.005876615675366,0.015012290101739505,-71.70000457763672,0.0,0.0,0.0,0.0,0.0,0.0,,,,,
pylon_camera_1771859471919392621.png,1771859471919392621,1771859471.9193926,42.300714579917894,-83.69860647194677,236.99081420898438,0.7307346648845277,0.6825167613475273,-0.012629014704556159,0.00618287986068388,-0.005650000000000001,-0.026050000000000004,0.23811000000000002,-0.2383,2.3163,-9.172,8.810385831175134,19.708304481188907,25.229999542236328,24.029998779296875,25.19999885559082,24.10999870300293,20.486992248891678,19.51258056537781,20.462631414729195,19.57754124102642,20.009936367506274,0.015304811563331935,-76.70000457763672,0.0,0.0,0.0,0.0,0.0,0.0,,,,,
pylon_camera_1771859471979217573.png,1771859471979217573,1771859471.9792178,42.3007193370531,-83.69860616434248,236.99374389648438,0.7357796206532751,0.677065214944764,-0.012923043792081274,0.006636225001553475,0.009250000000000001,-0.01806,0.25443000000000005,0.0183,2.4141,-9.8778,8.807203807504075,19.701186485158168,25.299999237060547,24.059999465942383,25.15999984741211,24.100000381469727,20.54383264648613,19.53694139954029,20.430151851297225,19.569422511756937,20.020087102270146,0.01618687368662905,-82.4000015258789,0.0,0.0,0.0,0.0,0.0,0.0,,,,,
pylon_camera_1771859472028998823.png,1771859472028998823,1771859472.0289989,42.300722506351875,-83.69860591352968,236.9955291748047,0.7402179040556386,0.6722005391755799,-0.013320685511167895,0.006815349224348054,0.008140000000000001,-0.01631,0.27140000000000003,-0.1529,2.9327,-10.0477,8.805218602210356,19.696745700028437,25.229999542236328,24.059999465942383,25.18000030517578,24.0,20.486992248891678,19.53694139954029,20.44639240740555,19.48822128,19.98963683395938,0.01487002667301131,-86.5999984741211,0.0,0.0,0.0,0.0,0.0,0.0,,,,,
pylon_camera_1771859472080265134.png,1771859472080265134,1771859472.0802653,42.30072725601524,-83.69860544680161,236.99838256835938,0.744852512475769,0.667050782525748,-0.013813179493162322,0.006869080186697276,0.011780000000000002,-0.013930000000000001,0.28679000000000004,-0.4747,2.9595000000000002,-9.8932,8.799519607765662,19.68399739139532,25.34000015258789,24.029998779296875,25.26999855041504,23.989999771118164,20.576313758702774,19.51258056537781,20.519471812323648,19.48010100194584,20.022116784587517,0.01717737441582895,-90.5,0.0,0.0,0.0,0.0,0.0,0.0,,,,,
pylon_camera_1771859472120981452.png,1771859472120981452,1771859472.1209815,42.300730418432956,-83.69860508082552,236.99990844726562,0.7487113564572919,0.6627099891625359,-0.01413827844360208,0.006847193492561646,-6e-05,-0.005880000000000001,0.29628000000000004,-0.5051,1.599,-9.587100000000001,8.798475099467613,19.681660889003084,25.369998931884766,24.03999900817871,25.299999237060547,24.010000228881836,20.600673044080583,19.52070084343197,20.54383264648613,19.496341558054162,20.04038702301321,0.018226415749829365,-93.80000305175781,0.0,0.0,0.0,0.0,0.0,0.0,,,,,
pylon_camera_1771859472172006660.png,1771859472172006660,1771859472.1720066,42.30073357549978,-83.69860465973387,237.00112915039062,0.7537652739663893,0.6569526286156273,-0.014291124594209368,0.0068497646108841145,0.017140000000000002,-0.0012300000000000002,0.3115900000000001,-0.42200000000000004,2.1644,-9.4427,8.796962824215585,19.678278020000814,25.44999885559082,23.939998626708984,25.3799991607666,23.939998626708984,20.665633719729193,19.439499611675036,20.608793322134744,19.439499611675036,20.038356566303502,0.01829827518122814,-98.9000015258789,0.0,0.0,0.0,0.0,0.0,0.0,,,,,
pylon_camera_1771859472222114724.png,1771859472222114724,1771859472.2221148,42.30073830418266,-83.69860395058903,237.00209045410156,0.7589914081143065,0.650904988653822,-0.01438533719803483,0.006913770890698429,0.004480000000000001,-0.005930000000000001,0.32350000000000007,0.0591,2.1802,-9.4966,8.800990356151026,19.687287367288477,25.389999389648438,23.979999542236328,25.389999389648438,23.94999885559082,20.616913600188905,19.47198072389168,20.616913600188905,19.447619889729197,20.038356953499672,0.017832298562092282,-105.5999984741211,0.0,0.0,0.0,0.0,0.0,0.0,,,,,
pylon_camera_1771859472272974204.png,1771859472272974204,1771859472.272974,42.300741451787125,-83.6986034206211,237.0022430419922,0.7643900852694396,0.6445533600824785,-0.014466813274285454,0.0070338369225075425,0.009850000000000003,-0.00916,0.33496000000000004,0.012400000000000001,2.2663,-9.608,8.801746800953095,19.68897948892402,25.489999771118164,23.8799991607666,25.3799991607666,23.869998931884766,20.69811483194584,19.390779492134744,20.608793322134744,19.382659214080583,20.02008671507398,0.016816881054511932,-114.0,0.0,0.0,0.0,0.0,0.0,0.0,,,,,
pylon_camera_1771859472322827379.png,1771859472322827379,1771859472.3228273,42.30074616302157,-83.69860251573621,237.0017852783203,0.7699779167234445,0.6378630413938506,-0.014668648626533144,0.007041230679544438,0.023970000000000005,-0.01017,0.3528900000000001,0.010100000000000001,2.5987,-9.7041,8.801956853878904,19.689449364715877,25.53999900817871,23.81999969482422,25.43000030517578,23.850000381469727,20.738714673431968,19.342059372594452,20.64939471240555,19.366420206756935,20.02414724129723,0.01699884391795847,-123.4000015258789,0.0,0.0,0.0,0.0,0.0,0.0,,,,,
pylon_camera_1771859472373620771.png,1771859472373620771,1771859472.3736207,42.3007492948137,-83.69860184191687,237.00125122070312,0.7757833124246647,0.6307862394265545,-0.014838035584760538,0.006986058510048702,0.01565,0.0007700000000000001,0.37385,-0.116,2.551,-9.654200000000001,8.790908051784065,19.66473385735785,25.549999237060547,23.84000015258789,25.399999618530273,23.809999465942383,20.74683495148613,19.358299928702774,20.625033878243066,19.33393909454029,20.016026963243064,0.01786411697373539,-132.8000030517578,0.0,0.0,0.0,0.0,0.0,0.0,,,,,
pylon_camera_1771859472423400655.png,1771859472423400655,1771859472.4234006,42.30075397477772,-83.69860073282732,237.00048828125,0.7818003252249764,0.6233155534496,-0.014791924625635446,0.006868134521784387,0.01175,0.0076700000000000015,0.3915600000000001,-0.31,2.4103000000000003,-10.039,8.779045112449516,19.638197173842823,25.549999237060547,23.84000015258789,25.489999771118164,23.78999900817871,20.74683495148613,19.358299928702774,20.69811483194584,19.31769853843197,20.030237062641678,0.019963130287796203,-142.40000915527344,0.0,0.0,0.0,0.0,0.0,0.0,,,,,
pylon_camera_1771859472474191316.png,1771859472474191316,1771859472.4741914,42.30075863133987,-83.69859948507572,237.00047302246094,0.7879769042169783,0.6154926054749252,-0.01464974142545454,0.006829063075018373,0.021390000000000003,0.004260000000000001,0.39752000000000004,0.0511,3.7551,-10.1861,8.778559283846304,19.637110404407153,25.529998779296875,23.78999900817871,25.51999855041504,23.76999855041504,20.73059439537781,19.31769853843197,20.72247411732365,19.301457982323647,20.01805625836427,0.019399282588522786,-152.40000915527344,0.0,0.0,0.0,0.0,0.0,0.0,,,,,
pylon_camera_1771859472533562918.png,1771859472533562918,1771859472.533563,42.300761718303306,-83.69859856693894,237.00071716308594,0.7954590763334995,0.605796753607645,-0.01459172559421755,0.0064986722703154485,0.022660000000000003,0.01302,0.41499,-0.18180000000000002,4.1896,-9.7657,8.763588730093133,19.603622173894536,25.599998474121094,23.69999885559082,25.549999237060547,23.719999313354492,20.78743479297226,19.244617584729195,20.74683495148613,19.260858140837517,20.009936367506274,0.020726485646760363,-166.0,0.0,0.0,0.0,0.0,0.0,0.0,,,,,
pylon_camera_1771859472584989121.png,1771859472584989121,1771859472.584989,42.300766326507514,-83.69859707343494,237.0018310546875,0.8016332527101971,0.5976064420269069,-0.014656469630612328,0.0059880293233699885,0.036140000000000005,0.0030100000000000005,0.4110600000000001,0.0603,4.1955,-10.314300000000001,8.766939042152265,19.61111662095209,25.459999084472656,23.649999618530273,25.5,23.709999084472656,20.673753997783358,19.204017743243067,20.706235109999998,19.252737862783356,19.95918617845244,0.01774858434774093,-178.6999969482422,0.0,0.0,0.0,0.0,0.0,0.0,,,,,
pylon_camera_1771859472626076932.png,1771859472626076932,1771859472.626077,42.30076938497249,-83.69859599844628,237.00242614746094,0.8064283712244551,0.5911088909449173,-0.015313080510413263,0.005391724717026025,0.05706000000000001,-0.004020000000000001,0.40732,-0.3548,3.8581000000000003,-9.3283,8.765099563947146,19.60700181857593,25.44999885559082,23.60999870300293,25.510000228881836,23.670000076293945,20.665633719729193,19.17153663102642,20.714355388054162,19.220258299351386,19.94294600954029,0.017133888907282124,-189.3000030517578,0.0,0.0,0.0,0.0,0.0,0.0,,,,,
pylon_camera_1771859472677401176.png,1771859472677401176,1771859472.677401,42.3007739365967,-83.6985942523308,237.0026397705078,0.8124655321345198,0.5827789073042874,-0.015699165741655977,0.004694729982482847,0.0073100000000000005,0.020970000000000003,0.41630000000000006,-0.35200000000000004,3.5571,-9.0884,8.7427975950994,19.557113652381656,25.31999969482422,23.51999855041504,25.5,23.649999618530273,20.560073202594452,19.098455677323646,20.706235109999998,19.204017743243067,19.89219543329029,0.017133498678002942,-202.40000915527344,0.0,0.0,0.0,0.0,0.0,0.0,,,,,
pylon_camera_1771859472727137499.png,1771859472727137499,1771859472.7271376,42.30077694762853,-83.69859301944855,237.00241088867188,0.8185022343328403,0.5742827491594905,-0.015297461031955157,0.0044050080524054265,-0.042010000000000006,0.030290000000000004,0.4299800000000001,-1.2627000000000002,2.7198,-9.7818,8.716306966509652,19.497855705664104,25.260000228881836,23.479999542236328,25.459999084472656,23.579999923706055,20.511353083054164,19.065976113891676,20.673753997783358,19.14717734564861,19.84956513509445,0.018038364563759474,-215.10000610351562,0.0,0.0,0.0,0.0,1.0,0.0,,,,,
pylon_camera_1771859472787016538.png,1771859472787016538,1771859472.7870164,42.30078143154275,-83.69859106138699,237.00193786621094,0.8257785721747817,0.5638076326768644,-0.013650170151623356,0.004937198306790535,-0.060480000000000006,0.040420000000000005,0.43065000000000003,0.3734,3.1422000000000003,-10.7824,8.707049811656459,19.4771480056868,25.26999855041504,23.6299991607666,25.43000030517578,23.56999969482422,20.519471812323648,19.187777187134742,20.64939471240555,19.13905706759445,19.873925194864597,0.02037142137349621,-231.3000030517578,0.0,0.0,0.0,0.0,1.0,0.0,,,,,
pylon_camera_1771859472828200451.png,1771859472828200451,1771859472.8282003,42.300784398376685,-83.69858965535619,237.00253295898438,0.8305294546737692,0.5567889669414734,-0.013519799788134952,0.004907771920852983,0.04644000000000001,-0.005000000000000001,0.42735000000000006,-0.5810000000000001,4.6662,-10.411100000000001,8.723809513748774,19.514638453685183,25.119998931884766,23.139999389648438,25.3799991607666,23.5,20.397670739080585,18.789892855188906,20.608793322134744,19.08221667,19.719643396601057,0.010505187856921862,-244.90000915527344,0.0,0.0,4.0,0.0,1.0,0.0,,,,,
pylon_camera_1771859472878896348.png,1771859472878896348,1771859472.8788965,42.30078881358986,-83.6985874147828,237.00558471679688,0.8373739469092534,0.5463985003718993,-0.015612658682877277,0.003129970896132099,0.11328,-0.050440000000000006,0.40214000000000005,-0.8334,3.3245,-10.185500000000001,8.711198536251839,19.48642845368319,24.889999389648438,23.09000015258789,25.459999084472656,23.279998779296875,20.210908990188905,18.749293013702776,20.673753997783358,18.90357365037781,19.634382413013213,0.007592666849222404,-257.8000183105469,0.0,200.0,16.0,0.0,1.0,0.0,,,,,
pylon_camera_1771859472928990126.png,1771859472928990126,1771859472.9289901,42.30079172440126,-83.69858584853746,237.00726318359375,0.8429455515329219,0.5377275289644223,-0.017057621785325536,0.0009691664992923607,0.06253,0.0033600000000000006,0.40463000000000005,-1.4657,0.6482,-8.0568,8.650114340415804,19.34978677264973,24.85999870300293,23.53999900817871,25.260000228881836,23.26999855041504,20.18654815602642,19.11469623343197,20.511353083054164,18.895453372323647,19.67701271120905,0.016911087569287445,-268.1000061035156,0.0,1128.0,264.0,0.0,1.0,0.0,,,,,
pylon_camera_1771859472979303577.png,1771859472979303577,1771859472.9793036,42.30079603380893,-83.69858341759098,237.0072021484375,0.8483440383688877,0.5291825525879215,-0.016677832154370263,0.00026175394796053536,0.040260000000000004,0.02645,0.4061300000000001,-3.3499000000000003,-0.3705,-11.1106,8.59370490163656,19.22360224266689,24.65999984741211,22.299999237060547,25.119998931884766,23.059999465942383,20.024147241297225,18.107804986486133,20.397670739080585,18.724932179540293,19.313638786601057,0.004683645801530984,-273.5,0.0,2232.0,568.0,0.0,1.0,0.0,,,,,
pylon_camera_1771859473029338965.png,1771859473029338965,1771859473.0293388,42.30079886731635,-83.69858175514004,237.00772094726562,0.8539378486078374,0.5201933956586609,-0.01353169603428874,0.0024238462339898383,-0.10067000000000002,0.07642000000000002,0.42365,-1.9174,5.5571,-10.9517,8.518196442264122,19.054694349558307,22.219999313354492,20.0,24.35999870300293,22.260000228881836,18.042844310837516,16.2401844,19.780543546026422,18.075325423054164,18.034724419979526,0.05352853794804768,-276.20001220703125,0.0,2720.0,936.0,0.0,1.0,0.0,,,,,
pylon_camera_1771859473080286147.png,1771859473080286147,1771859473.0802863,42.30080303767722,-83.69857920868944,237.01287841796875,0.8592367184836014,0.5114465544514889,-0.010583754263267525,0.00476106027342264,-0.13359000000000001,0.09522000000000001,0.40675000000000006,-0.1327,5.0886000000000005,-8.2295,8.35753629582175,18.69530724157551,20.5,15.699999809265137,24.399999618530273,22.329999923706055,16.64618901,12.748544599121534,19.813024658243066,18.132165820648613,16.8349810220033,0.09950765695014237,-280.5,0.0,2744.0,2396.0,1.0,1.0,0.0,,,,,
pylon_camera_1771859473130268917.png,1771859473130268917,1771859473.1302688,42.30080573244518,-83.69857744629384,237.01724243164062,0.864003664722073,0.5033658966370694,-0.00969624854183701,0.005140448793785958,0.022660000000000003,0.07309,0.35486,-3.2684,2.7705,-8.1226,8.221954951102386,18.392019908318975,18.170000076293945,15.880000114440918,24.06999969482422,20.899999618530273,14.754207589351388,12.894706506527081,19.54506167759445,16.970992388243065,16.041242040428994,0.1278151002232599,-285.8000183105469,0.0,2744.0,1564.0,1.0,1.0,0.0,,,,,
pylon_camera_1771859473180992619.png,1771859473180992619,1771859473.1809926,42.30080968844096,-83.69857475137202,237.02020263671875,0.8686123312507699,0.49540838368700946,-0.00841214075833295,0.0035195538906920665,-0.00248,0.10535000000000001,0.3708600000000001,-3.5938000000000003,2.1604,-10.2408,8.088590863548431,18.09369244630603,18.010000228881836,18.260000228881836,23.56999969482422,19.979999542236328,14.624286238054161,14.827288543054163,19.13905706759445,16.22394384389168,16.20364392314861,0.10445897258208821,-292.0,0.0,2744.0,1552.0,1.0,1.0,0.0,,,,,
pylon_camera_1771859473230939458.png,1771859473230939458,1771859473.2309394,42.30081227063255,-83.69857295833066,237.0205535888672,0.873209091776295,0.4873039920947593,-0.005291780617142077,0.0035634794273089235,-0.18275000000000002,0.043530000000000006,0.40211,-3.1614,-3.6154,-11.1004,7.953759811268763,17.79208347221955,18.729999542236328,19.35999870300293,23.19999885559082,19.35999870300293,15.20893231889168,15.720497446026421,18.838612974729198,15.720497446026421,16.37213504641843,0.07980787792605736,-298.6000061035156,0.0,2744.0,1224.0,1.0,1.0,0.0,,,,,
pylon_camera_1771859473282233585.png,1771859473282233585,1771859473.2822337,42.300816075552945,-83.69857034374287,237.02743530273438,0.8787168736864552,0.4772805075263168,3.6030772989695085e-05,0.0077441420381275305,-0.23329000000000003,0.06959000000000001,0.4860500000000001,0.6727000000000001,7.7471000000000005,-11.233600000000001,7.80477321584503,17.45880939745238,21.09000015258789,18.420000076293945,22.899999618530273,20.559999465942383,17.125274573702775,14.957209894351388,18.595010828243066,16.694909129540292,16.84310110645938,0.03526633901409377,-305.3999938964844,0.0,2744.0,1328.0,1.0,1.0,0.0,,,,,
pylon_camera_1771859473332137030.png,1771859473332137030,1771859473.3321369,42.300818567143516,-83.69856856191853,237.03640747070312,0.8839533684081641,0.4674456939356755,0.004319820806184766,0.010114585955827282,-0.17240000000000003,0.10031000000000001,0.44681000000000004,-3.2516000000000003,4.4309,-7.904100000000001,7.672664607517019,17.163290367139123,20.969999313354492,16.260000228881836,22.76999855041504,17.28999900817871,17.027832785837518,13.203270103054162,18.489448762323647,14.03963860843197,15.690047564911826,0.08583685125131782,-313.3999938964844,0.0,2572.0,1164.0,1.0,1.0,0.0,,,,,
pylon_camera_1771859473383156729.png,1771859473383156729,1771859473.3831568,42.30082219155421,-83.69856580016602,237.04879760742188,0.8889603588610429,0.4578416078369063,0.005781850390432932,0.009854578277391349,0.022970000000000004,0.04999000000000001,0.39789,-4.0164,4.0625,-9.863800000000001,7.610865241622763,17.025048893595624,19.020000457763672,18.049999237060547,22.420000076293945,18.350000381469727,15.444415736108322,14.65676580148613,18.205246774351387,14.900369496756936,15.801699452175693,0.07185585480932877,-323.0,0.0,2380.0,1124.0,1.0,1.0,0.0,,,,,
pylon_camera_1771859473433033521.png,1771859473433033521,1771859473.4330335,42.300824529387505,-83.69856385751291,237.05795288085938,0.8934879758219627,0.448999707129912,0.005338122091588162,0.0070713868060205565,0.1476,0.008620000000000001,0.38676000000000005,-1.4111,3.5464,-9.5967,7.551637780991417,16.89256061781094,19.399999618530273,17.219999313354492,22.189998626708984,17.56999969482422,15.752978558243067,13.982798210837517,18.018483476675033,14.267001747594453,15.505315498337517,0.08212165999337953,-333.3000183105469,0.0,1360.0,1100.0,1.0,1.0,0.0,,,,,
pylon_camera_1771859473484110829.png,1771859473484110829,1771859473.4841108,42.30082794672524,-83.6985608649692,237.07022094726562,0.8975771757791664,0.4408345942881031,0.0032319315218851375,0.003103001414224612,0.25031000000000003,0.0037400000000000007,0.33979000000000004,-0.7298,2.2969,-8.5151,7.475770782529629,16.72285069427183,19.229999542236328,14.809999465942383,21.90999984741211,17.369998931884766,15.614936928891678,12.025856114540291,17.791121886297226,14.104599284080582,14.884128553452445,0.10995267340688587,-345.1000061035156,0.0,0.0,600.0,1.0,1.0,0.0,,,,,
pylon_camera_1771859473534092721.png,1771859473534092721,1771859473.534093,42.30083128934124,-83.69855782806279,237.0792694091797,0.9016619689540638,0.4324400859777434,0.0010853560559984073,0.000296283098541955,0.06226000000000001,-0.0030600000000000007,0.37673000000000006,-1.0821,0.8624,-8.449300000000001,7.380474559705435,16.509678761587477,19.020000457763672,17.369998931884766,21.60999870300293,19.239999771118164,15.444415736108322,14.104599284080582,17.54751819102642,15.62305720694584,15.67989760454029,0.05026028483230157,-358.1000061035156,0.0,0.0,428.0,1.0,1.0,0.0,,,,,
pylon_camera_1771859473585342754.png,1771859473585342754,1771859473.5853426,42.30083348857574,-83.69855582156038,237.08436584472656,0.905890407413616,0.42349247156417175,0.0020888212967438815,0.003511852794726483,-0.26876000000000005,0.012500000000000002,0.40214000000000005,-2.0579,-0.34540000000000004,-9.3057,7.275270823803456,16.274344316598903,19.139999389648438,17.60999870300293,21.28999900817871,18.850000381469727,15.541855975188904,14.29948131102642,17.28767548843197,15.306374106756934,15.608846720351057,0.04089243678893265,-371.8999938964844,0.0,0.0,168.0,1.0,1.0,0.0,,,,,
pylon_camera_1771859473635251674.png,1771859473635251674,1771859473.6352518,42.30083673321351,-83.69855280506614,237.09552001953125,0.9102186615546356,0.4139242339229589,0.005276623244025326,0.01186903433813407,-0.32163,-0.04388000000000001,0.39565000000000006,-0.5548000000000001,2.6386000000000003,-14.7865,7.206369059871529,16.12021520478902,19.719999313354492,17.75,20.520000457763672,18.8799991607666,16.01282126083752,14.413163655,16.662429566108322,15.330733392134745,15.604786968520147,0.03197402948539723,-387.0,0.0,0.0,168.0,1.0,1.0,0.0,,,,,
pylon_camera_1771859473686294207.png,1771859473686294207,1771859473.6862943,42.30083883178123,-83.69855072194683,237.10923767089844,0.9143009423234152,0.40453709032124646,0.006867747162126411,0.018877591738665284,-0.18067000000000003,-0.08209000000000001,0.3909,-0.3008,5.1051,-11.2307,7.134062649326475,15.958470102784366,19.35999870300293,17.1299991607666,20.60999870300293,18.719999313354492,15.720497446026421,13.909717257134744,16.735508971026423,15.200812040837517,15.391633928756278,0.035519455836132384,-404.6000061035156,0.0,0.0,152.0,0.0,1.0,0.0,,,,,
pylon_camera_1771859473736147803.png,1771859473736147803,1771859473.7361476,42.300841836735266,-83.69854749149283,237.1341094970703,0.9183772136581803,0.39511433205021873,0.006099806096827051,0.020754527398332043,0.047990000000000005,-0.034080000000000006,0.40203000000000005,-1.2585,6.4629,-8.480500000000001,7.033929565914159,15.73447840317602,18.969999313354492,16.6299991607666,20.639999389648438,18.690000534057617,15.403814345837517,13.503712647134742,16.759869805188906,15.17645275545971,15.210962388405218,0.03327190144829523,-421.6000061035156,0.0,0.0,144.0,0.0,1.0,0.0,,,,,
pylon_camera_1771859473787718228.png,1771859473787718228,1771859473.787718,42.300843744775186,-83.6985452647928,237.14976501464844,0.9224415546355513,0.3857605617406808,0.003594813955298074,0.01665666832498044,0.27097000000000004,-0.013230000000000002,0.40316,-1.8411000000000002,4.3939,-8.8947,6.945810374623403,15.537361059410078,18.549999237060547,16.28999900817871,20.549999237060547,17.829999923706055,15.06277041148613,13.22762938843197,16.68678885148613,14.478124330648614,14.863828245513211,0.043349241310765986,-437.8999938964844,0.0,0.0,160.0,0.0,1.0,0.0,,,,,
pylon_camera_1771859473837294409.png,1771859473837294409,1771859473.8372943,42.3008465159852,-83.69854187756617,237.16612243652344,0.9265209796013452,0.37615214779053274,0.0010148324254657067,0.008210127056323423,0.3799600000000001,0.04927000000000001,0.42704000000000003,-1.0385,1.4399000000000002,-5.9615,6.863385191281271,15.352980869784727,18.389999389648438,15.84999942779541,20.479999542236328,17.28999900817871,14.932849060188905,12.870345672364598,16.62994845389168,14.03963860843197,14.618195448719288,0.047859463077396636,-452.3000183105469,0.0,0.0,176.0,0.0,1.0,0.0,,,,,
