image_filename,timestamp_ns,timestamp_sec,latitude,longitude,altitude,orientation_x,orientation_y,orientation_z,orientation_w,angular_velocity_x,angular_velocity_y,angular_velocity_z,linear_acceleration_x,linear_acceleration_y,linear_acceleration_z,vehicle_speed_mps,vehicle_speed_mph,wheel_speed_fl_rads,wheel_speed_fr_rads,wheel_speed_rl_rads,wheel_speed_rr_rads,wheel_speed_fl_mph,wheel_speed_fr_mph,wheel_speed_rl_mph,wheel_speed_rr_mph,avg_wheel_speed_mph,wheel_slip,steering_angle_deg,throttle_pedal,brake_pedal,brake_torque_actual,abs_active,esc_active,trac_active,marwis_road_condition,marwis_friction,marwis_surface_temp_c,marwis_ice_percent,marwis_water_film_height
pylon_camera_1771859770015324883.png,1771859770015324883,1771859770.0153248,42.30096743643771,-83.69727201842925,238.84483337402344,-0.028430638148817355,-0.9995075918499732,-0.009600291895355481,-0.009170989272827989,0.0007700000000000001,0.031880000000000006,0.0024600000000000004,2.1858,0.1437,-9.7362,0.26489233786662825,0.5925482662673754,0.0,0.0,0.0,0.0,0.0,0.0,0.0,0.0,0.0,0.0,-1.5,30.075000762939453,0.0,0.0,0.0,0.0,0.0,,,,,
pylon_camera_1771859770042782691.png,1771859770042782691,1771859770.0427828,42.30096743729693,-83.69727209402953,238.84423828125,-0.028452872232596016,-0.9995115350528935,-0.009578634482255308,-0.008681884552291118,0.0019000000000000002,0.033850000000000005,0.0008700000000000001,2.5402,0.1444,-9.7235,0.34454524826067867,0.7707270476442426,0.0,0.0,0.0,0.0,0.0,0.0,0.0,0.0,0.0,0.0,-1.5,30.024999618530273,0.0,0.0,0.0,0.0,0.0,,,,,
pylon_camera_1771859770100048912.png,1771859770100048912,1771859770.1000488,42.30096744854523,-83.69727241761156,238.84283447265625,-0.028390323620562152,-0.999519897222146,-0.009528146762449726,-0.007948521939556764,0.0034100000000000007,0.006260000000000001,-0.0007000000000000001,1.9513,0.1827,-10.0402,0.5061321317689389,1.1321872108392101,0.0,0.8499999642372131,0.7799999713897705,0.8100000023841858,0.0,0.6902078079602874,0.6333671683682298,0.6577274701359809,0.49532561161612454,0.5625055583793649,-1.5,29.975000381469727,0.0,0.0,0.0,0.0,0.0,,,,,
pylon_camera_1771859770143140456.png,1771859770143140456,1771859770.1431403,42.30096746144053,-83.6972727052553,238.8424835205078,-0.028217295368012985,-0.9995289335621949,-0.009514797663676735,-0.007427236333609599,0.0011,0.00020000000000000004,-0.012100000000000001,3.0056000000000003,0.1537,-10.4755,0.6297783237693921,1.4087763235727042,1.1799999475479126,1.3700000047683716,2.819999933242798,1.3600000143051147,0.9581708370084215,1.1124526352719617,2.2898659461925366,1.104332550815885,1.3662054923222011,0.030218304026108297,-1.5,30.25,0.0,0.0,0.0,0.0,0.0,,,,,
pylon_camera_1771859770192853411.png,1771859770192853411,1771859770.1928535,42.300967479199734,-83.69727323320468,238.84341430664062,-0.028015204036668462,-0.9995357930210238,-0.00962180095765038,-0.007125149749168426,-0.005860000000000001,0.009270000000000002,-0.00623,2.7409000000000003,-0.4813,-10.063600000000001,0.7663224047662818,1.7142172401178866,1.5699999332427979,1.71999990940094,5.299999713897705,1.7899999618530273,1.2748544211925366,1.396655784832728,4.3036486336822986,1.4534964728243065,2.1071638281329674,0.22922799912341213,-1.5,30.05000114440918,0.0,0.0,0.0,0.0,0.0,,,,,
pylon_camera_1771859770242108057.png,1771859770242108057,1771859770.242108,42.30096748837036,-83.6972736567954,238.84474182128906,-0.027972755934370486,-0.9995349014524775,-0.009835134779734515,-0.007125715942027355,-0.01012,-0.007630000000000001,0.0017500000000000003,2.4087,-0.5569000000000001,-9.960700000000001,0.9080196920812537,2.0311855700042396,2.1399998664855957,2.2699999809265137,7.690000057220459,2.3299999237060547,1.7376996223850727,1.8432609139121532,6.24435094826354,1.8919814206486132,2.929323226302345,0.4421741024362588,-1.5,30.200000762939453,0.0,0.0,0.0,0.0,0.0,,,,,
pylon_camera_1771859770292334866.png,1771859770292334866,1771859770.2923348,42.30096749820945,-83.69727412194402,238.84632873535156,-0.028124726232150843,-0.9995297937118643,-0.009870132925766082,-0.0071952576543198735,0.0034900000000000005,-0.0021100000000000003,0.006240000000000001,2.4525,0.035500000000000004,-9.879000000000001,1.0418789457008364,2.3306206887960292,2.75,2.5299999713897705,9.949999809265137,2.6399998664855957,2.233025355,2.05438330336823,8.079491584121532,2.1437042323850726,3.627651118718709,0.556517169935838,-1.5,30.200000762939453,0.0,0.0,0.0,0.0,0.0,,,,,
pylon_camera_1771859770343377073.png,1771859770343377073,1771859770.343377,42.30096751921307,-83.69727493020504,238.84844970703125,-0.028201209452085152,-0.9995281598334544,-0.009693855767656157,-0.007360614495004078,0.011470000000000001,-0.0030100000000000005,-0.0006600000000000001,2.2083,0.1014,-9.4694,1.1703934426262792,2.6180999075484293,3.569999933242798,3.549999952316284,12.960000038146973,3.059999942779541,2.8988728611925363,2.8826326922803833,10.523639522175694,2.48474816673646,4.697473310596268,0.7942299669514713,-1.5,30.200000762939453,0.0,0.0,0.0,0.0,0.0,,,,,
pylon_camera_1771859770392860020.png,1771859770392860020,1771859770.39286,42.300967547165726,-83.69727584264494,238.85003662109375,-0.02811159004434255,-0.9995303905236517,-0.009569285403368571,-0.00756080033357817,0.004320000000000001,-0.0059900000000000005,-0.006710000000000001,1.7570000000000001,0.2238,-9.4174,1.2823888924046565,2.8686270089756722,4.730000019073486,6.179999828338623,15.239999771118164,3.299999952316284,3.8408036260878466,5.01821684020938,12.375020326945839,2.6796303872803833,5.978417795130863,1.0840694089628728,-1.5,30.600000381469727,0.0,144.0,0.0,0.0,0.0,,,,,
pylon_camera_1771859770442971982.png,1771859770442971982,1771859770.442972,42.30096757271498,-83.69727650869208,238.8505859375,-0.02774829830990788,-0.9995402421678021,-0.009561555231959283,-0.007610051877751739,0.007000000000000001,-0.0005300000000000001,-0.02186,1.9722000000000002,0.48760000000000003,-9.6411,1.3978767164149826,3.1269663420173313,8.460000038146973,9.059999465942383,15.90999984741211,3.799999952316284,6.869598032175693,7.356803099540292,12.919066566297225,3.0856349972803834,7.557775673823398,1.4169673885736724,-1.5,31.350000381469727,0.0,164.0,0.0,0.0,0.0,,,,,
pylon_camera_1771859770494039603.png,1771859770494039603,1771859770.4940395,42.300967615381836,-83.69727757858506,238.85107421875,-0.027047400245137465,-0.9995595024060056,-0.00960643803684577,-0.0075468959236216085,0.006710000000000001,-0.00068,-0.03468,2.2982,0.552,-9.88,1.5046892914879713,3.3658996637011027,13.979999542236328,12.179999351501465,14.979999542236328,4.110000133514404,11.351888523891677,9.890271773013211,12.16389774389168,3.3373580026149274,9.185854010852873,1.7290932376612258,-1.399999976158142,31.850000381469727,0.0,188.0,0.0,0.0,0.0,,,,,
pylon_camera_1771859770544568693.png,1771859770544568693,1771859770.5445685,42.30096764629392,-83.6972783430036,238.85162353515625,-0.026144450436930644,-0.9995831087643543,-0.009653140291693599,-0.007542762547559498,-0.0022700000000000003,-0.007160000000000001,-0.03723,1.9824000000000002,0.27540000000000003,-10.5555,1.6019840757264183,3.5835422583554544,17.81999969482422,17.520000457763672,14.199999809265137,4.409999847412109,14.470004052594453,14.226401906108324,11.530530769121533,3.580960536297226,10.951974316030384,2.0561867354834606,-1.399999976158142,33.5,0.0,188.0,0.0,0.0,0.0,,,,,
pylon_camera_1771859770595482410.png,1771859770595482410,1771859770.5954823,42.30096769515862,-83.69727956298985,238.85293579101562,-0.02514574421694238,-0.9996102517902847,-0.009451527030190907,-0.007596360993080558,0.013490000000000002,-0.008650000000000001,-0.04105,2.0503,0.1822,-10.518,1.7144346184436818,3.83508737538141,17.639999389648438,18.260000228881836,15.769999504089355,5.650000095367432,14.323842145188904,14.827288543054163,12.805384996715986,4.587852170439234,11.636091963849571,2.034113913165363,-1.399999976158142,33.625,0.0,168.0,0.0,0.0,0.0,,,,,
pylon_camera_1771859770645417147.png,1771859770645417147,1771859770.6454172,42.30096772669704,-83.69728042646716,238.8546600341797,-0.024053208341012544,-0.9996395737703162,-0.008973815679366927,-0.007850882304367406,0.016280000000000003,-0.022590000000000006,-0.04322,2.5762,-0.1675,-10.104600000000001,1.8320868591842407,4.098268378783596,15.299999237060547,14.519999504089355,17.420000076293945,9.039999961853027,12.42374044648613,11.790373471715984,14.145200674351388,7.340563317824307,11.424969477594452,1.7877553204520709,-1.3000000715255737,33.67499923706055,0.0,164.0,0.0,0.0,0.0,,,,,
pylon_camera_1771859770696501427.png,1771859770696501427,1771859770.6965015,42.30096776727093,-83.69728181369562,238.85777282714844,-0.023009027128061632,-0.9996640253495139,-0.008598884415058568,-0.00827528123045942,0.01599,-0.011400000000000002,-0.04242,1.8141,0.23290000000000002,-9.365,1.9345117814062136,4.327386784298816,13.719999313354492,11.819999694824219,18.60999870300293,14.269999504089355,11.140765940837518,9.597948732594453,15.111490531026423,11.587371166715984,11.859394092793593,1.7405440474661014,-1.100000023841858,33.57500076293945,0.0,68.0,0.0,0.0,0.0,,,,,
pylon_camera_1771859770746284521.png,1771859770746284521,1771859770.7462845,42.300967792897026,-83.6972827944005,238.8590850830078,-0.021991378972898157,-0.9996852306410331,-0.008428829656858943,-0.00864717986806579,0.00858,0.0006500000000000001,-0.042600000000000006,1.7246000000000001,0.5175000000000001,-9.1829,2.0493744311917816,4.5843276401101445,13.229999542236328,7.710000038146973,18.079999923706055,14.65999984741211,10.742881608891679,6.260591117175694,14.681126635648614,11.904055041297227,10.897163600753302,1.3770472916049001,-1.2000000476837158,33.150001525878906,0.0,16.0,0.0,0.0,0.0,,,,,
pylon_camera_1771859770797284765.png,1771859770797284765,1771859770.7972848,42.30096782023844,-83.697284340751,238.86013793945312,-0.020924056540328473,-0.9997045456114563,-0.008696734566951423,-0.008796144016612065,-0.027770000000000003,-0.011020000000000002,-0.0357,1.3674000000000002,-0.6981,-9.4313,2.152376282859046,4.814736602178714,14.420000076293945,5.940000057220459,18.279998779296875,15.299999237060547,11.709173014351387,4.82333481326354,14.843527550377807,12.42374044648613,10.949943956119716,1.274256072734023,-2.299999952316284,33.32500076293945,0.0,12.0,0.0,0.0,0.0,,,,,
pylon_camera_1771859770847287384.png,1771859770847287384,1771859770.8472872,42.30096782952703,-83.69728542530513,238.86033630371094,-0.020325641665192185,-0.9997107080094908,-0.00951288311642055,-0.008652955383811915,-0.031100000000000003,0.007770000000000002,-0.009190000000000002,1.4712,0.097,-9.4823,2.255806547049648,5.04610389735724,16.350000381469727,6.46999979019165,16.78999900817871,15.559999465942383,13.276351056756935,5.253699483033686,13.63363399843197,12.634863029540291,11.19963689194072,1.2194622068337173,-5.0,33.125,0.0,40.0,0.0,0.0,0.0,,,,,
pylon_camera_1771859770897984472.png,1771859770897984472,1771859770.8979845,42.30096783284034,-83.69728712408205,238.8609161376953,-0.0204599203073223,-0.9997010110356201,-0.010381886738281785,-0.008455567581806454,-0.026610000000000005,0.0037100000000000006,0.01887,2.3558,0.7259,-9.6295,2.384583398868641,5.334169988265218,18.119998931884766,6.659999847412109,14.489999771118164,15.869999885559082,14.713606199080584,5.407981281297226,11.76601341194584,12.88658622847292,11.193546780199142,1.0984608298618384,-8.40000057220459,33.04999923706055,0.0,136.0,0.0,0.0,0.0,,,,,
pylon_camera_1771859770947909962.png,1771859770947909962,1771859770.9479098,42.30096782686868,-83.69728829962068,238.86167907714844,-0.021003107746264238,-0.9996888189396773,-0.010650261156215698,-0.008228407458090016,-0.007540000000000001,0.00941,0.032600000000000004,3.2018,0.6197,-10.334900000000001,2.4937675000551796,5.5784082715734336,17.81999969482422,6.869999885559082,12.109999656677246,15.0,14.470004052594453,5.578503248472919,9.833431375418758,12.180138300000001,10.515519244121533,0.8850393754266302,-11.800000190734863,33.47500228881836,0.0,196.0,0.0,0.0,0.0,,,,,
pylon_camera_1771859770999087940.png,1771859770999087940,1771859770.9990878,42.300967829702394,-83.69729015649156,238.86317443847656,-0.02168102893357149,-0.9996846372521513,-0.009949140824027983,-0.007846886215568538,0.03649,0.026940000000000002,0.030020000000000005,2.8603,1.294,-10.9563,2.612031947190097,5.842958743947416,16.579999923706055,8.949999809265137,8.90999984741211,14.589999198913574,13.463112805648613,7.267482364121533,7.235002026297226,11.847213869310437,9.953202766344454,0.7034525148161868,-15.0,32.85000228881836,0.0,164.0,0.0,0.0,0.0,,,,,
pylon_camera_1771859771049254147.png,1771859771049254147,1771859771.0492542,42.30096784242568,-83.69729145741478,238.8650665283203,-0.02224979399276583,-0.9996832365131522,-0.008887333332716369,-0.007706400463373713,0.030200000000000005,0.029270000000000004,0.023060000000000004,2.7018,0.3073,-9.7728,2.7293958975609915,6.105494859090085,14.84999942779541,8.979999542236328,7.819999694824219,13.469999313354492,12.058336452364598,7.291842423891678,6.349911852594452,10.937763635837516,9.159463591172061,0.5002000333412968,-16.80000114440918,33.25,0.0,148.0,0.0,0.0,0.0,,,,,
pylon_camera_1771859771102285957.png,1771859771102285957,1771859771.102286,42.300967867835126,-83.69729349363332,238.8684539794922,-0.022666243029842548,-0.9996765723055734,-0.008479135672577283,-0.007816423001467062,-0.013600000000000001,-0.0033000000000000004,0.024980000000000006,1.4948000000000001,-1.3681,-9.1677,2.8489419348023675,6.372912171636808,13.00999927520752,7.549999713897705,8.679999351501465,11.929999351501465,10.564239363661825,6.130669378682298,7.04823950301321,9.687269468013211,8.357604428342636,0.31142626843954807,-17.399999618530273,33.45000076293945,0.0,88.0,0.0,0.0,0.0,,,,,
pylon_camera_1771859771152155042.png,1771859771152155042,1771859771.1521552,42.30096787987879,-83.69729491585746,238.87017822265625,-0.023325362304322306,-0.9996497853060675,-0.00965542734879991,-0.007937690697990727,-0.03562,-0.01467,0.020980000000000002,2.5594,-0.8363,-9.8853,2.9887382104575213,6.6856280525008485,9.460000038146973,8.170000076293945,8.899999618530273,10.479999542236328,7.681607252175693,6.634115389351387,7.226881748243065,8.509856253891678,7.513115160915456,0.1237710357077186,-17.200000762939453,33.07500076293945,0.0,88.0,0.0,0.0,0.0,,,,,
pylon_camera_1771859771201414033.png,1771859771201414033,1771859771.201414,42.300967892742406,-83.6972971327614,238.87168884277344,-0.024114697984522537,-0.9996151651926595,-0.011036716836928423,-0.008135953504591585,-0.020940000000000004,-0.01947,0.024300000000000002,1.9001000000000001,-0.1254,-9.3712,3.1056120090303425,6.947067727480335,8.630000114440918,8.40999984741211,8.829999923706055,8.489999771118164,7.00763966152708,6.828997416297226,7.170041350648613,6.89395809194584,6.97515913010469,0.00404363448383188,-16.600000381469727,33.150001525878906,0.0,84.0,0.0,0.0,0.0,,,,,
pylon_camera_1771859771251119547.png,1771859771251119547,1771859771.2511196,42.30096790768685,-83.69729865656919,238.87213134765625,-0.024789305439894327,-0.9995931045131018,-0.011439835027479903,-0.00826110889717887,0.015500000000000002,0.006110000000000001,0.014220000000000002,0.8584,1.0234,-9.0706,3.1970206725272825,7.151543423203179,9.029999732971191,8.800000190734863,8.949999809265137,8.75,7.332443039770145,7.145681290878468,7.267482364121533,7.105080675000001,7.2126718424425365,0.008547584153796221,-15.199999809265137,33.42499923706055,0.0,0.0,0.0,0.0,0.0,,,,,
pylon_camera_1771859771302012933.png,1771859771302012933,1771859771.302013,42.30096796503442,-83.69730103025347,238.8720703125,-0.025248837621986153,-0.9995891807191843,-0.010719811789063649,-0.008309730627128184,0.027690000000000003,-0.00033000000000000005,0.018430000000000005,1.2209,0.11040000000000001,-9.7728,3.319559277771232,7.425654930817581,9.220000267028809,9.029999732971191,9.170000076293945,9.130000114440918,7.486725225229855,7.332443039770145,7.446124609351387,7.413644271527081,7.419734286469618,0.0007973228493814831,-13.300000190734863,33.625,0.0,0.0,0.0,0.0,0.0,,,,,
pylon_camera_1771859771352237903.png,1771859771352237903,1771859771.352238,42.30096801620499,-83.6973026705015,238.8718719482422,-0.025562377868139807,-0.9995855761961842,-0.010271655325029884,-0.008350676329061868,-0.00974,-0.009330000000000001,0.014010000000000002,2.1734,-0.4858,-9.746500000000001,3.44166101059868,7.698789181048612,9.630000114440918,9.389999389648438,9.550000190734863,9.579999923706055,7.819648881527081,7.624766080188904,7.754688205878468,7.779048265648614,7.744537858310766,0.00594232108274491,-10.300000190734863,33.67499923706055,0.0,0.0,0.0,0.0,0.0,,,,,
pylon_camera_1771859771402824368.png,1771859771402824368,1771859771.4028244,42.300968096015914,-83.69730520436748,238.87158203125,-0.025948097483735943,-0.9995734293834074,-0.010410658870357211,-0.00844237463951672,-0.008780000000000001,0.014960000000000003,0.02211,1.0434,1.6875,-9.5619,3.530413949962348,7.897324181228775,9.809999465942383,9.769999504089355,9.729999542236328,9.800000190734863,7.965810014540291,7.933329676715984,7.900849338891678,7.957690510878468,7.939419885256606,0.005330375588213556,-7.200000286102295,33.35000228881836,0.0,0.0,0.0,0.0,0.0,,,,,
pylon_camera_1771859771452796203.png,1771859771452796203,1771859771.4527962,42.300968181585226,-83.6973078342043,238.8721160888672,-0.026133055998563304,-0.9995711605226785,-0.010261799581897428,-0.008321893105695087,0.03212,0.027090000000000003,0.01195,2.7257000000000002,1.4391,-10.0451,3.652013453785824,8.169334975311662,10.119999885559082,10.119999885559082,10.09000015258789,10.09000015258789,8.21753321347292,8.21753321347292,8.193173153702775,8.193173153702775,8.205353183587848,0.0044089523057918014,-5.0,33.35000228881836,0.0,0.0,0.0,0.0,0.0,,,,,
pylon_camera_1771859771504091395.png,1771859771504091395,1771859771.5040915,42.30096824132144,-83.69730965243039,238.87388610839844,-0.026098865754462075,-0.999573991893763,-0.009601779617843236,-0.00885944490747608,0.03538,-0.03649,0.0025400000000000006,2.8461000000000003,1.6249,-10.8774,3.790862523533085,8.4799320133921,10.34999942779541,10.399999618530273,10.489999771118164,10.300000190734863,8.404294962364597,8.444895578243065,8.51797653194584,8.363695120878468,8.432715548357992,0.0055680240076854725,-3.700000047683716,33.275001525878906,0.0,0.0,0.0,0.0,0.0,,,,,
pylon_camera_1771859771553573834.png,1771859771553573834,1771859771.5535738,42.300968325690974,-83.69731246534282,238.87709045410156,-0.026022854716402366,-0.9995750217851025,-0.008727551008724518,-0.009819201042409206,0.032650000000000005,-0.04268000000000001,-0.006950000000000001,2.8315,0.402,-9.9497,3.910450052969868,8.747442141490417,10.789999961853027,10.679999351501465,10.800000190734863,10.789999961853027,8.761579452824307,8.67225794301321,8.769699730878468,8.761579452824307,8.741279144885073,0.0007045484274896542,-2.799999952316284,33.54999923706055,0.0,0.0,0.0,0.0,0.0,,,,,
pylon_camera_1771859771604091753.png,1771859771604091753,1771859771.6040916,42.30096837775063,-83.69731439184604,238.87921142578125,-0.025984486100470883,-0.9995672516799525,-0.008475635464122519,-0.010875635823257237,-0.0028500000000000005,-0.044500000000000005,-0.008110000000000001,2.1599,0.1918,-9.9135,4.029383271069133,9.013488614385386,11.239999771118164,11.079999923706055,11.139999389648438,11.229999542236328,9.12698344694584,8.997062095648614,9.045782215188904,9.118863168891679,9.072172731668758,0.006510699662915525,-1.899999976158142,33.375,0.0,0.0,0.0,0.0,0.0,,,,,
pylon_camera_1771859771654484578.png,1771859771654484578,1771859771.6544845,42.30096845083385,-83.69731738174127,238.88156127929688,-0.02597996077158632,-0.9995522965586551,-0.008837704732876499,-0.01192237634365436,-0.03347000000000001,-0.036090000000000004,-0.0012000000000000001,2.0540000000000003,-0.4693,-9.111,4.147556678089918,9.277835435486463,11.429999351501465,11.519999504089355,11.420000076293945,11.5,9.28126485801321,9.354345811715985,9.273145354351389,9.33810603,9.311715513520147,0.00365172224375716,-1.600000023841858,33.150001525878906,0.0,0.0,0.0,0.0,0.0,,,,,
pylon_camera_1771859771705345286.png,1771859771705345286,1771859771.7053454,42.300968493772544,-83.69731943268242,238.8821258544922,-0.02599509846922532,-0.9995352005897307,-0.009639186181201229,-0.012677686200027351,-0.028960000000000003,-0.00055,0.0008200000000000001,2.2033,-0.6625,-9.123800000000001,4.255432310864683,9.519146753465645,11.739999771118164,12.09999942779541,11.75,11.800000190734863,9.532988056945838,9.825311097364597,9.541108335,9.581708950878468,9.620279110047226,0.010624098903062132,-1.600000023841858,33.45000076293945,0.0,0.0,0.0,0.0,0.0,,,,,
pylon_camera_1771859771755247391.png,1771859771755247391,1771859771.7552474,42.300968565819126,-83.69732259277521,238.88296508789062,-0.02593897267083156,-0.9995282861723811,-0.009512025368035068,-0.013412539337587235,0.023410000000000004,-0.024580000000000005,-0.008100000000000001,1.8213000000000001,-0.7585000000000001,-9.689300000000001,4.379834646769365,9.797427314744263,12.119999885559082,12.09000015258789,12.149999618530273,12.0,9.84155165347292,9.817191593702775,9.865911713243065,9.74411064,9.81719140010469,0.00201727297641529,-1.399999976158142,33.525001525878906,0.0,0.0,0.0,0.0,0.0,,,,,
pylon_camera_1771859771806113649.png,1771859771806113649,1771859771.8061135,42.3009686113803,-83.69732475916885,238.8833465576172,-0.026049203326405257,-0.9995132618234364,-0.00957242214454654,-0.014249462425674939,-0.0029500000000000004,-0.03883,-0.00051,2.0407,0.9486,-9.929300000000001,4.497678277169491,10.061036445331522,12.519999504089355,12.380000114440918,12.489999771118164,12.369999885559082,10.166355031715984,10.05267423652708,10.14199497194584,10.04455395847292,10.101394549665455,0.004011326720982085,-0.800000011920929,33.32500076293945,0.0,0.0,0.0,0.0,0.0,,,,,
pylon_camera_1771859771856244948.png,1771859771856244948,1771859771.856245,42.30096867843362,-83.69732808693486,238.8849334716797,-0.02607108395661145,-0.9994990401849728,-0.010056400069031631,-0.014860554104650049,-0.020170000000000004,-0.006640000000000001,0.005270000000000001,3.2133000000000003,1.1898,-10.0138,4.615572774488858,10.324759362165107,12.75999927520752,12.65999984741211,12.739999771118164,12.75,10.361237058661825,10.280036601297226,10.34499727694584,10.353117554999999,10.334847122976223,0.0009770456101942926,-0.20000000298023224,33.375,0.0,0.0,0.0,0.0,0.0,,,,,
pylon_camera_1771859771907467715.png,1771859771907467715,1771859771.9074678,42.30096872282711,-83.69733035287783,238.88719177246094,-0.025942114338091793,-0.9994745298795757,-0.010570468679818796,-0.01630754480476331,-0.043800000000000006,-0.08458000000000002,-0.004510000000000001,2.8852,0.3256,-8.4933,4.7675208903364785,10.664658180429283,12.84999942779541,13.179999351501465,13.049999237060547,13.119999885559082,10.434318012364598,10.702280993013211,10.59671970148613,10.65356087347292,10.596719895084215,0.006370413771886459,0.10000000149011612,33.29999923706055,0.0,0.0,0.0,0.0,0.0,,,,,
pylon_camera_1771859771957229466.png,1771859771957229466,1771859771.9572296,42.300968792188236,-83.69733385643842,238.88995361328125,-0.025817104215221376,-0.9994587532531533,-0.01079892544157121,-0.0172933769085238,-0.00289,-0.05092000000000001,-0.017520000000000004,2.1066000000000003,-0.7074,-9.5,4.854876110491265,10.860066566602331,13.399999618530273,13.229999542236328,13.359999656677246,13.389999389648438,10.880923238243065,10.742881608891679,10.848442900418759,10.872802960188904,10.836262676935602,0.002191873274509404,0.4000000059604645,33.20000076293945,0.0,0.0,0.0,0.0,0.0,,,,,
pylon_camera_1771859772009080031.png,1771859772009080031,1771859772.0090802,42.300968840861394,-83.69733624898134,238.88986206054688,-0.025749854695435948,-0.9994371386485787,-0.01083836637689732,-0.01857096355566019,0.031290000000000005,-0.019550000000000005,-0.0059700000000000005,1.09,-0.0765,-9.9037,4.979262756974418,11.138312031586354,13.679999351501465,13.899999618530273,14.019999504089355,13.799999237060547,11.108285603013211,11.286927848243065,11.384368861715986,11.20572661648613,11.246327232364598,0.009697627474605765,0.4000000059604645,33.20000076293945,0.0,0.0,0.0,0.0,0.0,,,,,
pylon_camera_1771859772058067427.png,1771859772058067427,1771859772.0580676,42.30096892191725,-83.69733990356778,238.88818359375,-0.025591272207615312,-0.9994274188370292,-0.010900558188081303,-0.019263932483717133,0.05480000000000001,-0.005860000000000001,-0.009380000000000001,2.7482,1.4057000000000002,-10.8969,5.109431178982827,11.429490981513846,14.170000076293945,13.859999656677246,14.380000114440918,14.09000015258789,11.506170709351387,11.254447510418759,11.67669267652708,11.441210033702776,11.4696302325,0.0035119018905632815,0.800000011920929,33.125,0.0,0.0,0.0,0.0,0.0,,,,,
pylon_camera_1771859772110001871.png,1771859772110001871,1771859772.1100018,42.3009689764201,-83.6973423982739,238.8863983154297,-0.025470290774826043,-0.9994171509761851,-0.010531490443363555,-0.02014225239470183,-0.0048600000000000015,-0.030550000000000004,-0.011380000000000001,3.0331,0.39730000000000004,-8.812100000000001,5.218795555198197,11.674132529245055,14.380000114440918,14.319999694824219,14.4399995803833,14.389999389648438,11.67669267652708,11.627971782594452,11.725412796067372,11.684812180188905,11.678722358844453,0.00039316236884412507,1.0,33.025001525878906,0.0,0.0,0.0,0.0,0.0,,,,,
pylon_camera_1771859772159880511.png,1771859772159880511,1771859772.1598804,42.30096905564098,-83.69734622037045,238.88262939453125,-0.025392264109876883,-0.9994049004427539,-0.010935742640590563,-0.020627346588505478,-0.03311000000000001,-0.025980000000000003,-0.004620000000000001,2.932,0.0013000000000000002,-8.8061,5.3308904477033145,11.924882078085453,14.65999984741211,14.65999984741211,14.799999237060547,14.589999198913574,11.904055041297227,11.904055041297227,12.01773583648613,11.847213869310437,11.918264947097756,0.0005549011675224745,1.100000023841858,33.22500228881836,0.0,0.0,0.0,0.0,0.0,,,,,
pylon_camera_1771859772213227168.png,1771859772213227168,1771859772.2132273,42.30096913397435,-83.6973501320526,238.87796020507812,-0.025265145545526946,-0.9993949203434944,-0.011311945291749271,-0.021059570411103776,-0.00051,-0.006240000000000001,-0.00591,2.5875,-0.4738,-10.5348,5.433405116926305,12.154201242257129,15.079999923706055,14.899999618530273,15.029999732971191,15.199999809265137,12.245098975648615,12.098937068243064,12.204498359770147,12.342539989121533,12.22276859819584,0.005641453072236422,1.100000023841858,33.29999923706055,0.0,0.0,0.0,0.0,0.0,,,,,
pylon_camera_1771859772272133580.png,1771859772272133580,1771859772.2721336,42.30096918717233,-83.69735279188288,238.87403869628906,-0.025129686748707858,-0.9993755747230084,-0.011994045356468187,-0.021750916462430964,-0.01693,-0.009640000000000001,0.0020900000000000003,0.38430000000000003,-1.2869000000000002,-10.8134,5.55911341896159,12.43540317141194,15.639999389648438,15.429999351501465,15.529999732971191,15.639999389648438,12.699823705188903,12.529301738013212,12.610502969770145,12.699823705188903,12.634863029540291,0.016039677634810814,0.800000011920929,32.97500228881836,0.0,0.0,0.0,0.0,0.0,,,,,
pylon_camera_1771859772314297614.png,1771859772314297614,1771859772.3142977,42.30096926337884,-83.69735686887101,238.86724853515625,-0.02512126299023837,-0.9993602134665163,-0.012575486829427239,-0.022134656467566276,-0.024720000000000002,-0.05102000000000001,0.005260000000000001,1.7767000000000002,1.6913,-10.5051,5.672719954590808,12.689534175222363,15.789999961853027,15.389999389648438,15.50999927520752,15.729999542236328,12.821625552824306,12.496821400188903,12.594262413661824,12.772904658891678,12.671403506391677,0.0014287891565072709,0.800000011920929,33.025001525878906,0.0,0.0,0.0,0.0,0.0,,,,,
pylon_camera_1771859772364008023.png,1771859772364008023,1771859772.364008,42.30096931674629,-83.69735963975283,238.86233520507812,-0.025009239670833627,-0.9993601603541189,-0.012278457303237537,-0.022428716288040454,-0.013250000000000001,-0.0488,-0.007060000000000001,3.4812000000000003,-1.077,-9.91,5.799056699169599,12.972141892640444,15.979999542236328,15.839999198913574,15.989999771118164,16.029998779296875,12.975906963891678,12.862225394310435,12.98402724194584,13.016506805377809,12.959666601381441,0.0009616986433119888,1.100000023841858,31.125,0.0,0.0,0.0,0.0,0.0,,,,,
pylon_camera_1771859772414957886.png,1771859772414957886,1771859772.4149578,42.30096940445854,-83.69736388100074,238.85662841796875,-0.024934925377410155,-0.9993336032291344,-0.012191632407800516,-0.023705759906211172,0.008600000000000002,-0.06457,-0.019610000000000002,2.0143,-0.19440000000000002,-10.352,5.891996938452234,13.180043631501341,16.190000534057617,16.15999984741211,16.190000534057617,16.279998779296875,13.14642970545971,13.122068871297225,13.14642970545971,13.219509110377807,13.158609348148612,0.0016262680118523574,1.2000000476837158,29.899999618530273,0.0,0.0,0.0,0.0,0.0,,,,,
pylon_camera_1771859772464979870.png,1771859772464979870,1771859772.46498,42.30096946318691,-83.69736675886087,238.8530731201172,-0.024799729636338086,-0.9993259959939944,-0.012127712849305857,-0.02419598565093696,-0.029250000000000005,0.022300000000000004,-0.018660000000000003,1.7571,-1.0411000000000001,-9.723700000000001,5.966704803112759,13.347160642275057,16.459999084472656,16.690000534057617,16.520000457763672,16.760000228881836,13.365671017783358,13.55243431545971,13.414392686108322,13.609274713054162,13.485443183101388,0.01036044628011317,1.399999976158142,30.05000114440918,0.0,0.0,0.0,0.0,0.0,,,,,
pylon_camera_1771859772514663308.png,1771859772514663308,1771859772.5146635,42.3009695557931,-83.69737113338223,238.84591674804688,-0.024620680888567614,-0.9993398809595544,-0.011870918693153631,-0.023931270039578893,0.027900000000000005,0.013810000000000001,-0.018140000000000003,1.3692,-2.1991,-9.816600000000001,6.064219265002244,13.56529464265412,16.779998779296875,16.889999389648438,16.94999885559082,16.889999389648438,13.625513720377807,13.714835230188905,13.763555349729195,13.714835230188905,13.704684882621203,0.010275504044622123,1.600000023841858,29.92500114440918,0.0,0.0,0.0,0.0,0.0,,,,,
pylon_camera_1771859772562821223.png,1771859772562821223,1771859772.5628211,42.30096962524238,-83.69737409203887,238.8415069580078,-0.024365197989843157,-0.9993562773078306,-0.012123889929424352,-0.023374760433623867,0.0594,0.020670000000000004,-0.033060000000000006,1.6638000000000002,-1.1944000000000001,-9.8407,6.161815115778269,13.78361070508904,17.459999084472656,17.1299991607666,17.350000381469727,17.239999771118164,14.177680237783356,13.909717257134744,14.088360276756935,13.999038766945839,14.043699134655219,0.018869397513537632,1.600000023841858,29.950000762939453,0.0,0.0,0.0,0.0,0.0,,,,,
pylon_camera_1771859772614031393.png,1771859772614031393,1771859772.6140313,42.30096971939321,-83.6973786099783,238.83380126953125,-0.024112557115349986,-0.9993729134391691,-0.012200555816194426,-0.022880360819746703,0.021730000000000003,0.008060000000000001,-0.03463,0.6466000000000001,-0.13,-9.602500000000001,6.266706520688553,14.018246484389053,17.40999984741211,17.479999542236328,17.459999084472656,17.65999984741211,14.137080396297227,14.193920793891678,14.177680237783356,14.340082701297225,14.212191032317373,0.01383515036237232,1.3000000715255737,30.075000762939453,0.0,0.0,0.0,0.0,0.0,,,,,
pylon_camera_1771859772664078342.png,1771859772664078342,1771859772.6640782,42.3009697746278,-83.69738166791137,238.8292236328125,-0.023893893844810332,-0.9993811837072667,-0.012247882345010536,-0.02272269497348591,-0.007570000000000001,-0.007360000000000001,-0.020310000000000005,1.0923,-1.4425000000000001,-9.551300000000001,6.366378323905101,14.241206327876277,17.68000030517578,17.770000457763672,17.739999771118164,17.690000534057617,14.356323257405549,14.429404211108324,14.405043376945839,14.36444353545971,14.388803595229856,0.01036409865536925,1.2000000476837158,29.899999618530273,0.0,0.0,0.0,0.0,0.0,,,,,
pylon_camera_1771859772715235350.png,1771859772715235350,1771859772.7152352,42.300969853509024,-83.69738632566359,238.8209991455078,-0.02380658528345514,-0.9993811927926981,-0.012879418974887818,-0.022463271272338256,-0.012490000000000003,0.007490000000000002,-0.009650000000000002,1.2757,0.31120000000000003,-9.342500000000001,6.455917790253032,14.44150074172862,18.029998779296875,18.010000228881836,18.139999389648438,18.139999389648438,14.640525245377807,14.624286238054161,14.729846755188905,14.729846755188905,14.681126248452443,0.016592839692306193,1.3000000715255737,29.975000381469727,0.0,0.0,0.0,0.0,0.0,,,,,
pylon_camera_1771859772765006013.png,1771859772765006013,1771859772.765006,42.30096991257274,-83.69738948050421,238.8142852783203,-0.02374342704325244,-0.9993892413949721,-0.013379657321320002,-0.021871868374420855,0.04859000000000001,0.02441,-0.023540000000000002,1.9615,0.38380000000000003,-8.9205,6.546070031203445,14.643165895600236,18.440000534057617,18.350000381469727,18.420000076293945,18.399999618530273,14.97345045045971,14.900369496756936,14.957209894351388,14.940969338243065,14.942999794952774,0.020476029670785087,1.3000000715255737,30.225000381469727,0.0,0.0,0.0,0.0,0.0,,,,,
pylon_camera_1771859772816163279.png,1771859772816163279,1771859772.8161633,42.30096999615476,-83.69739426643896,238.8052520751953,-0.02371547985788036,-0.9993985078427153,-0.013287674503738056,-0.02153221407906745,0.09487000000000001,-0.019240000000000004,-0.010750000000000001,1.2116,4.0758,-8.422,6.646262695346398,14.867290873728173,18.459999084472656,18.5,18.59000015258789,18.889999389648438,14.989689457783356,15.02217057,15.095251523702775,15.338853670188904,15.111491305418758,0.016425348354629204,1.399999976158142,30.075000762939453,0.0,0.0,0.0,0.0,0.0,,,,,
pylon_camera_1771859772866041026.png,1771859772866041026,1771859772.8660412,42.3009700584267,-83.69739749943226,238.7978057861328,-0.02348166939300045,-0.99942493740215,-0.012944692067673697,-0.02075670129137686,0.029830000000000002,0.022300000000000004,-0.00651,1.7778,3.4402000000000004,-7.0385,6.724337362923483,15.041939220618056,18.799999237060547,18.84000015258789,18.719999313354492,18.989999771118164,15.26577271648613,15.298253828702775,15.200812040837517,15.42005490194584,15.296223371993065,0.016905011225311975,1.399999976158142,30.17500114440918,0.0,0.0,0.0,0.0,0.0,,,,,
pylon_camera_1771859772917068940.png,1771859772917068940,1771859772.917069,42.30097016555124,-83.69740240915725,238.7860565185547,-0.023060623393172552,-0.9994474040198683,-0.012606646177409506,-0.020351086428543955,-0.031650000000000005,0.007060000000000001,-0.012660000000000001,1.3914,-1.243,-13.433100000000001,6.797312734538053,15.205180748397554,19.049999237060547,19.059999465942383,18.81999969482422,19.020000457763672,15.46877502148613,15.476895299540292,15.282013272594453,15.444415736108322,15.418024832432298,0.013998129161152874,1.399999976158142,29.899999618530273,0.0,0.0,0.0,0.0,0.0,,,,,
pylon_camera_1771859772966989267.png,1771859772966989267,1771859772.9669893,42.30097022594926,-83.69740572134486,238.78369140625,-0.02279599452573433,-0.999454168733042,-0.01254640834487678,-0.02035423477731638,-0.029690000000000005,0.0034700000000000004,-0.011920000000000002,0.4783,-1.7058,-11.4704,6.882002291460269,15.394626205859135,19.209999084472656,19.19999885559082,19.15999984741211,19.189998626708984,15.598696372783357,15.590576094729194,15.558096531297227,15.582455816675035,15.582456203871203,0.012201010631916543,1.7000000476837158,30.05000114440918,0.0,0.0,0.0,0.0,0.0,,,,,
pylon_camera_1771859773017987605.png,1771859773017987605,1771859773.0179875,42.30097031614182,-83.6974107634053,238.78189086914062,-0.022693683252150487,-0.9994424393678754,-0.012578933792686441,-0.021013746821571224,0.00604,-0.026490000000000003,0.006630000000000001,-0.9548000000000001,-0.7972,-9.911100000000001,6.972255668360312,15.596517594781917,19.479999542236328,19.510000228881836,19.53999900817871,19.44999885559082,15.817939233891678,15.842300068054161,15.866659353431968,15.793578399729196,15.830119263776751,0.01497780947414763,1.899999976158142,30.450000762939453,0.0,0.0,0.0,0.0,0.0,,,,,
pylon_camera_1771859773067963153.png,1771859773067963153,1771859773.0679631,42.30097038079495,-83.6974141707191,238.7805633544922,-0.022546247187821777,-0.9994447915898209,-0.012530748281707036,-0.02108923064564684,0.05437000000000001,0.01893,-0.01997,0.9015000000000001,-1.1989,-9.5164,7.05297684134748,15.777086015483832,19.81999969482422,19.779998779296875,19.78999900817871,19.689998626708984,16.094022492594455,16.061541380377808,16.06966165843197,15.988460426675033,16.053421489519817,0.017514988114077975,1.7000000476837158,30.05000114440918,0.0,0.0,0.0,0.0,0.0,,,,,
pylon_camera_1771859773119348520.png,1771859773119348520,1771859773.1193485,42.30097046976081,-83.69741933100337,238.77784729003906,-0.02241480855376371,-0.9994388012874483,-0.012505891382253713,-0.021523510850732272,0.05580000000000001,-0.0006100000000000001,-0.01983,1.4915,0.5882000000000001,-8.8489,7.15727383331343,16.010392128692146,20.03999900817871,19.899999618530273,19.939998626708984,19.920000076293945,16.27266396343197,16.158983168243065,16.191462731675035,16.175223724351387,16.199583396925362,0.011816779171458732,1.3000000715255737,29.825000762939453,0.0,0.0,0.0,0.0,0.0,,,,,
pylon_camera_1771859773170287286.png,1771859773170287286,1771859773.1702874,42.30097052198008,-83.69742281387336,238.7752227783203,-0.022272579021925032,-0.9994223383119489,-0.012671290151932971,-0.02232398514319827,-0.006960000000000001,-0.014130000000000002,-0.010960000000000001,1.0633000000000001,1.7414,-8.4772,7.236360587606452,16.187304452840376,20.1299991607666,20.189998626708984,20.06999969482422,20.119998931884766,16.34574491713474,16.394465036675037,16.297024797594453,16.337624639080584,16.343714847621204,0.00966253493510975,1.100000023841858,29.5,0.0,0.0,0.0,0.0,0.0,,,,,
pylon_camera_1771859773224367203.png,1771859773224367203,1771859773.2243671,42.30097060870886,-83.69742809887191,238.7688751220703,-0.0220612723256014,-0.99940096803005,-0.013056435971658596,-0.02324940523308998,-0.04626,-0.0037,-0.00872,0.8967,-0.4692,-8.498800000000001,7.315338472909253,16.363973243589626,20.299999237060547,20.44999885559082,20.279998779296875,20.3799991607666,16.48378654648613,16.605587619729196,16.467545990377808,16.548747222134743,16.526416844681968,0.009926904589383691,1.100000023841858,29.850000381469727,0.0,0.0,0.0,0.0,0.0,,,,,
pylon_camera_1771859773273034159.png,1771859773273034159,1771859773.2730343,42.300970693509896,-83.69743345338692,238.7590789794922,-0.02189816877272449,-0.9993731250923523,-0.013588370775953955,-0.0242730967781628,-0.050640000000000004,-0.03558000000000001,0.0037200000000000006,-0.8206,-0.5403,-10.4313,7.396056828934353,16.544535362916413,20.5,20.579999923706055,20.329999923706055,20.59000015258789,16.64618901,16.711149685648614,16.508147380648612,16.719269963702775,16.64618901,0.0061442430901648614,1.100000023841858,29.67500114440918,0.0,0.0,0.0,0.0,0.0,,,,,
pylon_camera_1771859773324129009.png,1771859773324129009,1771859773.324129,42.300970756392964,-83.69743704968499,238.75228881835938,-0.0217462675837381,-0.9993622747323612,-0.013667291539309278,-0.024806225628195993,-0.007850000000000001,-0.01156,0.0028300000000000005,-0.0325,0.3632,-9.539100000000001,7.470365419322693,16.710759221099707,20.8799991607666,20.770000457763672,20.600000381469727,20.719999313354492,16.954751832134743,16.86543187110832,16.727390241756936,16.824830480837516,16.84310110645938,0.007919561499789408,1.100000023841858,29.649999618530273,0.0,0.0,0.0,0.0,0.0,,,,,
pylon_camera_1771859773373763572.png,1771859773373763572,1771859773.3737636,42.30097084858118,-83.69744251036104,238.7437744140625,-0.02163932753812997,-0.9993433858830572,-0.013882766570831019,-0.025530479584698607,0.01314,-0.03196,-0.00099,0.5909,2.0251,-9.8535,7.548377541488866,16.885267657658105,20.959999084472656,20.899999618530273,20.889999389648438,20.829999923706055,17.019712507783357,16.970992388243065,16.962872110188904,16.914151990648616,16.966932249215986,0.00483644045292014,1.3000000715255737,29.475000381469727,0.0,0.0,0.0,0.0,0.0,,,,,
pylon_camera_1771859773424716521.png,1771859773424716521,1771859773.4247165,42.300970916110124,-83.69744619533323,238.73956298828125,-0.02149061332922697,-0.9993302670034333,-0.013604159587276232,-0.026307752308096153,0.03830000000000001,-0.038590000000000006,-0.009580000000000002,1.5059,1.6463,-11.3216,7.636019489897438,17.081317437731176,21.100000381469727,21.119998931884766,21.19999885559082,21.06999969482422,17.133394851756936,17.14963385908058,17.214594534729194,17.109034017594453,17.151664315790292,0.004118352013277712,1.5,29.575000762939453,0.0,0.0,0.0,0.0,0.0,,,,,
pylon_camera_1771859773474703452.png,1771859773474703452,1771859773.4747033,42.30097101655899,-83.697451773848,238.7360076904297,-0.021409818610664544,-0.9993007758073211,-0.012862239593156216,-0.027823406164471067,0.06870000000000001,-0.07464000000000001,-0.013990000000000002,1.1649,1.802,-9.2203,7.711779363733481,17.250787729909973,21.279998779296875,21.239999771118164,21.639999389648438,21.479999542236328,17.279555210377808,17.247075646945838,17.571879025188903,17.44195767389168,17.385116889101056,0.007786842044214505,1.5,29.649999618530273,0.0,0.0,0.0,0.0,0.0,,,,,
pylon_camera_1771859773524698588.png,1771859773524698588,1771859773.5246987,42.30097108730409,-83.69745553597014,238.7332763671875,-0.02118008970513796,-0.9992703821386247,-0.01195825480370642,-0.02944668610656737,0.09621000000000002,-0.09031000000000002,-0.027460000000000002,1.2798,1.6338000000000001,-9.344100000000001,7.8002179207744975,17.448619475697306,21.529998779296875,21.619998931884766,21.459999084472656,21.689998626708984,17.48255751537781,17.55563846908058,17.425717117783357,17.612478866675033,17.519097992229195,0.004039203022912636,1.3000000715255737,29.200000762939453,0.0,0.0,0.0,0.0,0.0,,,,,
pylon_camera_1771859773574442337.png,1771859773574442337,1771859773.5744421,42.30097121062546,-83.69746121458846,238.72311401367188,-0.02098469444481338,-0.9992534705447595,-0.01132872260561703,-0.030394148243306617,0.008110000000000001,-0.06415000000000001,-0.022260000000000002,1.7944,-0.232,-7.486800000000001,7.858799166620948,17.579662207781062,21.78999900817871,21.8799991607666,21.90999984741211,21.93000030517578,17.69368009843197,17.766761052134743,17.791121886297226,17.807362442405548,17.76473136981737,0.010527458369159774,1.2000000476837158,29.25,0.0,0.0,0.0,0.0,0.0,,,,,
pylon_camera_1771859773625791506.png,1771859773625791506,1771859773.6257915,42.300971283642816,-83.69746502166407,238.71224975585938,-0.02082154787567697,-0.9992579785270732,-0.01162354221440571,-0.030246466908350724,-0.04490000000000001,0.01589,-0.0028700000000000006,0.7475,-0.4389,-7.4318,7.895963469559509,17.662796523596448,22.059999465942383,22.06999969482422,22.1299991607666,22.1299991607666,17.912922959540293,17.921043237594454,17.96976335713474,17.96976335713474,17.943373227851055,0.01588518012307806,1.2000000476837158,29.25,0.0,0.0,0.0,0.0,0.0,,,,,
pylon_camera_1771859773673830135.png,1771859773673830135,1771859773.67383,42.300971383804466,-83.6974707700752,238.6915283203125,-0.020690847604343143,-0.9992928465587614,-0.012163316751991966,-0.028943900350371966,-0.03230000000000001,0.05618000000000001,0.006070000000000001,-0.0747,0.5482,-10.136800000000001,7.948970421352237,17.781369894339672,22.309999465942383,22.299999237060547,22.28999900817871,22.309999465942383,18.11592526454029,18.107804986486133,18.09968470843197,18.11592526454029,18.10983505599967,0.018472432867197637,1.2000000476837158,29.475000381469727,0.0,0.0,0.0,0.0,0.0,,,,,
pylon_camera_1771859773724693855.png,1771859773724693855,1771859773.7246938,42.30097144069177,-83.69747463949537,238.6782989501953,-0.020588921159669316,-0.9993447323867605,-0.012396802360977616,-0.027065133798626472,-0.005470000000000001,0.07913000000000002,-0.0005400000000000001,1.0463,0.6166,-10.8407,8.020717585632113,17.9418639960039,22.559999465942383,22.619998931884766,22.53999900817871,22.420000076293945,18.318927569540293,18.36764768908058,18.302687013431967,18.205246774351387,18.298627261601055,0.019884403631451886,1.2000000476837158,28.80000114440918,0.0,0.0,0.0,0.0,0.0,,,,,
pylon_camera_1771859773774433473.png,1771859773774433473,1771859773.7744336,42.30097152856731,-83.6974804942292,238.6617889404297,-0.020455129304399466,-0.999383225097161,-0.012503544617506475,-0.025659665850034926,-0.00992,0.028030000000000006,-0.00206,1.3425,1.0707,-11.836300000000001,8.101438705251782,18.122432297325922,22.75,22.719999313354492,22.69999885559082,22.760000228881836,18.473209755000003,18.448848920837516,18.432608364729198,18.481330033054164,18.458999268405222,0.018571843202800243,1.2000000476837158,25.5,0.0,0.0,0.0,0.0,0.0,,,,,
pylon_camera_1771859773825420999.png,1771859773825420999,1771859773.825421,42.300971586655685,-83.69748442771505,238.65289306640625,-0.02026805671019294,-0.999412416378429,-0.012386597239288703,-0.024710323240574594,-0.00198,0.008640000000000002,-0.008620000000000001,0.5051,0.37510000000000004,-10.1285,8.1694034137474,18.27446527234811,22.8799991607666,22.8799991607666,22.969999313354492,22.969999313354492,18.578770272134744,18.578770272134744,18.651851225837518,18.651851225837518,18.615310748986133,0.018651461017235412,1.2000000476837158,22.225000381469727,0.0,0.0,0.0,0.0,0.0,,,,,
pylon_camera_1771859773875159764.png,1771859773875159764,1771859773.8751597,42.30097168934524,-83.69749037767221,238.64039611816406,-0.020069992602820275,-0.9994431502102369,-0.012393785617293717,-0.023600401963380424,-0.0017200000000000004,0.05363000000000001,-0.0025700000000000007,0.4833,1.9398000000000002,-8.2674,8.221153769843054,18.390227713912722,23.149999618530273,23.15999984741211,23.18000030517578,23.049999237060547,18.798013133243067,18.80613341129723,18.822373967405547,18.716811901486132,18.785833103357994,0.02151171783185619,1.3000000715255737,22.274999618530273,0.0,0.0,0.0,0.0,0.0,,,,,
pylon_camera_1771859773926194731.png,1771859773926194731,1771859773.9261947,42.300971768181846,-83.6974943663589,238.63027954101562,-0.019820786946708857,-0.999485554288609,-0.012048894477003151,-0.022149205743945934,-0.01386,0.06659000000000001,0.01137,-0.1072,3.0447,-9.4092,8.276086963744701,18.51310997267907,23.279998779296875,23.34000015258789,23.350000381469727,23.299999237060547,18.90357365037781,18.952295318702777,18.960415596756935,18.91981420648613,18.934024693080914,0.02273603522168952,1.399999976158142,22.200000762939453,0.0,0.0,0.0,0.0,0.0,,,,,
pylon_camera_1771859773976172767.png,1771859773976172767,1771859773.9761727,42.30097187897201,-83.69750040955591,238.6151580810547,-0.019486404623742903,-0.9995333339414689,-0.011460615312177643,-0.02054382319234094,0.006440000000000001,0.06701,-0.0006300000000000001,1.5236,0.7142000000000001,-10.0023,8.35455641971932,18.688641437526936,23.35999870300293,23.399999618530273,23.44999885559082,23.350000381469727,18.968534326026422,19.001015438243066,19.041615279729196,18.960415596756935,18.992895160188905,0.01628014126543328,1.5,22.075000762939453,0.0,0.0,0.0,0.0,0.0,,,,,
pylon_camera_1771859774026909865.png,1771859774026909865,1771859774.02691,42.30097194582389,-83.69750447792987,238.6063995361328,-0.01922334315626767,-0.9995538909141208,-0.010946738746801497,-0.020066169219543815,0.012190000000000003,0.028100000000000003,-0.01043,1.7065000000000001,-0.8531000000000001,-10.0945,8.434129391927124,18.86664140197746,23.489999771118164,23.56999969482422,23.44999885559082,23.5,19.07409639194584,19.13905706759445,19.041615279729196,19.08221667,19.084246352317372,0.011533846735280802,1.5,22.375,0.0,0.0,0.0,0.0,0.0,,,,,
pylon_camera_1771859774077033710.png,1771859774077033710,1771859774.0770338,42.30097204418393,-83.69751062446261,238.59776306152344,-0.018996133111382596,-0.9995463851816555,-0.010792264126558473,-0.020729154158399914,-0.00396,-0.03583000000000001,-0.00961,0.876,-1.3219,-11.2512,8.503140344529639,19.021014762292133,23.649999618530273,23.6299991607666,23.579999923706055,23.59000015258789,19.204017743243067,19.187777187134742,19.14717734564861,19.155297623702776,19.1735674749323,0.008020219454463308,1.5,22.600000381469727,0.0,0.0,0.0,0.0,0.0,,,,,
pylon_camera_1771859774128336083.png,1771859774128336083,1771859774.1283362,42.300972107002536,-83.69751475397159,238.5939483642578,-0.01882940985611231,-0.9995097825200909,-0.011020775209675737,-0.022454186355528986,-0.006540000000000001,-0.051230000000000005,-0.003920000000000001,0.4667,-0.2856,-10.574300000000001,8.56749981136218,19.16498302802852,23.69999885559082,23.689998626708984,23.729999542236328,23.84000015258789,19.244617584729195,19.236497306675037,19.26897841889168,19.358299928702774,19.27709830974967,0.005850006835757973,1.399999976158142,22.850000381469727,0.0,0.0,0.0,0.0,0.0,,,,,
pylon_camera_1771859774178342895.png,1771859774178342895,1771859774.1783428,42.30097219048992,-83.69752098569259,238.59083557128906,-0.01871080220048188,-0.9994731163078222,-0.011190711800752207,-0.024045033340325952,-0.00613,-0.06522000000000001,-0.004280000000000001,0.0922,-0.7532,-10.4578,8.60591157153284,19.250907830824673,23.799999237060547,23.90999984741211,23.8799991607666,23.8799991607666,19.32581881648613,19.415140326297227,19.390779492134744,19.390779492134744,19.38062953176321,0.006738471872522523,1.399999976158142,22.700000762939453,0.0,0.0,0.0,0.0,0.0,,,,,
pylon_camera_1771859774229184236.png,1771859774229184236,1771859774.2291842,42.30097224630791,-83.69752515276902,238.58966064453125,-0.018572321165438388,-0.9994426591777865,-0.011514568009792697,-0.025235978794376706,-0.0012600000000000003,-0.04689,-0.009640000000000001,0.2842,-0.2873,-9.976,8.64137367984718,19.33023443939735,24.010000228881836,23.989999771118164,24.100000381469727,24.029998779296875,19.496341558054162,19.48010100194584,19.569422511756937,19.51258056537781,19.514611409283688,0.009538268688069005,1.399999976158142,23.075000762939453,0.0,0.0,0.0,0.0,0.0,,,,,
pylon_camera_1771859774279211751.png,1771859774279211751,1771859774.2792118,42.3009723216855,-83.6975314365909,238.58668518066406,-0.018379216322173986,-0.9994235277099852,-0.011706301195148691,-0.026034192506001936,-0.003,-0.03155,-0.010610000000000003,0.5315,-0.4792,-10.3435,8.682554742055954,19.422354004694647,24.06999969482422,24.15999984741211,24.15999984741211,24.26999855041504,19.54506167759445,19.618142631297225,19.618142631297225,19.707462592323647,19.622202383128137,0.010289606418726796,1.399999976158142,22.80000114440918,0.0,0.0,0.0,0.0,0.0,,,,,
pylon_camera_1771859774331671503.png,1771859774331671503,1771859774.3316715,42.30097237582972,-83.6975356441645,238.58314514160156,-0.01814866714018759,-0.9994188921738056,-0.011674560391321764,-0.026385762956318923,0.0166,-0.00192,-0.019500000000000003,0.7988000000000001,-0.6159,-7.6855,8.718911906814546,19.50368280082973,24.189998626708984,24.209999084472656,24.35999870300293,24.399999618530273,19.642501916675034,19.658742472783356,19.780543546026422,19.813024658243066,19.72370314843197,0.011280964208097153,1.3000000715255737,22.649999618530273,0.0,0.0,0.0,0.0,0.0,,,,,
pylon_camera_1771859774383750347.png,1771859774383750347,1771859774.3837504,42.30097245480816,-83.69754196948986,238.5736083984375,-0.017862280771119676,-0.9994374748331247,-0.011696911788866168,-0.02586223268482994,0.0070100000000000015,0.03262,-0.016700000000000003,1.1794,0.18660000000000002,-8.416400000000001,8.744369719407983,19.560630400132496,24.6299991607666,24.549999237060547,24.53999900817871,24.51999855041504,19.999786407134746,19.93482573148613,19.92670545343197,19.910464897323646,19.942945622344123,0.019545138085582222,1.2000000476837158,22.700000762939453,0.0,0.0,0.0,0.0,0.0,,,,,
pylon_camera_1771859774434738741.png,1771859774434738741,1771859774.4347386,42.30097254842569,-83.69754829192534,238.55816650390625,-0.017568087191229487,-0.9994942044797903,-0.010647639651238695,-0.02427602301881533,0.10244000000000002,0.16503000000000004,-0.027570000000000004,-0.5191,0.328,-8.551300000000001,8.705660284752518,19.4740397173743,25.420000076293945,25.119998931884766,24.56999969482422,24.559999465942383,20.641274434351388,20.397670739080585,19.951066287594454,19.94294600954029,20.23323936764168,0.03898521628206598,1.0,23.024999618530273,0.0,0.0,0.0,0.0,0.0,,,,,
pylon_camera_1771859774484780177.png,1771859774484780177,1771859774.4847803,42.3009726148778,-83.69755252023707,238.5462188720703,-0.017284345009834834,-0.9995732956667184,-0.009708023829233688,-0.021453024982205197,0.05130000000000001,0.12965000000000002,-0.013040000000000001,-1.8299,2.8986,-12.6036,8.759286758950841,19.593998922567497,25.10999870300293,24.959999084472656,24.76999855041504,24.739999771118164,20.38955046102642,20.267749387783354,20.113467202323648,20.08910791694584,20.214968742019813,0.03169183697040582,1.399999976158142,13.824999809265137,0.0,0.0,0.0,0.0,0.0,,,,,
pylon_camera_1771859774534086793.png,1771859774534086793,1771859774.534087,42.300972709801414,-83.69755890186377,238.5301513671875,-0.01693416409783899,-0.9996400341135944,-0.009112419594537107,-0.018708289414384495,-0.020010000000000003,0.07403000000000001,-0.004950000000000001,0.1101,0.5347000000000001,-11.4589,8.82992586582284,19.752014366293746,24.869998931884766,24.959999084472656,24.93000030517578,24.93000030517578,20.194668434080583,20.267749387783354,20.24339010240555,20.24339010240555,20.23729950666876,0.024568893651836222,1.3000000715255737,0.0,0.0,0.0,0.0,0.0,0.0,,,,,
pylon_camera_1771859774583540522.png,1771859774583540522,1771859774.5835404,42.30097277066242,-83.69756318568324,238.5222625732422,-0.016676786556403367,-0.9996612025143188,-0.009298667503842523,-0.017688972848391025,-0.03656000000000001,0.018650000000000003,-0.0032000000000000006,0.8963000000000001,-0.24630000000000002,-9.8248,8.907092259043987,19.92463095794586,24.93000030517578,24.889999389648438,24.850000381469727,24.90999984741211,20.24339010240555,20.210908990188905,20.178429426756935,20.227149546297223,20.214969516412154,0.014571841208958998,0.9000000357627869,0.0,0.0,0.0,0.0,0.0,0.0,,,,,
pylon_camera_1771859774634798051.png,1771859774634798051,1771859774.634798,42.300972845267836,-83.69756968133767,238.5146942138672,-0.016550517675738563,-0.9996435551300695,-0.009698190020304313,-0.018568472255711368,-0.023280000000000002,-0.05861000000000001,0.0031700000000000005,0.599,0.36970000000000003,-10.339400000000001,8.9841196326888,20.096936571146887,24.93000030517578,24.85999870300293,24.93000030517578,24.969999313354492,20.24339010240555,20.18654815602642,20.24339010240555,20.27586966583752,20.23729950666876,0.0069842950951733524,-0.10000000149011612,0.0,0.0,0.0,0.0,0.0,0.0,,,,,
pylon_camera_1771859774683034970.png,1771859774683034970,1771859774.683035,42.3009728842124,-83.69757404709263,238.51124572753906,-0.016517014843656364,-0.9995987129285389,-0.009885301957617453,-0.02078177416558682,-0.019610000000000002,-0.10276000000000002,-0.0005900000000000001,0.33190000000000003,-0.054700000000000006,-10.068900000000001,9.031882345149516,20.20377889315876,24.90999984741211,24.869998931884766,24.94999885559082,24.969999313354492,20.227149546297223,20.194668434080583,20.259629109729193,20.27586966583752,20.23932918898613,0.0017595864622834544,-0.699999988079071,0.0,0.0,0.0,0.0,0.0,0.0,,,,,
pylon_camera_1771859774733828225.png,1771859774733828225,1771859774.7338283,42.300972954304676,-83.69758061271335,238.5052490234375,-0.016603941723254023,-0.9995506322335466,-0.009722003715812286,-0.022985329332378672,0.022960000000000005,-0.04333,-0.0035800000000000007,0.7482000000000001,1.4433,-6.9527,9.047877581104258,20.239559276275358,25.079999923706055,24.969999313354492,24.25,24.670000076293945,20.365191175648615,20.27586966583752,19.691223585,20.03226751935139,20.091137986459383,0.007333227358856222,-1.3000000715255737,0.0,0.0,0.0,0.0,0.0,0.0,,,,,
pylon_camera_1771859774783607388.png,1771859774783607388,1771859774.7836072,42.300972999731826,-83.69758499536778,238.50604248046875,-0.016441673506228716,-0.9994638129374089,-0.009141574881581887,-0.02679905986439176,0.01314,-0.16202000000000003,-0.005930000000000001,-1.8708,0.48260000000000003,-12.802100000000001,9.041943184570812,20.226284387293834,24.729999542236328,24.969999313354492,24.779998779296875,24.779998779296875,20.08098763889168,20.27586966583752,20.12158748037781,20.12158748037781,20.150008066371207,0.0037711484453636967,-1.2000000476837158,0.0,0.0,0.0,0.0,0.0,0.0,,,,,
pylon_camera_1771859774835208026.png,1771859774835208026,1771859774.835208,42.30097307942565,-83.69759157939848,238.51165771484375,-0.01636599479463957,-0.9993739746839339,-0.008524036527285495,-0.03018532325649877,-0.06035000000000001,-0.20169,0.0007600000000000002,-3.8147,-2.5095,-8.8609,9.062172723698042,20.2715366525491,24.889999389648438,24.989999771118164,25.25,25.149999618530273,20.210908990188905,20.29211022194584,20.503232805,20.422031573243064,20.35707089759445,0.004219425814204187,-0.20000000298023224,0.0,0.0,0.0,0.0,0.0,0.0,,,,,
pylon_camera_1771859774885044732.png,1771859774885044732,1771859774.8850448,42.30097313147031,-83.69759594456076,238.51133728027344,-0.016281475099488407,-0.9993429750067471,-0.008507445603819858,-0.031243483201251778,0.06317000000000002,0.0012700000000000003,0.00693,-0.2141,-0.0597,-6.430000000000001,9.025295261728356,20.18904398277063,24.889999389648438,25.1299991607666,25.309999465942383,25.229999542236328,20.210908990188905,20.405791017134746,20.551952924540288,20.486992248891678,20.413911295188903,0.011138086212015511,-0.6000000238418579,0.0,0.0,0.0,0.0,0.0,0.0,,,,,
pylon_camera_1771859774935996002.png,1771859774935996002,1771859774.9359958,42.30097320457236,-83.69760248651711,238.50062561035156,-0.016190499328463892,-0.9993693859178681,-0.00810120790960814,-0.03054617246143335,0.014990000000000002,0.04573000000000001,-0.011790000000000002,0.09630000000000001,0.1713,-7.484100000000001,8.993932389125993,20.1188871185315,25.010000228881836,25.31999969482422,25.399999618530273,25.309999465942383,20.30835077805416,20.560073202594452,20.625033878243066,20.551952924540288,20.511352695857994,0.019507320410630163,-0.800000011920929,0.0,0.0,0.0,0.0,0.0,0.0,,,,,
pylon_camera_1771859774986015473.png,1771859774986015473,1771859774.9860156,42.300973250518005,-83.6976068379813,238.48785400390625,-0.016199653880496323,-0.9994199129331742,-0.00835889493042333,-0.02876695538878978,0.009440000000000002,0.12069,-0.0026800000000000005,-0.8284,-0.1579,-6.896100000000001,8.98087215355977,20.089672155183994,25.31999969482422,25.35999870300293,25.350000381469727,25.34000015258789,20.560073202594452,20.59255276602642,20.584434036756935,20.576313758702774,20.578343441020145,0.02432450276248302,-0.800000011920929,0.0,0.0,0.0,0.0,0.0,0.0,,,,,
pylon_camera_1771859775036895639.png,1771859775036895639,1771859775.0368958,42.300973315297284,-83.69761337039277,238.46498107910156,-0.01611783124651478,-0.9994726909032428,-0.00906010368765145,-0.026692136964060705,0.005980000000000001,0.09140000000000002,-0.0007100000000000001,-0.6639,0.6792,-11.1293,9.001327001053927,20.135428421737572,25.309999465942383,25.420000076293945,25.309999465942383,25.309999465942383,20.551952924540288,20.641274434351388,20.551952924540288,20.551952924540288,20.574283301993063,0.021795159808058365,-0.4000000059604645,0.0,0.0,0.0,0.0,0.0,0.0,,,,,
pylon_camera_1771859775086927153.png,1771859775086927153,1771859775.0869272,42.30097335628887,-83.69761773302793,238.4488983154297,-0.01605859032357365,-0.999513249191909,-0.009637001666004882,-0.024950241793263456,-0.030370000000000005,0.04460000000000001,-0.0030900000000000003,0.3049,0.5792,-10.5691,9.027223013630422,20.193356248110437,25.34000015258789,25.350000381469727,25.239999771118164,25.189998626708984,20.576313758702774,20.584434036756935,20.49511252694584,20.454511136675034,20.527592864770146,0.01655181102898556,-0.4000000059604645,0.0,0.0,0.0,0.0,0.0,0.0,,,,,
pylon_camera_1771859775138121953.png,1771859775138121953,1771859775.138122,42.300973412759014,-83.69762429028178,238.42811584472656,-0.01591397632201097,-0.9995222001925098,-0.010664849661013144,-0.024256497308038794,-0.027140000000000004,0.004030000000000001,-0.009390000000000003,-0.11120000000000001,-1.2966,-12.786900000000001,9.04794301048634,20.239705637877318,25.31999969482422,25.389999389648438,25.350000381469727,25.19999885559082,20.560073202594452,20.616913600188905,20.584434036756935,20.462631414729195,20.55601306356737,0.015628064525706493,-0.30000001192092896,0.0,0.0,0.0,0.0,0.0,0.0,,,,,
pylon_camera_1771859775189512948.png,1771859775189512948,1771859775.189513,42.30097345884724,-83.69762867145037,238.4195098876953,-0.01589151371238734,-0.9994919387733283,-0.010955605084569064,-0.025363336458219886,0.06235,-0.04075000000000001,-0.018900000000000004,-0.1173,-1.1700000000000002,-14.603100000000001,9.071499333149527,20.292399718295503,25.189998626708984,25.260000228881836,25.329999923706055,25.06999969482422,20.454511136675034,20.511353083054164,20.568193480648613,20.357070897594454,20.472782149493067,0.008889162134675126,-0.5,0.0,0.0,0.0,0.0,0.0,0.0,,,,,
pylon_camera_1771859775239102591.png,1771859775239102591,1771859775.2391024,42.300973521648025,-83.69763526715226,238.41647338867188,-0.015784288433893567,-0.9994509653308481,-0.009994882925912486,-0.027362866318583645,0.13661000000000004,-0.05362000000000001,-0.04335000000000001,-0.6151,-2.0943,-9.281500000000001,9.076308709437404,20.303158004488907,25.10999870300293,25.260000228881836,25.760000228881836,25.06999969482422,20.38955046102642,20.511353083054164,20.917357693054164,20.357070897594454,20.5438330336823,0.011854068669523337,-0.4000000059604645,0.0,0.0,0.0,0.0,0.0,0.0,,,,,
pylon_camera_1771859775288748593.png,1771859775288748593,1771859775.2887485,42.30097356391192,-83.69763966025424,238.41261291503906,-0.015772319371557486,-0.9994169498341694,-0.01039073939971893,-0.028443397485778957,0.022340000000000006,-0.0404,-0.022200000000000004,-0.39330000000000004,2.003,-8.0091,9.055828821319786,20.257345723563084,25.31999969482422,25.26999855041504,25.34000015258789,25.26999855041504,20.560073202594452,20.519471812323648,20.576313758702774,20.519471812323648,20.54383264648613,0.014142372195870091,0.20000000298023224,0.0,0.0,0.0,0.0,0.0,0.0,,,,,
pylon_camera_1771859775342457245.png,1771859775342457245,1771859775.3424573,42.30097362049543,-83.69764622810801,238.4051971435547,-0.015726714273144815,-0.9994222939419473,-0.010268643197070795,-0.028324967729512526,0.01271,0.004090000000000001,-0.00048,-0.2485,1.4173,-7.113300000000001,9.022395524964784,20.182557445614727,25.549999237060547,25.350000381469727,25.309999465942383,25.34000015258789,20.74683495148613,20.584434036756935,20.551952924540288,20.576313758702774,20.61488391787153,0.02142079731083536,0.0,0.0,0.0,0.0,0.0,0.0,0.0,,,,,
pylon_camera_1771859775391542737.png,1771859775391542737,1771859775.3915427,42.30097365772869,-83.69765059554798,238.3983612060547,-0.015423429973753344,-0.9994614652897147,-0.010029795351181602,-0.027171684047822872,-0.10408000000000002,-0.01007,0.007600000000000001,-0.34790000000000004,-2.0457,-10.8195,9.029951303242449,20.199459268275163,24.779998779296875,25.479999542236328,25.420000076293945,25.459999084472656,20.12158748037781,20.68999455389168,20.641274434351388,20.673753997783358,20.531652616601058,0.016445655495720635,-1.399999976158142,0.0,0.0,0.0,0.0,0.0,0.0,,,,,
pylon_camera_1771859775441255885.png,1771859775441255885,1771859775.441256,42.30097369736304,-83.69765715568506,238.3854217529297,-0.01525405809943936,-0.9994768939210747,-0.011282999064518802,-0.02619057390530737,-0.037410000000000006,0.0036900000000000006,0.006400000000000001,-0.2758,-1.5798,-9.714500000000001,9.047831428970323,20.239456036720874,25.079999923706055,25.119998931884766,25.369998931884766,25.31999969482422,20.365191175648615,20.397670739080585,20.600673044080583,20.560073202594452,20.480902040351058,0.01192947098934494,-3.0,0.0,0.0,0.0,0.0,0.0,0.0,,,,,
pylon_camera_1771859775491149743.png,1771859775491149743,1771859775.49115,42.30097372247561,-83.69766153663488,238.37600708007812,-0.015446525899965757,-0.9994638083110493,-0.012601270639702119,-0.025975155288486394,0.0004900000000000001,-0.0025000000000000005,0.00807,0.4071,2.6063,-7.958,9.062221636609568,20.27164606779741,25.19999885559082,25.119998931884766,25.34000015258789,25.260000228881836,20.462631414729195,20.397670739080585,20.576313758702774,20.511353083054164,20.48699224889168,0.01062302392090207,-3.9000000953674316,0.0,0.0,0.0,0.0,0.0,0.0,,,,,
pylon_camera_1771859775543856357.png,1771859775543856357,1771859775.5438564,42.30097377048606,-83.69766811619387,238.36090087890625,-0.0157353419497287,-0.9994605616872019,-0.012395666881090747,-0.02602560447330145,0.00858,0.005110000000000001,0.022320000000000003,0.5973,2.4735,-8.357000000000001,9.056874797334102,20.259685509148547,25.369998931884766,25.119998931884766,25.28999900817871,25.309999465942383,20.600673044080583,20.397670739080585,20.53571236843197,20.551952924540288,20.521502269033356,0.012923041661558955,-4.0,0.0,0.0,0.0,0.0,0.0,0.0,,,,,
pylon_camera_1771859775594291233.png,1771859775594291233,1771859775.5942912,42.3009738311435,-83.69767468750065,238.3446807861328,-0.015920941346529438,-0.9994716668640713,-0.011500382313718418,-0.025896949033297603,0.025090000000000005,0.037950000000000005,0.013830000000000002,-0.27940000000000004,0.9519000000000001,-9.609300000000001,9.044284484740045,20.231521735294397,25.43000030517578,25.25,25.18000030517578,25.15999984741211,20.64939471240555,20.503232805,20.44639240740555,20.430151851297225,20.507292944027082,0.013630769466618783,-3.700000047683716,0.0,0.0,0.0,0.0,0.0,0.0,,,,,
pylon_camera_1771859775644065023.png,1771859775644065023,1771859775.6440651,42.30097387988891,-83.6976790703447,238.33572387695312,-0.01604787199946711,-0.9994784221876236,-0.01055591642377953,-0.025960007975365244,0.014930000000000002,-0.015420000000000003,0.009930000000000001,-1.1392,1.4945000000000002,-13.0168,9.050885838380886,20.24628856730774,25.5,25.25,25.299999237060547,25.149999618530273,20.706235109999998,20.503232805,20.54383264648613,20.422031573243064,20.543833033682297,0.014696247432480566,-3.1000001430511475,0.0,0.0,0.0,0.0,0.0,0.0,,,,,
pylon_camera_1771859775693065089.png,1771859775693065089,1771859775.6930652,42.30097396367697,-83.69768564442356,238.32708740234375,-0.015969796386843593,-0.9994813547499648,-0.008227771878764655,-0.026726220841130587,0.01946,-0.05560000000000001,-0.017310000000000002,-0.766,-5.980300000000001,-13.2535,9.061753748802243,20.27059943084569,25.119998931884766,25.149999618530273,25.939998626708984,25.0,20.397670739080585,20.422031573243064,21.063518051675032,20.3002305,20.54586271599967,0.013579434890076111,-2.4000000953674316,0.0,0.0,0.0,0.0,0.0,0.0,,,,,
pylon_camera_1771859775743662955.png,1771859775743662955,1771859775.7436628,42.30097401356065,-83.697690044148,238.3219451904297,-0.016321203394225714,-0.9994425471169635,-0.00950389307874983,-0.027529790200224218,-0.012420000000000002,-0.04764000000000001,-0.006220000000000002,-1.0792000000000002,-0.5649000000000001,-9.088000000000001,9.074365357261478,20.29881084227249,25.239999771118164,25.34000015258789,25.559999465942383,25.35999870300293,20.49511252694584,20.576313758702774,20.754955229540293,20.59255276602642,20.604733570303832,0.015070967969919373,-2.6000001430511475,0.0,0.0,0.0,0.0,0.0,0.0,,,,,
pylon_camera_1771859775793659389.png,1771859775793659389,1771859775.7936594,42.30097405917449,-83.69769663688304,238.30990600585938,-0.016552935197121144,-0.9994057569483497,-0.011962299297130266,-0.027767547792016838,-0.044050000000000006,-0.03746000000000001,0.005080000000000001,1.7647000000000002,2.4608000000000003,-6.7551000000000005,9.09548009275737,20.346043238692673,25.25,25.149999618530273,25.28999900817871,25.399999618530273,20.503232805,20.422031573243064,20.53571236843197,20.625033878243066,20.521502656229522,0.008623761164685486,-3.200000047683716,0.0,0.0,0.0,0.0,0.0,0.0,,,,,
pylon_camera_1771859775844631220.png,1771859775844631220,1771859775.8446312,42.3009740930057,-83.69770104281632,238.3003387451172,-0.01668891181530191,-0.9993777991670797,-0.012433918042529891,-0.028476173136446774,-0.01776,-0.04476,0.01742,0.876,1.7985,-9.0287,9.083457044160781,20.31914840036502,25.350000381469727,25.459999084472656,25.229999542236328,25.299999237060547,20.584434036756935,20.673753997783358,20.486992248891678,20.54383264648613,20.572253232479525,0.012456468505833585,-3.299999952316284,0.0,0.0,0.0,0.0,0.0,0.0,,,,,
pylon_camera_1771859775894076535.png,1771859775894076535,1771859775.8940763,42.30097413962161,-83.69770765127785,238.28570556640625,-0.01678204513972148,-0.9993611894805394,-0.01258589567408017,-0.028933910054654066,0.010400000000000001,-0.01648,0.0012700000000000003,0.341,1.7362000000000002,-10.474400000000001,9.0825049869459,20.31701870549876,25.399999618530273,25.299999237060547,25.309999465942383,25.15999984741211,20.625033878243066,20.54383264648613,20.551952924540288,20.430151851297225,20.537742825141677,0.010864001399141206,-2.9000000953674316,0.0,0.0,0.0,0.0,0.0,0.0,,,,,
pylon_camera_1771859775945315731.png,1771859775945315731,1771859775.9453158,42.300974179365,-83.69771205695406,238.2764434814453,-0.016882147762393385,-0.9993497461547171,-0.012328800046270436,-0.029378200027409908,0.007620000000000001,0.011980000000000001,0.0068000000000000005,-0.7695000000000001,-0.08610000000000001,-9.6065,9.083466747091,20.319170105237742,25.369998931884766,25.44999885559082,25.34000015258789,25.31999969482422,20.600673044080583,20.665633719729193,20.576313758702774,20.560073202594452,20.600673431276753,0.013854075957878199,-2.1000001430511475,0.0,0.0,0.0,0.0,0.0,0.0,,,,,
pylon_camera_1771859775996601832.png,1771859775996601832,1771859775.9966018,42.300974255982155,-83.69771868704571,238.26449584960938,-0.016782805204587026,-0.9993411654341788,-0.011634842007686575,-0.030003382635601487,0.07285000000000001,-0.023080000000000003,-0.02391,-0.3961,0.21860000000000002,-10.583300000000001,9.115507142712197,20.39084254781862,25.489999771118164,25.420000076293945,25.51999855041504,25.439998626708984,20.69811483194584,20.641274434351388,20.72247411732365,20.657513441675032,20.679844206323978,0.014173110200209593,-2.200000047683716,0.0,0.0,0.0,0.0,0.0,0.0,,,,,
pylon_camera_1771859776048093262.png,1771859776048093262,1771859776.048093,42.30097432262056,-83.69772311773313,238.25698852539062,-0.016746290630978433,-0.9993008098911477,-0.009942573892265652,-0.03191548723419607,0.10866000000000002,-0.05608000000000001,-0.0015300000000000003,-3.0820000000000003,-0.4682,-10.465300000000001,9.128813310687246,20.42060764720873,25.56999969482422,25.53999900817871,25.3799991607666,25.43000030517578,20.763075507594454,20.738714673431968,20.608793322134744,20.64939471240555,20.68999455389168,0.01319191433168602,-2.6000001430511475,0.0,0.0,0.0,0.0,0.0,0.0,,,,,
pylon_camera_1771859776096359340.png,1771859776096359340,1771859776.0963595,42.30097441412035,-83.69772976592188,238.24546813964844,-0.016872716966523482,-0.9992841400448815,-0.00942794317650927,-0.032521266340498484,0.021030000000000004,-0.042870000000000005,0.015820000000000004,0.3282,1.6053000000000002,-7.9256,9.140504955816109,20.44676115586329,25.65999984741211,25.389999389648438,25.6299991607666,25.350000381469727,20.83615646129723,20.616913600188905,20.811795627134742,20.584434036756935,20.71232493134445,0.012988060723006461,-3.0,0.0,0.0,0.0,0.0,0.0,0.0,,,,,
pylon_camera_1771859776147467709.png,1771859776147467709,1771859776.1474679,42.30097447072625,-83.69773418603818,238.23464965820312,-0.01699560607691608,-0.9993004721873702,-0.008795906938131188,-0.03213016777599186,-0.009290000000000001,0.05558000000000001,0.012500000000000002,-0.37870000000000004,-0.19140000000000001,-8.5639,9.115799849012713,20.3914973142505,25.420000076293945,25.100000381469727,25.68000030517578,25.510000228881836,20.641274434351388,20.381431731756933,20.852397017405547,20.714355388054162,20.647364642892008,0.01254774598933917,-3.6000001430511475,0.0,0.0,0.0,0.0,0.0,0.0,,,,,
pylon_camera_1771859776197475534.png,1771859776197475534,1771859776.1974757,42.300974535562254,-83.6977408039929,238.21449279785156,-0.017158242430258597,-0.9993582641820475,-0.009675624696146898,-0.02991716588329232,-0.0337,0.08496000000000001,0.0036300000000000004,1.1855,1.5033,-10.576600000000001,9.129867807645347,20.422966493634185,25.599998474121094,25.309999465942383,25.760000228881836,25.719999313354492,20.78743479297226,20.551952924540288,20.917357693054164,20.884876580837517,20.78540549785106,0.01774663853705317,-4.300000190734863,0.0,0.0,0.0,0.0,0.0,0.0,,,,,
pylon_camera_1771859776249569117.png,1771859776249569117,1771859776.249569,42.30097457092792,-83.69774522733735,238.20179748535156,-0.017407258625341815,-0.9993848394173813,-0.010118770090889753,-0.02871481467279544,-0.00854,0.013450000000000002,0.009650000000000002,1.9335,0.2691,-10.573,9.166969898022991,20.505961643683552,25.599998474121094,25.44999885559082,25.68000030517578,25.559999465942383,20.78743479297226,20.665633719729193,20.852397017405547,20.754955229540293,20.76510518991182,0.012637473468994494,-4.5,0.0,0.0,0.0,0.0,0.0,0.0,,,,,
pylon_camera_1771859776300467186.png,1771859776300467186,1771859776.3004673,42.3009746317959,-83.69775189396438,238.18601989746094,-0.017744024218831256,-0.9993777581479533,-0.010337105055283284,-0.028677349646862183,-9e-05,-0.03841000000000001,0.017780000000000004,1.0307,0.024800000000000003,-9.4626,9.191261004762747,20.560299391993983,25.6299991607666,25.56999969482422,25.6299991607666,25.76999855041504,20.811795627134742,20.763075507594454,20.811795627134742,20.925476422323648,20.828035796046898,0.013022009015937254,-4.599999904632568,0.0,0.0,0.0,0.0,0.0,0.0,,,,,
pylon_camera_1771859776351445202.png,1771859776351445202,1771859776.3514452,42.30097467984241,-83.69775634509625,238.17503356933594,-0.018074300397198317,-0.9993756732206442,-0.009799224793906268,-0.028732536145879017,0.04879000000000001,0.0025000000000000005,0.014100000000000001,-0.4792,2.8316000000000003,-7.3266,9.200530392396416,20.58103445596724,25.670000076293945,25.56999969482422,25.920000076293945,25.549999237060547,20.84427673935139,20.763075507594454,21.047279044351388,20.74683495148613,20.85036656069584,0.013086422128335141,-4.5,0.0,0.0,0.0,0.0,0.0,0.0,,,,,
pylon_camera_1771859776401940198.png,1771859776401940198,1771859776.40194,42.30097477952655,-83.69776303729758,238.15545654296875,-0.018176750638688233,-0.9993797720860138,-0.008306457688670508,-0.02899447606342007,0.07754,0.008760000000000002,0.00202,-0.5956,1.1708,-13.3743,9.215940518262622,20.61550598292239,25.709999084472656,25.760000228881836,25.78999900817871,25.76999855041504,20.87675630278336,20.917357693054164,20.94171697843197,20.925476422323648,20.915326849148286,0.014543463860371138,-4.300000190734863,0.0,0.0,0.0,0.0,0.0,0.0,,,,,
pylon_camera_1771859776454056717.png,1771859776454056717,1771859776.4540567,42.30097489488957,-83.69776974613907,238.14053344726562,-0.018173141588600006,-0.9993652349523872,-0.007312774159374851,-0.029755460464507732,0.007220000000000001,-0.04877000000000001,0.00289,-0.4178,-0.7188,-11.551,9.233255321298179,20.65423815842475,25.709999084472656,25.709999084472656,25.76999855041504,25.829999923706055,20.87675630278336,20.87675630278336,20.925476422323648,20.974198090648613,20.913296779634745,0.012542637458856183,-4.0,0.0,0.0,0.0,0.0,0.0,0.0,,,,,
pylon_camera_1771859776504299064.png,1771859776504299064,1771859776.504299,42.300974964736895,-83.69777422331899,238.13389587402344,-0.018247565321334147,-0.9993308133974078,-0.007510485982167161,-0.030798447276295573,-0.044160000000000005,0.0017500000000000003,0.022390000000000004,-0.1144,1.4644000000000001,-11.1089,9.23659959277571,20.661719093063695,25.739999771118164,25.619998931884766,25.56999969482422,25.739999771118164,20.90111713694584,20.803675349080585,20.763075507594454,20.90111713694584,20.84224628264168,0.008737278285744754,-3.9000000953674316,0.0,0.0,0.0,0.0,0.0,0.0,,,,,
pylon_camera_1771859776555718215.png,1771859776555718215,1771859776.5557182,42.30097507172329,-83.69778094446329,238.12423706054688,-0.01848745552383335,-0.9993076223875567,-0.0072411098391733115,-0.03146515778888579,-0.03838000000000001,0.04002000000000001,0.03143,-0.3633,-0.2,-7.3715,9.23853461542737,20.666047622634103,25.889999389648438,25.689998626708984,25.869998931884766,25.760000228881836,21.022918210188905,20.860515746675034,21.006677654080583,20.917357693054164,20.95186732599967,0.013830399918972886,-3.9000000953674316,0.0,0.0,0.0,0.0,0.0,0.0,,,,,
pylon_camera_1771859776605982459.png,1771859776605982459,1771859776.6059825,42.3009751302186,-83.6977854236757,238.11546325683594,-0.01870853016535018,-0.9993070256576737,-0.007004617245063217,-0.03140692133138142,-0.00101,0.04204000000000001,0.016860000000000003,-0.8444,0.1784,-8.9961,9.230191393798265,20.647384336443093,25.8799991607666,25.779998779296875,26.029998779296875,25.8799991607666,21.014797932134744,20.93359670037781,21.136599005377807,21.014797932134744,21.024947892506276,0.018286265703727676,-3.799999952316284,0.0,0.0,0.0,0.0,0.0,0.0,,,,,
pylon_camera_1771859776655951764.png,1771859776655951764,1771859776.655952,42.300975222459314,-83.6977921405598,238.09925842285156,-0.01899826335751248,-0.9993239602472264,-0.007115152738551999,-0.030660447920825184,0.004810000000000001,0.021410000000000002,0.013820000000000002,-0.6706000000000001,0.8582000000000001,-8.9524,9.234685255550378,20.657436835550865,26.260000228881836,26.25,26.01999855041504,25.829999923706055,21.323362303054164,21.315242025000003,21.12847872732365,20.974198090648613,21.18532028650661,0.025554160235759373,-3.700000047683716,0.0,0.0,0.0,0.0,0.0,0.0,,,,,
pylon_camera_1771859776705391718.png,1771859776705391718,1771859776.7053916,42.30097528223229,-83.69779662048161,238.08706665039062,-0.0192375275677103,-0.9993441839511621,-0.007012346776474559,-0.029865473857855037,0.05068000000000001,0.05559000000000001,0.007370000000000001,-3.0068,1.2867,-9.289100000000001,9.221514504680371,20.62797465609971,26.43000030517578,26.53999900817871,26.01999855041504,25.760000228881836,21.46140393240555,21.550723893431968,21.12847872732365,20.917357693054164,21.264491061553834,0.030856951109638167,-3.6000001430511475,0.0,0.0,0.0,0.0,0.0,0.0,,,,,
pylon_camera_1771859776754039070.png,1771859776754039070,1771859776.754039,42.300975387056006,-83.69780331831554,238.06605529785156,-0.019414084150666033,-0.999399755956456,-0.006546388908374423,-0.027935030392445926,0.014860000000000002,0.06851000000000002,0.011250000000000001,-2.9224,0.7228,-9.9715,9.204986156463086,20.591001732838535,26.09000015258789,26.149999618530273,25.889999389648438,25.829999923706055,21.185320673702773,21.234040793243068,21.022918210188905,20.974198090648613,21.10411944194584,0.02491951172482227,-3.299999952316284,0.0,0.0,0.0,0.0,0.0,0.0,,,,,
pylon_camera_1771859776803906417.png,1771859776803906417,1771859776.8039062,42.30097546331991,-83.69780776097252,238.05101013183594,-0.019488265727921616,-0.9994882238451415,-0.005968621396061484,-0.02465508978756147,0.025010000000000004,0.12826,0.020070000000000005,-0.627,0.515,-9.3795,9.194354352602323,20.56721902551024,26.5,25.899999618530273,25.920000076293945,25.90999984741211,21.51824433,21.031038488243063,21.047279044351388,21.039158766297227,21.15893015722292,0.028769622717527255,-2.6000001430511475,0.0,0.0,0.0,0.0,0.0,0.0,,,,,
pylon_camera_1771859776854959271.png,1771859776854959271,1771859776.8549592,42.30097556213459,-83.69781444574252,238.03309631347656,-0.019483593728890358,-0.9995537269477275,-0.006498620262965545,-0.021691114655389924,-0.06268000000000001,0.12964000000000003,0.004760000000000001,0.8955000000000001,-0.445,-9.9505,9.213023407107675,20.608980580295444,25.76999855041504,26.079999923706055,25.979999542236328,25.93000030517578,20.925476422323648,21.17720039564861,21.09599916389168,21.05539932240555,21.063518826067373,0.022055348346852213,-2.200000047683716,0.0,0.0,0.0,0.0,0.0,0.0,,,,,
pylon_camera_1771859776904934360.png,1771859776904934360,1771859776.9049344,42.300975621497116,-83.69781890373382,238.02484130859375,-0.019540545058686243,-0.9995820049994333,-0.007450571784572587,-0.019961747423635576,-0.020670000000000004,0.09564,0.009460000000000001,-0.6333000000000001,0.3564,-10.493400000000001,9.196950643628583,20.573026772758524,26.03999900817871,26.349998474121094,26.010000228881836,25.920000076293945,21.144719283431968,21.396441707972258,21.120359998054163,21.047279044351388,21.177200008452445,0.029367250738910618,-2.4000000953674316,0.0,0.0,0.0,0.0,0.0,0.0,,,,,
pylon_camera_1771859776955928959.png,1771859776955928959,1771859776.9559288,42.30097572991077,-83.6978255820567,238.0142822265625,-0.019578667833043073,-0.9996260966123488,-0.007186552627855881,-0.017683217998128723,0.0765,0.11025000000000001,0.00034,-1.3274000000000001,2.4457,-11.173,9.17188966077515,20.516966857774367,26.299999237060547,26.099998474121094,26.059999465942383,25.979999542236328,21.35584186648613,21.19343940297226,21.160959839540293,21.09599916389168,21.20156006822259,0.03336717435836843,-2.200000047683716,0.0,0.0,32.0,0.0,0.0,0.0,,,,,
pylon_camera_1771859777005342371.png,1771859777005342371,1771859777.0053425,42.30097580312882,-83.69783003697364,238.00650024414062,-0.019736103184388565,-0.999682132070878,-0.005492125058302745,-0.014695496305424913,0.06353,0.15363000000000004,0.011360000000000002,1.2753,1.8915000000000002,-6.0195,9.200106141131322,20.5800854313423,25.889999389648438,26.06999969482422,25.84000015258789,26.059999465942383,21.022918210188905,21.169080117594454,20.982318368702774,21.160959839540293,21.083819134006607,0.02447675469301736,-1.8000000715255737,0.0,0.0,0.0,0.0,0.0,0.0,,,,,
pylon_camera_1771859777056367858.png,1771859777056367858,1771859777.0563679,42.30097592217751,-83.69783673051359,237.9976043701172,-0.01961122683279104,-0.9997049809022607,-0.005089801370918574,-0.013395703166611797,0.03196,0.10535000000000001,0.012820000000000003,1.6942000000000002,1.3357,-14.024000000000001,9.215548946676916,20.61463006077946,26.01999855041504,25.8799991607666,25.8799991607666,25.489999771118164,21.12847872732365,21.014797932134744,21.014797932134744,20.69811483194584,20.964047355884745,0.016949966799068104,-1.899999976158142,0.0,0.0,0.0,0.0,0.0,0.0,,,,,
pylon_camera_1771859777106290313.png,1771859777106290313,1771859777.1062903,42.300976008035384,-83.69784120762606,237.99832153320312,-0.01959118122634168,-0.999691728371554,-0.005402830087582848,-0.01426335411803313,-0.0021600000000000005,-0.06864,0.016770000000000004,-0.0951,3.6305,-15.5515,9.244463005614037,20.679309075778264,25.639999389648438,25.68000030517578,25.760000228881836,25.729999542236328,20.819915905188903,20.852397017405547,20.917357693054164,20.892996858891678,20.870666868635073,0.00925358734934464,-2.0,0.0,0.0,0.0,0.0,0.0,0.0,,,,,
pylon_camera_1771859777157309881.png,1771859777157309881,1771859777.15731,42.3009761049682,-83.69784794443942,238.0047149658203,-0.019518871579275232,-0.9996582901104667,-0.005905872947762673,-0.016353511256456846,-0.07322000000000001,-0.16757,0.020550000000000002,-0.7039000000000001,0.8934000000000001,-6.127800000000001,9.243952842296682,20.67816787104714,25.60999870300293,25.549999237060547,25.8799991607666,25.78999900817871,20.795555071026424,20.74683495148613,21.014797932134744,20.94171697843197,20.874726233269815,0.009505598535056328,-2.0,0.0,0.0,0.0,0.0,0.0,0.0,,,,,
pylon_camera_1771859777207599141.png,1771859777207599141,1771859777.2075992,42.300976154768456,-83.69785242558939,238.00631713867188,-0.019863465841271022,-0.9996004218011871,-0.007575725939997121,-0.01862921995531996,-0.05405000000000001,-0.03586,0.007300000000000002,0.7868,-0.459,-8.287600000000001,9.228444992445281,20.64347774140055,25.68000030517578,25.6299991607666,25.6299991607666,25.439998626708984,20.852397017405547,20.811795627134742,20.811795627134742,20.657513441675032,20.783375428337518,0.006776846841867339,-2.0,0.0,0.0,0.0,0.0,0.0,0.0,,,,,
pylon_camera_1771859777258735563.png,1771859777258735563,1771859777.2587357,42.30097624312429,-83.69785915014934,238.00979614257812,-0.02014274141170902,-0.9995422492248683,-0.00799162793145396,-0.02111151027088114,0.042350000000000006,-0.12357000000000001,0.013110000000000002,-0.5656,3.0972,-11.1272,9.226884192982252,20.639986326649723,25.6299991607666,25.549999237060547,25.6299991607666,25.559999465942383,20.811795627134742,20.74683495148613,20.811795627134742,20.754955229540293,20.781345358823977,0.006848794855631055,-1.899999976158142,0.0,0.0,0.0,0.0,0.0,0.0,,,,,
pylon_camera_1771859777308320272.png,1771859777308320272,1771859777.3083203,42.30097629882534,-83.69786362310298,238.01287841796875,-0.020095484709831524,-0.9995076312297879,-0.007768118312070893,-0.022810588453285433,-0.01769,-0.08408000000000002,0.010180000000000002,-0.8972,2.2862,-7.1951,9.198062783592949,20.57551456313041,25.619998931884766,25.599998474121094,25.899999618530273,25.619998931884766,20.803675349080585,20.78743479297226,21.031038488243063,20.803675349080585,20.856455994844122,0.013654163100111907,-1.3000000715255737,0.0,0.0,0.0,0.0,0.0,0.0,,,,,
pylon_camera_1771859777359842874.png,1771859777359842874,1771859777.3598428,42.300976396365236,-83.69787030812282,238.0121612548828,-0.019872111486910427,-0.9995168236660004,-0.007332732366496568,-0.022747514803219227,0.07567000000000002,0.07452000000000002,-0.048170000000000004,-1.5634000000000001,0.365,-7.9511,9.105573967998756,20.36862263197514,27.389999389648438,25.53999900817871,25.78999900817871,25.78999900817871,22.240932040188905,20.738714673431968,20.94171697843197,20.94171697843197,21.2157701676212,0.04159081107016978,0.10000000149011612,0.0,0.0,0.0,0.0,0.0,0.0,,,,,
pylon_camera_1771859777409138934.png,1771859777409138934,1771859777.409139,42.30097645985001,-83.697874749403,238.00814819335938,-0.02005235352238849,-0.9994960825350135,-0.008777823456935396,-0.022987690852568927,-0.07359000000000002,0.030680000000000006,0.0010000000000000002,-5.2286,4.5274,-9.1917,9.13326942331695,20.43057570379462,26.349998474121094,25.760000228881836,25.639999389648438,25.6299991607666,21.396441707972258,20.917357693054164,20.819915905188903,20.811795627134742,20.986377733337516,0.027204423291883332,1.899999976158142,0.0,0.0,0.0,0.0,0.0,0.0,,,,,
pylon_camera_1771859777462382593.png,1771859777462382593,1771859777.4623826,42.300976555091545,-83.69788140657027,237.99978637695312,-0.019747524304826403,-0.999513922347076,-0.009073576642866812,-0.02235228232417171,-0.09534000000000001,-0.013360000000000002,-0.011430000000000003,-1.5321,-1.9418000000000002,-10.7171,9.162246304258867,20.49539524784883,25.81999969482422,25.85999870300293,25.639999389648438,25.649999618530273,20.966077812594452,20.998557376026422,20.819915905188903,20.828036183243064,20.903146819263213,0.019894789365293195,2.9000000953674316,0.0,0.0,0.0,0.0,0.0,0.0,,,,,
pylon_camera_1771859777513614924.png,1771859777513614924,1771859777.513615,42.300976649447264,-83.69788807089404,237.9888458251953,-0.019466601504072978,-0.9995292273138878,-0.009320667710788016,-0.02180596993047662,-0.0008200000000000001,0.01959,-0.024220000000000005,-0.9600000000000001,-1.9081000000000001,-8.6012,9.146455218375907,20.4600715361938,25.68000030517578,25.78999900817871,25.60999870300293,25.649999618530273,20.852397017405547,20.94171697843197,20.795555071026424,20.828036183243064,20.854426312526755,0.01927435960501609,2.799999952316284,0.0,0.0,0.0,0.0,0.0,0.0,,,,,
pylon_camera_1771859777564255109.png,1771859777564255109,1771859777.5642552,42.3009767110992,-83.69789251517116,237.98114013671875,-0.019135874333216896,-0.9995397898302917,-0.0099322306717992,-0.02133957950385967,0.0007300000000000002,0.015320000000000002,-0.01923,-0.7655000000000001,0.9809,-10.3533,9.146922892701447,20.461117695599576,25.60999870300293,25.709999084472656,25.60999870300293,25.619998931884766,20.795555071026424,20.87675630278336,20.795555071026424,20.803675349080585,20.817885448479196,0.01743637655514523,2.5,0.0,0.0,0.0,0.0,0.0,0.0,,,,,
pylon_camera_1771859777614562905.png,1771859777614562905,1771859777.6145627,42.3009767925954,-83.69789917961705,237.97036743164062,-0.018757840134991932,-0.9995571314615348,-0.01027718642366421,-0.020689703165376133,-0.03565000000000001,0.01668,-0.012350000000000002,0.6116,0.266,-11.4047,9.144425779784173,20.45553180383041,25.639999389648438,25.869998931884766,25.44999885559082,25.60999870300293,20.819915905188903,21.006677654080583,20.665633719729193,20.795555071026424,20.821945587506274,0.017912698979903833,2.5,0.0,0.0,0.0,0.0,0.0,0.0,,,,,
pylon_camera_1771859777665189717.png,1771859777665189717,1771859777.6651897,42.30097685030534,-83.69790362154629,237.9658203125,-0.018475146285514388,-0.9995533252684283,-0.010470393630239985,-0.02102830881892392,-0.0017100000000000001,-0.059480000000000005,-0.014960000000000003,0.9805,2.2055000000000002,-13.788400000000001,9.157619820141067,20.485046080466358,25.079999923706055,25.549999237060547,26.5,25.549999237060547,20.365191175648615,20.74683495148613,21.51824433,20.74683495148613,20.84427635215522,0.01753621984923959,2.4000000953674316,0.0,0.0,0.0,0.0,0.0,0.0,,,,,
pylon_camera_1771859777715283348.png,1771859777715283348,1771859777.7152834,42.30097694773343,-83.69791029464787,237.96530151367188,-0.017863663819652487,-0.999573194447432,-0.009086203067009899,-0.021254631752153984,-0.016280000000000003,0.048990000000000006,0.02023,0.4078,3.3248,-3.4345000000000003,9.1372772949113,20.439541072078885,25.029998779296875,25.420000076293945,25.959999084472656,25.639999389648438,20.32458978537781,20.641274434351388,21.079758607783358,20.819915905188903,20.716384683175367,0.01354451208665635,2.299999952316284,0.0,0.0,0.0,0.0,0.0,0.0,,,,,
pylon_camera_1771859777765014621.png,1771859777765014621,1771859777.7650144,42.30097699933953,-83.69791474636811,237.96102905273438,-0.017582944363001174,-0.9995263009619713,-0.009751348878719028,-0.023300749941840334,-0.16734000000000002,-0.00177,0.013580000000000002,-5.7964,1.6179000000000001,-14.1219,9.095103751668626,20.345201386257617,25.44999885559082,25.26999855041504,25.68000030517578,25.510000228881836,20.665633719729193,20.519471812323648,20.852397017405547,20.714355388054162,20.68796448437814,0.016847368163779602,0.9000000357627869,0.0,0.0,0.0,0.0,0.0,0.0,,,,,
pylon_camera_1771859777814456748.png,1771859777814456748,1771859777.814457,42.300977072371516,-83.69792143624075,237.9555206298828,-0.017386548382183675,-0.9994972201348636,-0.010160492540157644,-0.024490391368357865,-0.08682000000000001,-0.04195000000000001,-0.010510000000000002,-5.0277,-1.088,-8.3993,9.143426791137905,20.453297126168028,25.44999885559082,25.329999923706055,25.3799991607666,25.60999870300293,20.665633719729193,20.568193480648613,20.608793322134744,20.795555071026424,20.659543898384744,0.010083790938178015,-0.800000011920929,0.0,0.0,0.0,0.0,0.0,0.0,,,,,
pylon_camera_1771859777866032402.png,1771859777866032402,1771859777.8660324,42.3009771107495,-83.69792589632405,237.95167541503906,-0.017289864706984515,-0.9994435151494869,-0.010964670779050084,-0.026334323586493697,-0.011930000000000003,-0.08595000000000001,-0.004210000000000001,-2.1843,-1.4055,-9.084800000000001,9.169427498691501,20.511459148922967,25.439998626708984,25.28999900817871,25.44999885559082,25.459999084472656,20.657513441675032,20.53571236843197,20.665633719729193,20.673753997783358,20.63315338190489,0.005932987609431643,-2.6000001430511475,0.0,0.0,0.0,0.0,0.0,0.0,,,,,
pylon_camera_1771859777913919684.png,1771859777913919684,1771859777.9139197,42.3009771699392,-83.69793259033317,237.94497680664062,-0.01737124005624907,-0.9993877182614559,-0.011324272068596285,-0.028181367411571238,0.009880000000000002,-0.11809000000000001,-0.006590000000000001,0.37610000000000005,0.2081,-10.3831,9.179442236796362,20.533861517179254,25.439998626708984,25.3799991607666,25.420000076293945,25.34000015258789,20.657513441675032,20.608793322134744,20.641274434351388,20.576313758702774,20.620973739215984,0.00424236921846624,-2.5,0.0,0.0,0.0,0.0,0.0,0.0,,,,,
pylon_camera_1771859777965436699.png,1771859777965436699,1771859777.9654367,42.30097721266302,-83.69793704295694,237.9398651123047,-0.017583799576516068,-0.9993412775851008,-0.011146738381653701,-0.02972492439826187,0.017880000000000004,-0.06501000000000001,0.0032800000000000004,0.9743,1.0764,-7.2487,9.163018824561135,20.497123329413785,25.389999389648438,25.389999389648438,25.559999465942383,25.489999771118164,20.616913600188905,20.616913600188905,20.754955229540293,20.69811483194584,20.671724315465987,0.008518316606977019,-1.8000000715255737,0.0,0.0,0.0,0.0,0.0,0.0,,,,,
pylon_camera_1771859778015648786.png,1771859778015648786,1771859778.0156488,42.300977294633356,-83.69794371895114,237.93215942382812,-0.01771020623383962,-0.9992995235168871,-0.01027756864848501,-0.031323832408451206,0.03888000000000001,-0.05303000000000001,-0.0005400000000000001,-1.4611,2.9323,-11.8572,9.126443548083833,20.41530663045065,25.309999465942383,25.420000076293945,25.84000015258789,25.479999542236328,20.551952924540288,20.641274434351388,20.982318368702774,20.68999455389168,20.716385070371533,0.014747681500497566,-1.8000000715255737,0.0,0.0,0.0,0.0,0.0,0.0,,,,,
pylon_camera_1771859778066028315.png,1771859778066028315,1771859778.0660284,42.30097735492847,-83.69794815730926,237.9274139404297,-0.01771626589832037,-0.9992975357288496,-0.009279311344973822,-0.031693270418679254,-0.010290000000000002,0.050100000000000006,0.038200000000000005,-2.5517000000000003,3.2355,-4.4351,9.11568207886951,20.39123386950636,25.559999465942383,25.459999084472656,25.829999923706055,25.489999771118164,20.754955229540293,20.673753997783358,20.974198090648613,20.69811483194584,20.775255537479527,0.018832684202962455,-2.0,0.0,0.0,0.0,0.0,0.0,0.0,,,,,
pylon_camera_1771859778116343909.png,1771859778116343909,1771859778.1163437,42.300977428800486,-83.69795478977757,237.91058349609375,-0.017642743187323506,-0.9993122630254409,-0.009634101739882371,-0.031159567767598168,-0.06845000000000001,0.09417000000000002,0.021530000000000004,-2.5416000000000003,1.6995,-9.5328,9.068706244605185,20.286151746807125,25.68000030517578,25.479999542236328,25.689998626708984,25.529998779296875,20.852397017405547,20.68999455389168,20.860515746675034,20.73059439537781,20.783375428337518,0.024510497985831735,-2.4000000953674316,0.0,0.0,8.0,0.0,0.0,0.0,,,,,
pylon_camera_1771859778166983258.png,1771859778166983258,1771859778.1669831,42.300977473610445,-83.69795919231585,237.8974609375,-0.017815252291325634,-0.9993722996533158,-0.009411965960440496,-0.029138262957821907,0.006050000000000001,0.14411000000000002,0.005410000000000001,-2.4291,-0.043500000000000004,-7.9965,9.056326738363277,20.258459534114348,25.65999984741211,25.59000015258789,25.689998626708984,25.529998779296875,20.83615646129723,20.779316063702773,20.860515746675034,20.73059439537781,20.80164566676321,0.026812805373190474,-2.6000001430511475,0.0,0.0,0.0,0.0,0.0,0.0,,,,,
pylon_camera_1771859778217482681.png,1771859778217482681,1771859778.2174828,42.30097754921578,-83.69796580665707,237.87660217285156,-0.017912754699501987,-0.9994499856775646,-0.008954867708758288,-0.026432360706339236,0.029300000000000007,0.10383,0.00031,-3.0445,1.6217000000000001,-9.704600000000001,9.047249228797645,20.238153689866603,26.15999984741211,25.68000030517578,25.65999984741211,25.619998931884766,21.24216107129723,20.852397017405547,20.83615646129723,20.803675349080585,20.933597474770146,0.034363005418412064,-2.4000000953674316,0.0,0.0,0.0,0.0,0.0,0.0,,,,,
pylon_camera_1771859778268343227.png,1771859778268343227,1771859778.2683432,42.30097759940397,-83.69797021956155,237.86280822753906,-0.01793222328405325,-0.9995040304162734,-0.008891012597911816,-0.024312104900641517,-0.01974,0.05494000000000001,0.012790000000000001,-2.2886,2.1991,-12.2055,9.092099737409619,20.338481586601073,25.739999771118164,25.60999870300293,25.529998779296875,25.559999465942383,20.90111713694584,20.795555071026424,20.73059439537781,20.754955229540293,20.795555458222594,0.022473352775884695,-2.1000001430511475,0.0,0.0,0.0,0.0,0.0,0.0,,,,,
pylon_camera_1771859778318164936.png,1771859778318164936,1771859778.318165,42.30097768121492,-83.69797685650178,237.84649658203125,-0.01787741897169759,-0.99952038636159,-0.00893652237446838,-0.023654464828833852,-0.020730000000000002,-0.024780000000000003,0.007510000000000001,-0.5933,0.2247,-11.846200000000001,9.134573299381591,20.43349239631866,25.53999900817871,25.65999984741211,25.43000030517578,25.56999969482422,20.738714673431968,20.83615646129723,20.64939471240555,20.763075507594454,20.7468353386823,0.015334771770100961,-2.1000001430511475,0.0,0.0,0.0,0.0,0.0,0.0,,,,,
pylon_camera_1771859778370227720.png,1771859778370227720,1771859778.3702278,42.300977735716515,-83.69798130055473,237.83895874023438,-0.017940632539709567,-0.9994967034861002,-0.00879879175479854,-0.024638479826266862,0.00559,-0.04866000000000001,0.019000000000000003,-0.7903,1.9618,-9.810400000000001,9.155860105989628,20.48110970549244,25.479999542236328,25.35999870300293,25.479999542236328,25.5,20.68999455389168,20.59255276602642,20.68999455389168,20.706235109999998,20.669694245952442,0.009207730595253328,-2.299999952316284,0.0,0.0,0.0,0.0,0.0,0.0,,,,,
pylon_camera_1771859778421085723.png,1771859778421085723,1771859778.4210856,42.30097782555321,-83.69798797747,237.83026123046875,-0.018079015773254326,-0.9994436016683494,-0.008297683037388728,-0.026772835656290454,0.010620000000000001,-0.07624000000000002,0.015100000000000002,0.3718,1.3747,-9.6609,9.174577750147922,20.522979952415895,25.459999084472656,25.369998931884766,25.5,25.34000015258789,20.673753997783358,20.600673044080583,20.706235109999998,20.576313758702774,20.639243977641677,0.005665065477593833,-2.4000000953674316,0.0,0.0,0.0,0.0,0.0,0.0,,,,,
pylon_camera_1771859778480084248.png,1771859778480084248,1771859778.4800842,42.3009779132891,-83.69799466480657,237.82345581054688,-0.018185644125007394,-0.9993498493408334,-0.00801487369473576,-0.030081934277401846,0.0020800000000000003,-0.11316000000000002,0.004850000000000001,-0.399,1.8293000000000001,-9.4315,9.17510398734117,20.52415711344296,25.34000015258789,25.369998931884766,25.350000381469727,25.369998931884766,20.576313758702774,20.600673044080583,20.584434036756935,20.600673044080583,20.590523470905218,0.00323357286223407,-2.299999952316284,0.0,0.0,0.0,0.0,0.0,0.0,,,,,
pylon_camera_1771859778522244613.png,1771859778522244613,1771859778.5222447,42.3009779684105,-83.69799911857892,237.8196258544922,-0.018225741074544666,-0.9992881502786513,-0.007784989534957999,-0.032099984624539744,-0.004750000000000001,-0.09027000000000002,0.010330000000000002,-1.0643,0.5898,-9.7477,9.159037461004955,20.488217258020423,25.389999389648438,25.31999969482422,25.049999237060547,25.31999969482422,20.616913600188905,20.560073202594452,20.34083034148613,20.560073202594452,20.519472586715985,0.0015255270042260937,-2.299999952316284,0.0,0.0,0.0,0.0,0.0,0.0,,,,,
pylon_camera_1771859778572279008.png,1771859778572279008,1771859778.572279,42.300978026982115,-83.69800357433336,237.8162078857422,-0.018195474471763617,-0.9992083083676857,-0.007615456090746788,-0.03454976159491137,-0.06398000000000001,-0.12447000000000003,0.014790000000000001,-1.5706,-0.5801000000000001,-8.719000000000001,9.147598971378185,20.462630043034718,25.420000076293945,25.34000015258789,25.3799991607666,25.420000076293945,20.641274434351388,20.576313758702774,20.608793322134744,20.641274434351388,20.616913987385075,0.007539790536499201,-2.0,0.0,0.0,0.0,0.0,0.0,0.0,,,,,
pylon_camera_1771859778623975503.png,1771859778623975503,1771859778.6239755,42.30097811122248,-83.69801023761633,237.8091278076172,-0.018312168895378678,-0.9991744757428096,-0.00735791344488855,-0.035509049609452635,-0.0267,-0.05006000000000001,0.006280000000000001,-2.758,-1.8334000000000001,-7.7881,9.119139064314355,20.398966938527355,25.549999237060547,25.35999870300293,25.420000076293945,25.619998931884766,20.74683495148613,20.59255276602642,20.641274434351388,20.803675349080585,20.696084375236133,0.014565317822424354,-1.899999976158142,0.0,0.0,0.0,0.0,0.0,0.0,,,,,
pylon_camera_1771859778675161367.png,1771859778675161367,1771859778.6751614,42.30097819205697,-83.69801687102219,237.792236328125,-0.018393887177865775,-0.9991929719383554,-0.007538410652190778,-0.03490332517574334,0.03475,0.01862,-0.0012900000000000001,-1.8387,2.4721,-8.1769,9.108792136566848,20.375821481971848,25.619998931884766,25.510000228881836,25.68000030517578,25.60999870300293,20.803675349080585,20.714355388054162,20.852397017405547,20.795555071026424,20.791495706391682,0.020400366423882134,-1.899999976158142,0.0,0.0,0.0,0.0,0.0,0.0,,,,,
pylon_camera_1771859778724911677.png,1771859778724911677,1771859778.7249117,42.300978261536756,-83.69802128426761,237.77760314941406,-0.018436360420102826,-0.9992536201247215,-0.006547265754237922,-0.033308206094627896,0.04617,0.07816000000000002,0.0013900000000000002,-0.5655,1.5254,-8.1271,9.101578424506776,20.359684840916188,25.60999870300293,25.60999870300293,25.619998931884766,25.65999984741211,20.795555071026424,20.795555071026424,20.803675349080585,20.83615646129723,20.807735488107667,0.022006757505943643,-1.8000000715255737,0.0,0.0,0.0,0.0,0.0,0.0,,,,,
pylon_camera_1771859778776140922.png,1771859778776140922,1771859778.7761407,42.30097836125918,-83.69802790466835,237.7524871826172,-0.018388485495287488,-0.9993096471340466,-0.005788555912048486,-0.03175823305018831,0.014080000000000002,0.0724,-0.0008200000000000001,-0.2975,-0.3487,-8.9048,9.106103419421496,20.36980698304072,25.760000228881836,25.56999969482422,25.599998474121094,25.489999771118164,20.917357693054164,20.763075507594454,20.78743479297226,20.69811483194584,20.791495706391682,0.020701655332426374,-1.7000000476837158,0.0,0.0,0.0,0.0,0.0,0.0,,,,,
pylon_camera_1771859778825977066.png,1771859778825977066,1771859778.825977,42.30097842812668,-83.69803232035879,237.73556518554688,-0.018343510544116925,-0.9993469017474079,-0.005526567325555199,-0.0306389073299092,0.011330000000000002,0.03236000000000001,-0.00464,-0.7965,-0.44630000000000003,-10.8238,9.121413922467855,20.404055659725245,25.60999870300293,25.559999465942383,25.5,25.529998779296875,20.795555071026424,20.754955229540293,20.706235109999998,20.73059439537781,20.74683495148613,0.016799566589963903,-1.5,0.0,0.0,0.0,0.0,0.0,0.0,,,,,
pylon_camera_1771859778875933205.png,1771859778875933205,1771859778.8759332,42.30097853210407,-83.69803895461162,237.71205139160156,-0.018325704302419865,-0.9993679886339168,-0.00510065279043378,-0.03002957203709425,0.027010000000000003,0.016810000000000002,-0.0018600000000000003,-0.5779000000000001,-0.28350000000000003,-10.9044,9.134293323330741,20.43286610669147,25.599998474121094,25.5,25.559999465942383,25.51999855041504,20.78743479297226,20.706235109999998,20.754955229540293,20.72247411732365,20.74277481245905,0.015167167647914499,-1.2000000476837158,0.0,0.0,0.0,0.0,0.0,0.0,,,,,
pylon_camera_1771859778924055699.png,1771859778924055699,1771859778.9240558,42.300978601684115,-83.69804338559223,237.69854736328125,-0.01833004935356658,-0.9993724843420457,-0.004345048276322415,-0.02999612285245781,0.03622,-0.0068800000000000016,-0.0029100000000000003,-0.056100000000000004,-0.5792,-11.409600000000001,9.14986008914221,20.467688027805778,25.60999870300293,25.53999900817871,25.559999465942383,25.459999084472656,20.795555071026424,20.738714673431968,20.754955229540293,20.673753997783358,20.74074474294551,0.0133408675551815,-0.9000000357627869,0.0,0.0,0.0,0.0,0.0,0.0,,,,,
pylon_camera_1771859778974781438.png,1771859778974781438,1771859778.9747815,42.300978707272726,-83.698050036612,237.68238830566406,-0.018322424509518542,-0.9993617388877412,-0.003685159841816145,-0.0304437711905636,0.033650000000000006,-0.019310000000000004,-0.0010000000000000002,-0.7586,0.41250000000000003,-10.930200000000001,9.146089798517904,20.45925411389664,25.60999870300293,25.53999900817871,25.53999900817871,25.619998931884766,20.795555071026424,20.738714673431968,20.738714673431968,20.803675349080585,20.769164941742737,0.015147709008394091,-0.4000000059604645,0.0,0.0,0.0,0.0,0.0,0.0,,,,,
pylon_camera_1771859779024907154.png,1771859779024907154,1771859779.0249074,42.300978784581936,-83.6980544630425,237.67283630371094,-0.018226079175841625,-0.9993673271869403,-0.0026021721321835,-0.030429986679279337,0.05372000000000001,0.015010000000000003,-0.005800000000000001,-0.6954,0.5959,-10.1478,9.127191286887388,20.416979277289876,25.65999984741211,25.489999771118164,25.60999870300293,25.60999870300293,20.83615646129723,20.69811483194584,20.795555071026424,20.795555071026424,20.78134535882398,0.01784622869943324,-0.20000000298023224,0.0,0.0,0.0,0.0,0.0,0.0,,,,,
pylon_camera_1771859779076088909.png,1771859779076088909,1771859779.076089,42.30097890072899,-83.6980610924251,237.65963745117188,-0.01808283476059691,-0.9993963805293167,-0.0011622387729535028,-0.02964008894987732,0.04769,0.041170000000000005,-0.007760000000000001,-0.675,0.221,-9.669,9.107932328137753,20.373898142104466,25.68000030517578,25.619998931884766,25.60999870300293,25.68000030517578,20.852397017405547,20.803675349080585,20.795555071026424,20.852397017405547,20.826006113729527,0.02219054834139668,0.0,0.0,0.0,28.0,0.0,0.0,0.0,,,,,
pylon_camera_1771859779125891578.png,1771859779125891578,1771859779.1258917,42.300978975500485,-83.6980655058214,237.65097045898438,-0.017939562287474897,-0.9994419578659202,0.0002395221137680599,-0.028176010917566347,0.04683000000000001,0.07592,-0.00177,-0.7165,-0.2053,-9.4293,9.094723603311524,20.34435101719168,25.599998474121094,25.56999969482422,25.739999771118164,25.68000030517578,20.78743479297226,20.763075507594454,20.90111713694584,20.852397017405547,20.826006113729527,0.023675127121569564,0.10000000149011612,0.0,0.0,0.0,0.0,0.0,0.0,,,,,
pylon_camera_1771859779177017149.png,1771859779177017149,1771859779.177017,42.30097908993844,-83.69807212117739,237.63661193847656,-0.01776960676600997,-0.9994918066533985,0.0012857187823049586,-0.026433244888198752,0.033850000000000005,0.06860000000000001,-0.00543,-0.5039,-0.6939000000000001,-10.1005,9.09516614566007,20.34534095787284,25.599998474121094,25.760000228881836,25.65999984741211,25.719999313354492,20.78743479297226,20.917357693054164,20.83615646129723,20.884876580837517,20.856456382040292,0.025121988627557112,0.10000000149011612,0.0,0.0,0.0,0.0,0.0,0.0,,,,,
pylon_camera_1771859779226943716.png,1771859779226943716,1771859779.2269437,42.30097916316574,-83.69807653037759,237.62619018554688,-0.017604049299240643,-0.9995373520754476,0.002240665727503449,-0.024701390069597002,0.037680000000000005,0.06429000000000001,-0.007110000000000001,-0.677,-0.9022,-9.1216,9.093110228240489,20.340741993960282,25.59000015258789,25.719999313354492,25.719999313354492,25.709999084472656,20.779316063702773,20.884876580837517,20.884876580837517,20.87675630278336,20.856456382040292,0.025353764785627755,0.10000000149011612,0.0,0.0,0.0,0.0,0.0,0.0,,,,,
pylon_camera_1771859779278329691.png,1771859779278329691,1771859779.2783296,42.3009792639907,-83.69808314000498,237.60845947265625,-0.017425062740817288,-0.9995929953974975,0.0028032481822630184,-0.022413222444923154,0.030500000000000003,0.06538000000000001,-0.007140000000000001,-0.3553,-0.6895,-9.9716,9.095752467140047,20.346652523844256,25.649999618530273,25.56999969482422,25.559999465942383,25.60999870300293,20.828036183243064,20.763075507594454,20.754955229540293,20.795555071026424,20.78540549785106,0.02156388985817831,0.10000000149011612,0.0,0.0,0.0,0.0,0.0,0.0,,,,,
pylon_camera_1771859779328045924.png,1771859779328045924,1771859779.3280458,42.30097933293797,-83.69808754631599,237.59593200683594,-0.017282127153987803,-0.9996215433492626,0.0034211689132810693,-0.02112803247674935,0.03597000000000001,0.03036,-0.00954,-0.1845,-0.0021000000000000003,-11.9329,9.104416837062708,20.366034199499055,25.60999870300293,25.559999465942383,25.389999389648438,25.43000030517578,20.795555071026424,20.754955229540293,20.616913600188905,20.64939471240555,20.704204653290294,0.01660462957484168,0.10000000149011612,0.0,0.0,16.0,0.0,0.0,0.0,,,,,
pylon_camera_1771859779379369527.png,1771859779379369527,1771859779.3793695,42.30097943334615,-83.69809416542988,237.5829620361328,-0.017084445199708365,-0.9996276730048209,0.004422091090200024,-0.020810627226854863,0.040580000000000005,-0.0038600000000000006,-0.010870000000000001,-0.31220000000000003,0.1625,-11.3955,9.109339265554086,20.377045376688557,25.459999084472656,25.489999771118164,25.459999084472656,25.489999771118164,20.673753997783358,20.69811483194584,20.673753997783358,20.69811483194584,20.685934414864597,0.015158676464911413,0.10000000149011612,0.0,0.0,0.0,0.0,0.0,0.0,,,,,
pylon_camera_1771859779430110556.png,1771859779430110556,1771859779.4301105,42.30097950347508,-83.69809858138677,237.5778350830078,-0.01686360586168084,-0.9996200399606188,0.00578475535150658,-0.02102215764368391,0.051430000000000003,0.00044000000000000007,-0.01165,-0.735,-1.0171000000000001,-10.3758,9.100104839114431,20.356388518808636,25.5,25.56999969482422,25.479999542236328,25.479999542236328,20.706235109999998,20.763075507594454,20.68999455389168,20.68999455389168,20.712324931344455,0.017485243623000468,0.10000000149011612,0.0,0.0,0.0,0.0,0.0,0.0,,,,,
pylon_camera_1771859779482051940.png,1771859779482051940,1771859779.4820518,42.30097960293923,-83.69810520153474,237.5725555419922,-0.016713825825976192,-0.9996140962622339,0.006269105287249051,-0.021283911740881612,0.020160000000000004,0.00855,-0.01119,-1.1427,0.1479,-10.172,9.088706889038312,20.330891988365362,25.549999237060547,25.43000030517578,25.489999771118164,25.53999900817871,20.74683495148613,20.64939471240555,20.69811483194584,20.738714673431968,20.708264792317372,0.018561546840540347,0.10000000149011612,0.0,0.0,0.0,0.0,0.0,0.0,,,,,
pylon_camera_1771859779538798721.png,1771859779538798721,1771859779.5387988,42.300979694130355,-83.69811182507489,237.5694580078125,-0.016682227627606128,-0.9996010139164666,0.00654323327913114,-0.021833514531731175,0.0019700000000000004,-0.016540000000000003,-0.0051,-0.0176,-0.449,-9.402800000000001,9.09080901425177,20.335594316340355,25.3799991607666,25.369998931884766,25.459999084472656,25.420000076293945,20.608793322134744,20.600673044080583,20.673753997783358,20.641274434351388,20.63112369958752,0.014532615995869658,-0.10000000149011612,0.0,0.0,0.0,0.0,0.0,0.0,,,,,
pylon_camera_1771859779582286081.png,1771859779582286081,1771859779.5822861,42.30097975320002,-83.6981162381585,237.56785583496094,-0.01679202801848828,-0.9995855027098606,0.0068565331506685815,-0.022357068691021397,0.020930000000000004,-0.014330000000000002,0.00578,-1.2248,-0.2506,-9.4785,9.079706498928024,20.310758655712057,25.479999542236328,25.44999885559082,25.389999389648438,25.420000076293945,20.68999455389168,20.665633719729193,20.616913600188905,20.641274434351388,20.65345407704029,0.016872605653844266,-0.10000000149011612,0.0,0.0,0.0,0.0,0.0,0.0,,,,,
pylon_camera_1771859779634076895.png,1771859779634076895,1771859779.6340768,42.30097984767899,-83.69812284303737,237.56301879882812,-0.01694022218536323,-0.9995742657303259,0.007803076133213638,-0.022437204925071882,0.04619,0.0026800000000000005,0.0048000000000000004,-1.1983000000000001,-0.046900000000000004,-8.7393,9.064037679573056,20.275708446944154,25.420000076293945,25.369998931884766,25.44999885559082,25.399999618530273,20.641274434351388,20.600673044080583,20.665633719729193,20.625033878243066,20.633153769101057,0.017629239594376518,-0.10000000149011612,0.0,0.0,0.0,0.0,0.0,0.0,,,,,
pylon_camera_1771859779684614740.png,1771859779684614740,1771859779.6846147,42.30097991775148,-83.69812723676897,237.5574188232422,-0.017090017605524033,-0.9995725088250669,0.009039296880834291,-0.02193221400827701,0.04998000000000001,0.022750000000000003,0.005420000000000001,-0.7029000000000001,-0.10260000000000001,-9.1331,9.05410037208745,20.253479286337303,25.34000015258789,25.369998931884766,25.44999885559082,25.389999389648438,20.576313758702774,20.600673044080583,20.665633719729193,20.616913600188905,20.614883530675364,0.017844057271772518,-0.10000000149011612,0.0,0.0,0.0,0.0,0.0,0.0,,,,,
pylon_camera_1771859779734836532.png,1771859779734836532,1771859779.7348366,42.30098002412822,-83.69813381720974,237.5481414794922,-0.01717528664862189,-0.9995752651947875,0.010239798430051187,-0.021200124231245288,0.04244000000000001,0.026960000000000005,-0.0006300000000000001,-0.40740000000000004,-0.33890000000000003,-9.8392,9.043065155952819,20.2287941699571,25.350000381469727,25.35999870300293,25.35999870300293,25.31999969482422,20.584434036756935,20.59255276602642,20.59255276602642,20.560073202594452,20.582403192851057,0.017480479554195075,-0.10000000149011612,0.0,0.0,0.0,0.0,0.0,0.0,,,,,
pylon_camera_1771859779785993894.png,1771859779785993894,1771859779.785994,42.300980095351306,-83.69813820325729,237.54263305664062,-0.01715894378525651,-0.9995813788998708,0.010776075203369196,-0.020652210729570002,0.008350000000000002,0.022240000000000003,0.0018100000000000002,-0.1019,-0.6279,-9.5908,9.038589306560194,20.218781963416763,25.26999855041504,25.299999237060547,25.459999084472656,25.31999969482422,20.519471812323648,20.54383264648613,20.673753997783358,20.560073202594452,20.574282914796896,0.01758270859359211,-0.10000000149011612,0.0,0.0,0.0,0.0,0.0,0.0,,,,,
pylon_camera_1771859779836138223.png,1771859779836138223,1771859779.8361382,42.30098020055439,-83.6981447788656,237.53457641601562,-0.017099265501853478,-0.9995867953101523,0.01067077687613547,-0.020493615633575258,-0.02908,-0.012720000000000002,0.00459,-1.1512,-0.1766,-8.818900000000001,9.02761735603435,20.19423836840748,25.34000015258789,25.239999771118164,25.31999969482422,25.420000076293945,20.576313758702774,20.49511252694584,20.560073202594452,20.641274434351388,20.568193480648613,0.018517911169463153,-0.10000000149011612,0.0,0.0,0.0,0.0,0.0,0.0,,,,,
pylon_camera_1771859779886068972.png,1771859779886068972,1771859779.886069,42.30098026418776,-83.69814915821492,237.52944946289062,-0.017079353265076924,-0.9995946672151221,0.010680668654929015,-0.02011766100269786,0.0029000000000000007,0.01649,0.0035200000000000006,-1.3683,-0.4157,-9.938600000000001,9.015161122230761,20.16637452076288,25.260000228881836,25.28999900817871,25.31999969482422,25.34000015258789,20.511353083054164,20.53571236843197,20.560073202594452,20.576313758702774,20.545863103195842,0.01881788826455886,-0.10000000149011612,0.0,0.0,0.0,0.0,0.0,0.0,,,,,
pylon_camera_1771859779933982349.png,1771859779933982349,1771859779.9339824,42.300980361207465,-83.69815571944504,237.5218048095703,-0.017072591089470845,-0.9996011911966005,0.01077188295269416,-0.019747195483985378,0.022000000000000002,0.030010000000000005,-0.0019300000000000003,-0.9709000000000001,-0.17700000000000002,-10.504900000000001,9.006550129415146,20.14711224649392,25.25,25.28999900817871,25.309999465942383,25.260000228881836,20.503232805,20.53571236843197,20.551952924540288,20.511353083054164,20.525562795256604,0.018784356990344628,-0.10000000149011612,0.0,0.0,0.0,0.0,0.0,0.0,,,,,
pylon_camera_1771859779985215308.png,1771859779985215308,1771859779.9852152,42.30098043422339,-83.69816008780812,237.51730346679688,-0.01700342196056348,-0.9996000328540573,0.011379032147710865,-0.019523718579714768,0.03159000000000001,0.009370000000000002,-0.005960000000000001,-0.6935,-0.0256,-10.4391,8.997998835905939,20.12798351599143,25.19999885559082,25.219999313354492,25.170000076293945,25.229999542236328,20.462631414729195,20.47887197083752,20.43827212935139,20.486992248891678,20.466691940952447,0.016827737596859446,-0.10000000149011612,0.0,0.0,0.0,0.0,0.0,0.0,,,,,
pylon_camera_1771859780034884994.png,1771859780034884994,1771859780.0348852,42.300980543929164,-83.69816663707508,237.51223754882812,-0.016889055869491576,-0.9995971175226661,0.01205289239208257,-0.01936724598901961,0.024790000000000003,0.00015000000000000001,-0.006560000000000001,-0.37010000000000004,0.047,-10.4632,8.990792434609144,20.11186322867458,25.049999237060547,25.1299991607666,25.18000030517578,25.149999618530273,20.34083034148613,20.405791017134746,20.44639240740555,20.422031573243064,20.40376133481737,0.01451372768519115,0.0,0.0,0.0,0.0,0.0,0.0,0.0,,,,,
pylon_camera_1771859780085371242.png,1771859780085371242,1771859780.085371,42.30098061595738,-83.69817100154016,237.51016235351562,-0.016758553605059845,-0.9995910344728767,0.012301040346139408,-0.0196366771352297,0.0016100000000000003,-0.029410000000000006,-0.0044,-1.0158,0.4781,-9.580400000000001,8.983774614485426,20.09616478612703,25.229999542236328,25.01999855041504,25.1299991607666,25.149999618530273,20.486992248891678,20.31646950732365,20.405791017134746,20.422031573243064,20.407821086648283,0.015508247660090787,0.0,0.0,0.0,16.0,0.0,0.0,0.0,,,,,
pylon_camera_1771859780135471967.png,1771859780135471967,1771859780.1354718,42.300980724003075,-83.69817753716433,237.5067596435547,-0.01661817170212032,-0.9995868535163711,0.012675049276976942,-0.019730731672855207,-0.006270000000000001,-0.022170000000000002,0.00262,-1.1508,-0.3607,-9.8031,8.968514652084007,20.0620291658328,25.049999237060547,25.1299991607666,25.149999618530273,25.149999618530273,20.34083034148613,20.405791017134746,20.422031573243064,20.422031573243064,20.397671126276748,0.01673020997375339,0.10000000149011612,0.0,0.0,0.0,0.0,0.0,0.0,,,,,
pylon_camera_1771859780186870774.png,1771859780186870774,1771859780.1868708,42.30098078828249,-83.69818189055134,237.50393676757812,-0.016556506667979753,-0.9995890542131174,0.012839094870328048,-0.019564315147457535,-0.00727,0.0029700000000000004,0.0014000000000000002,-0.595,-1.6323,-10.0648,8.957217226985891,20.03675750373382,24.85999870300293,25.10999870300293,25.119998931884766,25.149999618530273,20.18654815602642,20.38955046102642,20.397670739080585,20.422031573243064,20.34895023234412,0.015581000496318935,0.10000000149011612,0.0,8.0,0.0,0.0,0.0,0.0,,,,,
pylon_camera_1771859780236681757.png,1771859780236681757,1771859780.2366817,42.300980884637376,-83.69818840548707,237.49899291992188,-0.016475104086210557,-0.9995960893423996,0.01320080633632684,-0.01902545213130497,0.023520000000000003,0.02355,-0.007180000000000001,0.4113,-1.858,-9.8256,8.941035045772528,20.0005589352904,24.959999084472656,25.049999237060547,25.03999900817871,25.079999923706055,20.267749387783354,20.34083034148613,20.332710063431968,20.365191175648615,20.326620242087515,0.016302609734660432,0.0,0.0,44.0,0.0,0.0,0.0,0.0,,,,,
pylon_camera_1771859780287850338.png,1771859780287850338,1771859780.2878501,42.30098094894345,-83.69819274685906,237.49513244628906,-0.016405720136693724,-0.9996072452921555,0.013065665279881965,-0.01858751992652454,-0.0054800000000000005,-0.0039700000000000004,-0.0036700000000000005,0.21350000000000002,-1.3422,-9.8785,8.937794732014378,19.993310547832245,24.869998931884766,24.920000076293945,25.01999855041504,25.03999900817871,20.194668434080583,20.235269824351388,20.31646950732365,20.332710063431968,20.2697794572969,0.013828070584069934,0.0,0.0,76.0,0.0,0.0,0.0,0.0,,,,,
pylon_camera_1771859780337638276.png,1771859780337638276,1771859780.3376384,42.30098103590922,-83.69819925070591,237.49005126953125,-0.016361524982577536,-0.9996152061332364,0.012773047571228456,-0.01840079952597407,-0.0074,0.01017,-0.00506,0.4656,-0.3765,-9.6747,8.92433959866016,19.963212221826858,24.959999084472656,24.93000030517578,25.0,25.01999855041504,20.267749387783354,20.24339010240555,20.3002305,20.31646950732365,20.28195987437814,0.015966751693536407,0.0,0.0,168.0,0.0,0.0,0.0,0.0,,,,,
