image_filename,timestamp_ns,timestamp_sec,latitude,longitude,altitude,orientation_x,orientation_y,orientation_z,orientation_w,angular_velocity_x,angular_velocity_y,angular_velocity_z,linear_acceleration_x,linear_acceleration_y,linear_acceleration_z,vehicle_speed_mps,vehicle_speed_mph,wheel_speed_fl_rads,wheel_speed_fr_rads,wheel_speed_rl_rads,wheel_speed_rr_rads,wheel_speed_fl_mph,wheel_speed_fr_mph,wheel_speed_rl_mph,wheel_speed_rr_mph,avg_wheel_speed_mph,wheel_slip,steering_angle_deg,throttle_pedal,brake_pedal,brake_torque_actual,abs_active,esc_active,trac_active,marwis_road_condition,marwis_friction,marwis_surface_temp_c,marwis_ice_percent,marwis_water_film_height
frame_00000.png,1771859619083658414,1771859619.0836585,42.30096939578555,-83.69708643642983,238.66336059570312,0.0006402253860366413,-0.9998765626477463,-0.010121325928154342,-0.012000347521577607,-0.00021000000000000004,0.007040000000000001,6e-05,-0.0106,0.1652,-9.611,0.009022284955587162,0.020182310108551146,0.0,0.0,0.0,0.0,0.0,0.0,0.0,0.0,0.0,0.0,-9.0,32.47500228881836,0.0,0.0,0.0,0.0,0.0,,,,,
frame_00001.png,1771859619142218645,1771859619.1422188,42.300969396739056,-83.69708645303261,238.66238403320312,0.0006381472238208286,-0.9998807732302917,-0.010128198058424201,-0.011638371733364803,-0.0013700000000000001,0.016690000000000003,2e-05,0.44270000000000004,0.149,-9.6974,0.042311819701966215,0.09464900196411631,0.0,0.0,0.0,0.0,0.0,0.0,0.0,0.0,0.0,0.0,-9.100000381469727,32.125,0.0,0.0,0.0,0.0,0.0,,,,,
frame_00002.png,1771859619173406442,1771859619.1734064,42.30096939741439,-83.69708648043127,238.66143798828125,0.0006305510392303759,-0.9998831961535082,-0.010137546172590698,-0.011420447137947994,-0.0004000000000000001,0.013160000000000002,-0.0010800000000000002,0.6634,0.2376,-9.783100000000001,0.06849358246675945,0.1532160343631929,0.0,0.0,0.0,0.0,0.0,0.0,0.0,0.0,0.0,0.0,-9.100000381469727,31.600000381469727,0.0,0.0,0.0,0.0,0.0,,,,,
frame_00003.png,1771859619223381649,1771859619.2233818,42.300969397017006,-83.69708653215366,238.66041564941406,0.0006274811925992552,-0.9998887892297939,-0.010135368076905658,-0.010921984887150312,0.00024,0.02177,-0.0010000000000000002,1.2106000000000001,0.221,-9.6303,0.12870138986699423,0.2878972870490741,0.0,0.0,0.0,0.0,0.0,0.0,0.0,0.0,0.0,0.0,-9.40000057220459,31.075000762939453,0.0,0.0,0.0,0.0,0.0,,,,,
frame_00004.png,1771859619272302950,1771859619.2723029,42.30096939614622,-83.69708660834186,238.65914916992188,0.0006080598350550748,-0.9998965399889774,-0.01011695451945127,-0.010207194157049619,0.00109,0.030520000000000005,0.0017400000000000002,2.3368,0.1254,-9.376100000000001,0.2336048943551166,0.5225601323787346,0.0,0.0,0.0,0.0,0.0,0.0,0.0,0.0,0.0,0.0,-9.90000057220459,29.80000114440918,0.0,0.0,0.0,0.0,0.0,,,,,
frame_00005.png,1771859619321338401,1771859619.3213384,42.30096939331224,-83.69708681579164,238.65615844726562,0.0005707382482330048,-0.9999041643344263,-0.010118861245970796,-0.009431068423529245,-0.0026000000000000003,0.0013000000000000002,-0.0008000000000000001,2.4087,-0.3572,-9.757100000000001,0.369006031044163,0.8254443510839301,0.0,0.0,0.0,0.0,0.0,0.0,0.0,0.0,0.0,0.0,-10.5,25.899999618530273,0.0,0.0,0.0,0.0,0.0,,,,,
frame_00006.png,1771859619372077723,1771859619.372078,42.30096938994184,-83.69708702796237,238.6537628173828,0.0005244202831865552,-0.9999142611176615,-0.01007665442616125,-0.008346042922461445,2e-05,0.004110000000000001,0.007410000000000001,2.2782,0.6258,-10.5204,0.5336924912010699,1.1938380812673213,0.0,0.0,0.0,0.85999995470047,0.0,0.0,0.0,0.698327892416364,0.174581973104091,0.8537641110268797,-11.0,23.80000114440918,0.0,0.0,0.0,0.0,0.0,,,,,
frame_00007.png,1771859619422396007,1771859619.422396,42.30096938662524,-83.69708746011617,238.6515350341797,0.00046546420506371483,-0.9999214325095964,-0.01005196817854817,-0.007474629540518374,0.0021400000000000004,0.012830000000000001,0.0038900000000000002,2.6478,0.3279,-10.6493,0.6995468717328599,1.5648443792541038,1.6200000047683716,1.209999918937683,0.0,1.4199999570846558,1.3154549402719617,0.9825310903766513,0.0,1.1530530575523448,0.8627597720502396,0.44866097645985653,-11.100000381469727,23.475000381469727,0.0,0.0,0.0,0.0,0.0,,,,,
frame_00008.png,1771859619473608469,1771859619.4736085,42.30096938285377,-83.69708803364661,238.65194702148438,0.00042661662864224026,-0.9999245206283467,-0.009995613978206795,-0.007131531786499302,0.0024000000000000002,-0.0016000000000000003,0.00217,3.1145,0.1961,-10.4536,0.8599075426671567,1.9235615784938698,1.9399999380111694,1.96999990940094,1.9499999284744263,1.7999999523162842,1.5752978364644983,1.599658089832728,1.5834179209205748,1.4616165572803832,1.5549976011245459,0.19160497978853683,-11.100000381469727,23.725000381469727,0.0,0.0,0.0,0.0,0.0,,,,,
frame_00009.png,1771859619531844328,1771859619.5318444,42.30096937869332,-83.69708849928556,238.6533660888672,0.00036509834384912404,-0.9999241487149128,-0.009929705351123903,-0.007277669379411924,0.0022,-0.0071200000000000005,0.0023100000000000004,2.6906000000000003,0.24480000000000002,-9.950800000000001,1.0375494811420276,2.3209359363458475,2.4600000381469727,2.490000009536743,2.5,2.3899998664855957,1.9975427121756935,2.0219029655439233,2.03002305,1.9407019273850727,1.9975426637761724,0.1393374403426384,-11.0,23.625,0.0,0.0,0.0,0.0,0.0,,,,,
frame_00010.png,1771859619582480362,1771859619.5824804,42.300969371306074,-83.69708929700704,238.65550231933594,0.00028019090246139694,-0.9999231699632889,-0.00988960405982487,-0.007468024850352637,8e-05,-0.007000000000000001,0.0026100000000000003,2.475,0.1203,-9.5073,1.1864596719677458,2.6540390986115296,2.8899998664855957,2.9099998474121094,2.93999981880188,3.049999952316284,2.3467065373850726,2.362946706297226,2.3873069596654557,2.4766280822803832,2.3933970714070343,0.09820579785009619,-10.90000057220459,24.149999618530273,0.0,0.0,0.0,0.0,0.0,,,,,
frame_00011.png,1771859619623946962,1771859619.623947,42.300969364572936,-83.69708989375705,238.6566162109375,0.00016766402529366794,-0.9999227992247617,-0.009899260051207545,-0.0075081375673330545,0.00020000000000000004,-0.005690000000000001,0.00585,2.8337000000000003,0.1096,-9.3396,1.3025416841810458,2.9137075950119486,3.259999990463257,3.25,3.319999933242798,3.419999837875366,2.6471500494560765,2.6390299649999998,2.6958705561925367,2.777071400753303,2.689780492850479,0.07685297678628299,-10.90000057220459,24.375,0.0,0.0,0.0,0.0,0.0,,,,,
frame_00012.png,1771859619675009035,1771859619.675009,42.3009693528588,-83.69709089888374,238.65699768066406,2.1111425510478366e-05,-0.9999235109084031,-0.00992168145207462,-0.007384586927108274,0.0013300000000000002,0.00534,0.005350000000000001,2.8957,0.1355,-9.3771,1.4383184326690228,3.217432034774644,3.7799999713897705,3.7799999713897705,3.809999942779541,3.7300000190734863,3.06939482836823,3.06939482836823,3.0937550817364596,3.028794406087847,3.0653347861401916,0.04727287072129427,-10.699999809265137,25.17500114440918,0.0,0.0,0.0,0.0,0.0,,,,,
frame_00013.png,1771859619725166397,1771859619.7251663,42.300969344392456,-83.69709163699645,238.65652465820312,-0.00011048852356837494,-0.9999249305779142,-0.009946281775742832,-0.007154892024146065,-0.00136,0.00909,0.00384,2.8566000000000003,0.0142,-9.5722,1.57278652967553,3.51822909969238,4.179999828338623,4.190000057220459,4.21999979019165,4.150000095367432,3.3941984002093792,3.4023186782635406,3.426678738033686,3.369838340439234,3.39825853923646,0.03409970103038758,-10.40000057220459,25.600000381469727,0.0,0.0,0.0,0.0,0.0,,,,,
frame_00014.png,1771859619776085851,1771859619.7760859,42.300969330505886,-83.69709283787381,238.6556396484375,-0.00024084762754605907,-0.9999265640868347,-0.009948956906231626,-0.006915683798133785,-0.00102,0.009020000000000002,0.0049700000000000005,2.7008,0.031,-9.8497,1.7067073623703881,3.817801967180816,4.559999942779541,4.549999713897705,4.569999694824219,4.519999980926514,3.7027619967364602,3.694641718682299,3.710881887594452,3.6702816589121534,3.694641815481341,0.03225943953044281,-9.699999809265137,25.850000381469727,0.0,0.0,0.0,0.0,0.0,,,,,
frame_00015.png,1771859619826237474,1771859619.8262374,42.30096932048204,-83.69709370768867,238.6552276611328,-0.0003635678484623649,-0.9999275253509511,-0.009982715734867986,-0.006719914471166494,0.00117,0.00727,0.004620000000000001,2.5403000000000002,0.2403,-10.1617,1.8378006588624682,4.11104980583581,5.0,4.880000114440918,4.900000095367432,4.960000038146973,4.0600461,3.962605086527081,3.978845255439234,4.027565762175694,4.007265551035502,0.025245195193933652,-9.0,26.05000114440918,0.0,0.0,0.0,0.0,0.0,,,,,
frame_00016.png,1771859619877059911,1771859619.87706,42.30096930480173,-83.69709509934741,238.65509033203125,-0.0005006984692175752,-0.9999282234025397,-0.009982374189988378,-0.0066067805786682145,0.0036100000000000004,0.0059700000000000005,0.004300000000000001,2.5849,0.1549,-10.1151,1.9668393130160333,4.399701532858086,5.299999713897705,5.279999732971191,5.319999694824219,5.259999752044678,4.3036486336822986,4.287408464770145,4.319888802594452,4.271168295857993,4.295528549226222,0.02367728420982057,-8.699999809265137,26.0,0.0,0.0,0.0,0.0,0.0,,,,,
frame_00017.png,1771859619926984941,1771859619.926985,42.300969294024654,-83.69709608271361,238.65541076660156,-0.0006470777638297175,-0.9999283876302781,-0.009982940519705146,-0.00656824177840063,0.0025800000000000003,0.00103,0.0038200000000000005,2.4849,0.1358,-9.9838,2.0933029322483807,4.6825930612636935,5.670000076293945,5.650000095367432,5.670000076293945,5.62999963760376,4.604092339351387,4.587852170439234,4.604092339351387,4.571611614330912,4.5919121158682294,0.01936554046210283,-8.699999809265137,26.75,0.0,0.0,0.0,0.0,0.0,,,,,
frame_00018.png,1771859619978346175,1771859619.9783463,42.300969277145725,-83.69709765848891,238.65647888183594,-0.0008071626749378001,-0.9999284561822205,-0.009960386792027785,-0.006574321288965053,0.00064,0.0007400000000000001,0.0038500000000000006,2.3193,-0.0682,-9.8797,2.2413532129163545,5.013772656101111,6.0,6.0,6.009999752044678,6.069999694824219,4.87205532,4.87205532,4.880175210857993,4.928895717594452,4.888295392113111,0.025026516476631618,-8.800000190734863,27.0,0.0,0.0,0.0,0.0,0.0,,,,,
frame_00019.png,1771859620028380654,1771859620.0283806,42.30096926543109,-83.6970987714338,238.65737915039062,-0.0009507187385584536,-0.9999285447661552,-0.009928930856827079,-0.006589220572978837,0.0036900000000000006,-0.0018900000000000002,0.0055000000000000005,2.3146,-0.0207,-9.7811,2.3381906390665095,5.230392168153438,6.37999963760376,6.37999963760376,6.429999828338623,6.369999885559082,5.180618529330912,5.180618529330912,5.221219145209379,5.17249863847292,5.188738710586031,0.007963735075359133,-9.0,27.325000762939453,0.0,0.0,0.0,0.0,0.0,,,,,
frame_00020.png,1771859620088087151,1771859620.088087,42.30096924606949,-83.69710052827557,238.6588897705078,-0.0011272407461884182,-0.9999281485108382,-0.009910192031825239,-0.0066494539534905734,0.0029300000000000003,-0.004620000000000001,0.005870000000000001,2.3323,0.051300000000000005,-9.9029,2.483029742106179,5.554388551306996,6.730000019073486,6.730000019073486,6.789999961853027,6.819999694824219,5.464822066087847,5.464822066087847,5.513542572824306,5.537902632594451,5.495272334398614,0.01064315475273543,-9.5,27.325000762939453,0.0,0.0,0.0,0.0,0.0,,,,,
frame_00021.png,1771859620130441299,1771859620.1304412,42.300969232459224,-83.69710176031411,238.659912109375,-0.001334879457139393,-0.9999273608986161,-0.009901673807818607,-0.006741504206576143,0.0051600000000000005,-0.0027300000000000007,0.007040000000000001,2.3006,0.0653,-10.007100000000001,2.5992770187440337,5.814426734309279,7.029999732971191,7.0,7.049999713897705,7.069999694824219,5.7084245997701455,5.6840645400000005,5.724664768682299,5.740904937594452,5.714514711511724,0.017183469215976733,-9.699999809265137,27.075000762939453,0.0,0.0,0.0,0.0,0.0,,,,,
frame_00022.png,1771859620181640602,1771859620.1816406,42.30096921084569,-83.69710368762551,238.66148376464844,-0.0015592023783674858,-0.9999261750041908,-0.009912969407544173,-0.006851749189552587,0.0032600000000000003,-0.007630000000000001,0.006080000000000001,2.3452,-0.0021000000000000003,-9.897300000000001,2.7149435178998558,6.073165752930904,7.480000019073486,7.389999866485596,7.440000057220459,7.440000057220459,6.073828981087847,6.0007480273850735,6.041348643263541,6.041348643263541,6.03931857375,0.005573234875825514,-9.800000190734863,27.225000381469727,0.0,0.0,0.0,0.0,0.0,,,,,
frame_00023.png,1771859620231831086,1771859620.231831,42.30096919678714,-83.69710502170953,238.66250610351562,-0.0017718626944038252,-0.9999253166616566,-0.00989833169283421,-0.006945835541983474,0.00354,-0.00458,0.007090000000000001,2.1582,0.30970000000000003,-9.7399,2.8279156095848537,6.325877543704743,7.779999732971191,7.799999713897705,7.779999732971191,7.759999752044678,6.317431514770146,6.333671683682299,6.317431514770146,6.301191345857993,6.317431514770146,0.0013351553007854638,-9.800000190734863,26.92500114440918,0.0,0.0,0.0,0.0,0.0,,,,,
frame_00024.png,1771859620280994514,1771859620.2809947,42.300969178304285,-83.69710711413326,238.66409301757812,-0.0019631651647546433,-0.9999241045154184,-0.009901250233393196,-0.007063740892068526,0.00042000000000000007,-0.0026500000000000004,0.007440000000000001,2.1089,0.4892,-9.7476,2.939955424266121,6.576503886757858,8.119999885559082,7.989999771118164,8.069999694824219,8.09000015258789,6.59351477347292,6.487953481945839,6.5529141575944525,6.569154713702774,6.5508842816789965,0.0038956268436863488,-9.699999809265137,26.774999618530273,0.0,0.0,0.0,0.0,0.0,,,,,
frame_00025.png,1771859620331239422,1771859620.3312395,42.30096916911688,-83.69710856590989,238.66525268554688,-0.0021541554339007396,-0.9999221108650951,-0.009934982064025343,-0.0072407146640913935,-0.00010000000000000002,-0.00595,0.00578,2.1395,0.269,-9.829600000000001,3.050685536319089,6.824200503613623,8.369999885559082,8.359999656677246,8.40999984741211,8.34999942779541,6.796517078472919,6.7883968004187585,6.828997416297226,6.7802765223645975,6.798546954388375,0.00375920215293547,-9.5,27.075000762939453,0.0,0.0,0.0,0.0,0.0,,,,,
frame_00026.png,1771859620382095365,1771859620.3820953,42.3009691526568,-83.69711082083101,238.66690063476562,-0.0023555578581674896,-0.9999198543642145,-0.009994094404744564,-0.007406367021265784,-0.0015500000000000002,-0.007700000000000001,0.007280000000000001,1.9646000000000001,0.08940000000000001,-9.7578,3.159560448056798,7.067747148676173,8.779999732971191,8.65999984741211,8.6899995803833,8.720000267028809,7.129440734770146,7.031999721297225,7.056359781067372,7.080720615229854,7.074630213091149,0.0009738696461806793,-9.300000190734863,27.024999618530273,0.0,0.0,0.0,0.0,0.0,,,,,
frame_00027.png,1771859620431911428,1771859620.4319115,42.300969140759236,-83.6971123804696,238.6679229736328,-0.002572360243314309,-0.9999176008029109,-0.010013423003130907,-0.00760959441032466,-0.0030900000000000003,-0.007360000000000001,0.00837,1.9019000000000001,0.1792,-9.7721,3.2672032094753667,7.308537547403827,9.039999961853027,8.949999809265137,9.039999961853027,9.039999961853027,7.340563317824307,7.267482364121533,7.340563317824307,7.340563317824307,7.322293079398612,0.0018821182631361259,-9.100000381469727,26.975000381469727,0.0,0.0,0.0,0.0,0.0,,,,,
frame_00028.png,1771859620483234888,1771859620.483235,42.300969123755074,-83.69711479217396,238.6693878173828,-0.0027705606741158517,-0.9999152084092621,-0.01004029624655204,-0.007816165088743351,-0.00256,-0.007140000000000001,0.00875,1.8445,0.13240000000000002,-9.9588,3.373531835814789,7.546388304807535,9.289999961853027,9.25,9.309999465942383,9.319999694824219,7.543565622824306,7.511085285,7.559805404540291,7.567925682594453,7.545595498739763,0.00010505768266220054,-8.800000190734863,26.950000762939453,0.0,0.0,0.0,0.0,0.0,,,,,
frame_00029.png,1771859620533000837,1771859620.533001,42.300969112869595,-83.69711644556716,238.6703643798828,-0.00295285418359148,-0.9999128485959017,-0.010071256589353726,-0.008009098308245918,-0.004020000000000001,-0.0030700000000000002,0.006630000000000001,1.752,-0.030000000000000002,-9.9581,3.4746317798686497,7.772542813659378,9.579999923706055,9.569999694824219,9.6899995803833,9.579999923706055,7.779048265648614,7.770927987594452,7.8683690010673715,7.779048265648614,7.7993483799897625,0.0034487511967482487,-8.40000057220459,26.80000114440918,0.0,0.0,0.0,0.0,0.0,,,,,
frame_00030.png,1771859620584055835,1771859620.584056,42.30096909782335,-83.69711900571416,238.67251586914062,-0.003145550924461449,-0.9999109757412095,-0.010140964714653217,-0.008081270710745006,-0.005900000000000001,0.0009100000000000001,0.007490000000000002,1.6789,0.1441,-9.9087,3.5711139284031086,7.98836759100205,9.880000114440918,9.84000015258789,9.899999618530273,9.869999885559082,8.02265118652708,7.990170848702774,8.038890968243065,8.014530908472919,8.01656097798646,0.0035293051631933255,-8.300000190734863,27.05000114440918,0.0,0.0,0.0,0.0,0.0,,,,,
frame_00031.png,1771859620634253885,1771859620.6342537,42.30096908243046,-83.6971216491361,238.67503356933594,-0.003319712439212752,-0.9999103994758878,-0.010179223812331281,-0.008034670613642509,-0.0006900000000000001,0.0028200000000000005,0.0051600000000000005,1.7292,0.06810000000000001,-10.0622,3.666209816082737,8.20109138598812,10.1899995803833,10.109999656677246,10.179999351501465,10.15999984741211,8.274373611067372,8.20941293541876,8.26625333301321,8.250013551297226,8.250013357699142,0.0059653001543926,-8.300000190734863,27.075000762939453,0.0,0.0,0.0,0.0,0.0,,,,,
frame_00032.png,1771859620685216302,1771859620.6852162,42.30096907375018,-83.69712345924567,238.67706298828125,-0.0034799853658362134,-0.9999115866197881,-0.0100923510543987,-0.007927994421439497,0.00384,0.00436,0.00512,1.7479,-0.09530000000000001,-10.1456,3.761615366753545,8.414507878505676,10.4399995803833,10.420000076293945,10.40999984741211,10.420000076293945,8.477375916067372,8.461136134351387,8.453015856297226,8.461136134351387,8.463166010266843,0.005782647359028691,-8.40000057220459,26.950000762939453,0.0,0.0,0.0,0.0,0.0,,,,,
frame_00033.png,1771859620735492495,1771859620.7354927,42.30096906100007,-83.69712623962916,238.68019104003906,-0.003639942480549274,-0.9999130096047766,-0.009974503460640969,-0.007825172366784877,0.0035700000000000007,0.004090000000000001,0.008270000000000001,1.7105000000000001,-0.0318,-9.968300000000001,3.855245611187628,8.623953117490053,10.719999313354492,10.639999389648438,10.6899995803833,10.679999351501465,8.704738280837518,8.639777605188904,8.680378221067372,8.67225794301321,8.674288012526752,0.0058366382969563336,-8.5,26.774999618530273,0.0,0.0,0.0,0.0,0.0,,,,,
frame_00034.png,1771859620786549490,1771859620.7865496,42.30096905094211,-83.69712814229447,238.6826629638672,-0.00383060923355405,-0.9999134405365706,-0.00991581829413332,-0.00775334861695561,-0.00042000000000000007,0.00109,0.010230000000000003,1.6900000000000002,0.018000000000000002,-9.919500000000001,3.9484435889667373,8.832431401903253,10.969999313354492,10.889999389648438,11.0,10.960000038146973,8.907740585837518,8.842779910188904,8.93210142,8.899621082175694,8.895560749550528,0.007147448394976621,-8.800000190734863,26.350000381469727,0.0,0.0,0.0,0.0,0.0,,,,,
frame_00035.png,1771859620836567020,1771859620.836567,42.30096903513131,-83.69713105752439,238.68661499023438,-0.004065921496883618,-0.999911536708822,-0.010028068936793063,-0.0077346539923907045,-0.005940000000000001,0.0019700000000000004,0.008060000000000001,1.6369,-0.026000000000000002,-9.9039,4.038982995753974,9.034962622521896,11.199999809265137,11.130000114440918,11.210000038146973,11.1899995803833,9.094503109121534,9.037662711527082,9.102623387175694,9.086382831067372,9.08029300972292,0.005017219118098796,-9.199999809265137,26.149999618530273,0.0,0.0,0.0,0.0,0.0,,,,,
frame_00036.png,1771859620888393301,1771859620.8883932,42.30096902517882,-83.69713303991938,238.68899536132812,-0.004371547230926032,-0.9999097923424174,-0.010071199832518522,-0.007737421177945146,0.0034400000000000008,-0.00012,0.009650000000000002,1.4801,0.09190000000000001,-9.8248,4.143501907010472,9.268765155868005,11.469999313354492,11.469999313354492,11.5,11.449999809265137,9.313745195837516,9.313745195837516,9.33810603,9.297505414121533,9.31577545894914,0.005071905727525479,-9.40000057220459,26.25,0.0,0.0,0.0,0.0,0.0,,,,,
frame_00037.png,1771859620937124554,1771859620.9371245,42.30096901153807,-83.69713608403282,238.69248962402344,-0.0045965842830101855,-0.9999100280034714,-0.00996408996660241,-0.007715194240168525,0.007600000000000001,-0.0004900000000000001,0.010220000000000002,1.4949000000000001,0.1265,-9.709200000000001,4.214010543954267,9.42648874619306,11.710000038146973,11.619999885559082,11.729999542236328,11.670000076293945,9.508627997175694,9.435547043472921,9.524867778891679,9.476147659351389,9.48629761972292,0.006344766873456933,-9.40000057220459,26.05000114440918,0.0,0.0,0.0,0.0,0.0,,,,,
frame_00038.png,1771859620997285531,1771859620.9972856,42.300968999442915,-83.69713920178806,238.69520568847656,-0.004962599551884661,-0.9999099880177447,-0.009924181745301124,-0.007543148197370596,0.00135,0.00821,0.011050000000000003,1.5589000000000002,0.3078,-9.6033,4.31683091962072,9.656491757336376,12.109999656677246,11.920000076293945,12.029999732971191,12.0,9.833431375418758,9.679149964351387,9.768470699770145,9.74411064,9.756290669885072,0.01033490371623579,-9.40000057220459,24.899999618530273,0.0,0.0,0.0,0.0,0.0,,,,,
frame_00039.png,1771859621046890516,1771859621.0468905,42.300968994072676,-83.69714132184727,238.69671630859375,-0.005230809476248877,-0.9999118364297415,-0.009737201645617925,-0.007358322093922083,0.00833,0.0046300000000000004,0.01025,1.8854000000000002,0.26380000000000003,-9.8283,4.404883256817939,9.853459552506322,12.269999504089355,12.269999504089355,12.269999504089355,12.279999732971191,9.963352726715986,9.963352726715986,9.963352726715986,9.971473004770145,9.965382796229525,0.011358776389834953,-9.300000190734863,24.30000114440918,0.0,0.0,0.0,0.0,0.0,,,,,
frame_00040.png,1771859621089012813,1771859621.0890126,42.30096899137916,-83.69714347536413,238.6977996826172,-0.0054751017564732,-0.9999146655718736,-0.009330159895540518,-0.007323452148286342,0.019270000000000002,-0.00444,0.01076,1.6952,0.2718,-9.8261,4.487485332631426,10.038235439976543,12.4399995803833,12.380000114440918,12.5,12.369999885559082,10.101394356067372,10.05267423652708,10.15011525,10.04455395847292,10.087184450266843,0.004876256447957442,-9.100000381469727,24.80000114440918,0.0,0.0,0.0,0.0,0.0,,,,,
frame_00041.png,1771859621139132558,1771859621.1391327,42.3009689909377,-83.69714675892506,238.69944763183594,-0.00572046268400328,-0.9999189450153766,-0.008794077856671134,-0.007214145872385286,0.021490000000000002,0.0022400000000000007,0.010000000000000002,1.4552,0.046200000000000005,-9.8565,4.559738480487903,10.19986139654261,12.639999389648438,12.609999656677246,12.65999984741211,12.579999923706055,10.263796045188904,10.23943598541876,10.280036601297226,10.215075925648613,10.249586139388375,0.004875041033657545,-8.699999809265137,24.575000762939453,0.0,0.0,0.0,0.0,0.0,,,,,
frame_00042.png,1771859621190828697,1771859621.1908288,42.30096899170281,-83.69714898007325,238.70040893554688,-0.00599045386591418,-0.9999225007986181,-0.008423375574914396,-0.0069392797206873835,0.011850000000000001,0.01068,0.011790000000000002,1.2926,0.006500000000000001,-9.798,4.63150651519553,10.360402184101488,12.90999984741211,12.819999694824219,12.929999351501465,12.84999942779541,10.483038906297226,10.409957952594452,10.499278688013211,10.434318012364598,10.456648389817373,0.009289813658351832,-8.199999809265137,24.774999618530273,0.0,0.0,0.0,0.0,0.0,,,,,
frame_00043.png,1771859621241943239,1771859621.2419434,42.300968989629816,-83.69715237120937,238.70211791992188,-0.006287269980316812,-0.9999246427205823,-0.008253280072950524,-0.0065622011815948894,0.006280000000000001,0.019800000000000005,0.012870000000000003,1.1668,0.0329,-10.0793,4.704659324755346,10.524040629918224,13.09999942779541,13.09999942779541,13.119999885559082,13.039999961853027,10.637320317364598,10.637320317364598,10.65356087347292,10.588600197824306,10.629200426506605,0.009992340421931516,-7.900000095367432,24.700000762939453,0.0,0.0,0.0,0.0,0.0,,,,,
frame_00044.png,1771859621291000918,1771859621.2910008,42.30096898485285,-83.69715466557163,238.70388793945312,-0.006585481579225005,-0.9999258405503795,-0.008062486969106957,-0.00631989998812578,0.007640000000000001,0.010640000000000002,0.012820000000000003,1.1221,-0.2982,-10.368,4.778799448903263,10.689887639229667,13.329999923706055,13.269999504089355,13.34999942779541,13.25,10.824082840648614,10.775361946715984,10.840322622364598,10.759122165,10.799722393682298,0.010274640684674787,-7.900000095367432,24.67500114440918,0.0,0.0,0.0,0.0,0.0,,,,,
frame_00045.png,1771859621340732510,1771859621.3407323,42.30096897069187,-83.69715815904277,238.70777893066406,-0.006915072423828772,-0.9999225286652554,-0.008183800576545382,-0.006335917390397021,-0.00429,-0.0036600000000000005,0.012420000000000002,1.1196000000000002,-0.028200000000000003,-10.4281,4.851784856068155,10.8531516159331,13.489999771118164,13.34999942779541,13.429999351501465,13.420000076293945,10.954004191945838,10.840322622364598,10.905283298013211,10.897163794351389,10.89919347666876,0.004242257213846262,-7.900000095367432,24.850000381469727,0.0,0.0,0.0,0.0,0.0,,,,,
frame_00046.png,1771859621391681059,1771859621.391681,42.30096895951552,-83.69716052766493,238.71139526367188,-0.007230080070206646,-0.9999159658698491,-0.008449386560260565,-0.006662957864205189,-0.010340000000000002,-0.01284,0.01124,1.3168,0.0872,-10.3032,4.92463853305914,11.016120920141313,13.649999618530273,13.639999389648438,13.649999618530273,13.59999942779541,11.083925543243065,11.075805265188903,11.083925543243065,11.043324927364598,11.071745319759906,0.0050493635665247215,-7.800000190734863,24.725000381469727,0.0,0.0,0.0,0.0,0.0,,,,,
frame_00047.png,1771859621441654551,1771859621.4416544,42.30096894162096,-83.6971641253894,238.7178955078125,-0.0075542233145813875,-0.9999061695026492,-0.008825605579102249,-0.007259103719827686,-0.0165,-0.028350000000000004,0.013040000000000001,1.2647000000000002,0.41960000000000003,-9.9039,4.99117806333833,11.164965857004045,13.799999237060547,13.719999313354492,13.819999694824219,13.769999504089355,11.20572661648613,11.140765940837518,11.221967172594454,11.181366556715986,11.187456571658522,0.002014400665665119,-7.800000190734863,24.700000762939453,0.0,0.0,0.0,0.0,0.0,,,,,
frame_00048.png,1771859621492246895,1771859621.4922469,42.30096893122388,-83.69716655251288,238.72203063964844,-0.007845620733987924,-0.9998974992799871,-0.009184032955560698,-0.007687048041845454,-0.011760000000000001,-0.017450000000000004,0.010730000000000002,1.0832000000000002,0.6387,-9.354800000000001,5.0508498900586645,11.29844815306783,13.969999313354492,13.960000038146973,14.069999694824219,13.989999771118164,11.343768245837518,11.335648742175692,11.424969477594452,11.36000880194584,11.366098816888375,0.005987606696427303,-7.700000286102295,19.575000762939453,0.0,0.0,0.0,0.0,0.0,,,,,
frame_00049.png,1771859621542308896,1771859621.5423088,42.30096892243501,-83.69717023743796,238.7271728515625,-0.00809213028871969,-0.9998929118497581,-0.009238396837904608,-0.007958283977550709,0.0069900000000000006,-0.006430000000000001,0.008830000000000003,1.0395,0.5603,-9.570400000000001,5.110983013087266,11.43296234129543,14.139999389648438,14.210000038146973,14.199999809265137,14.170000076293945,11.481809875188905,11.538651047175694,11.530530769121533,11.506170709351387,11.51429060020938,0.007113489617664041,-7.5,0.0,0.0,0.0,0.0,0.0,0.0,,,,,
frame_00050.png,1771859621593691348,1771859621.5936913,42.30096892405007,-83.69717397218908,238.73118591308594,-0.008309438392192836,-0.9998914726855495,-0.009016930462167666,-0.008166458802296047,0.007660000000000001,-0.007160000000000001,0.006940000000000001,1.1705,0.4415,-9.8461,5.172765798699529,11.571166725742925,14.34000015258789,14.279999732971191,14.329999923706055,14.329999923706055,11.644212338702776,11.595491444770145,11.636092060648613,11.636092060648613,11.627971976192537,0.004909206806538755,-7.400000095367432,0.0,0.0,0.0,0.0,0.0,0.0,,,,,
frame_00051.png,1771859621643573750,1771859621.6435738,42.30096892916074,-83.69717648781099,238.7335662841797,-0.00851259899055834,-0.9998892944809031,-0.00882753298965126,-0.00842668987353061,0.00858,-0.016370000000000003,0.00562,0.7985,0.2669,-9.492,5.226584102715439,11.691555042728274,14.50999927520752,14.50999927520752,14.469999313354492,14.489999771118164,11.782253193661825,11.782253193661825,11.749772855837517,11.76601341194584,11.770073163776752,0.00671579792093731,-7.400000095367432,0.0,0.0,0.0,0.0,0.0,0.0,,,,,
frame_00052.png,1771859621694392453,1771859621.6943927,42.30096894165089,-83.69718029850006,238.736572265625,-0.00868246302355341,-0.9998898415990807,-0.008501792377163541,-0.008522853347669876,0.017320000000000002,-0.0007400000000000001,0.005000000000000001,0.36010000000000003,0.0105,-9.674100000000001,5.266014031977734,11.779757428692275,14.619999885559082,14.639999389648438,14.559999465942383,14.59999942779541,11.87157470347292,11.887814485188905,11.822853809540293,11.855334147364598,11.85939428639168,0.006760483667128144,-7.300000190734863,0.0,0.0,0.0,0.0,0.0,0.0,,,,,
frame_00053.png,1771859621744307741,1771859621.7443078,42.30096895375883,-83.69718285864597,238.7386932373047,-0.008883109041398884,-0.9998936179340574,-0.007893246727610803,-0.00845812299488134,0.03384,0.0026000000000000003,0.00875,0.33180000000000004,0.0591,-10.4346,5.2955599577691235,11.845849891932064,14.75999927520752,14.6899995803833,14.710000038146973,14.6899995803833,11.985255498661825,11.928415101067372,11.944655657175694,11.928415101067372,11.946685339493065,0.008512301648333253,-7.200000286102295,0.0,0.0,0.0,0.0,0.0,0.0,,,,,
frame_00054.png,1771859621795284242,1771859621.7952843,42.30096897400309,-83.69718670867222,238.74249267578125,-0.009148609891215853,-0.9998961127019832,-0.0071921439622554565,-0.00850528105049384,0.02594,-0.003980000000000001,0.009440000000000002,0.1399,0.19870000000000002,-10.3651,5.3163462688693635,11.892347622684635,14.779999732971191,14.769999504089355,14.789999961853027,14.710000038146973,12.001496054770147,11.993375776715984,12.009616332824306,11.944655657175694,11.987285955371533,0.007983144766623103,-7.200000286102295,0.0,0.0,0.0,0.0,0.0,0.0,,,,,
frame_00055.png,1771859621845444583,1771859621.8454447,42.300968986979534,-83.69718928466037,238.74566650390625,-0.009441032366547253,-0.9998953741274248,-0.006709678509774484,-0.008665328656577567,0.010270000000000001,-0.00834,0.011800000000000001,0.1258,0.0509,-9.9059,5.331476977041201,11.926194109022545,14.809999465942383,14.65999984741211,14.859999656677246,14.809999465942383,12.025856114540291,11.904055041297227,12.066456730418759,12.025856114540291,12.00555600019914,0.006654418874212042,-7.200000286102295,0.0,0.0,0.0,0.0,0.0,0.0,,,,,
frame_00056.png,1771859621896692598,1771859621.8966925,42.30096900274323,-83.69719315432661,238.75115966796875,-0.009778985406850682,-0.9998895032219692,-0.006690164752759108,-0.008977443206011123,-0.01785,-0.014690000000000002,0.016300000000000002,-0.2255,-0.25730000000000003,-9.7836,5.338953360900394,11.942918331132528,14.779999732971191,14.809999465942383,14.899999618530273,14.880000114440918,12.001496054770147,12.025856114540291,12.098937068243064,12.082697286527083,12.052246631020147,0.009154236582412512,-7.200000286102295,0.0,0.0,0.0,0.0,0.0,0.0,,,,,
frame_00057.png,1771859621946071579,1771859621.9460716,42.30096900887346,-83.69719573087603,238.7545928955078,-0.010133259969236141,-0.9998819151559001,-0.006961476940711611,-0.009220120680846815,-0.021030000000000004,-0.004320000000000001,0.01641,-0.38320000000000004,-0.41290000000000004,-9.4723,5.336929877176315,11.938391919450787,14.809999465942383,14.789999961853027,14.899999618530273,14.739999771118164,12.025856114540291,12.009616332824306,12.098937068243064,11.96901571694584,12.025856308138374,0.007326312394308744,-7.200000286102295,0.0,0.0,0.0,0.0,0.0,0.0,,,,,
frame_00058.png,1771859621997109128,1771859621.9971092,42.30096901926211,-83.69719959914889,238.75877380371094,-0.010460889747637425,-0.9998772365248765,-0.00704111207042045,-0.009300774477193482,-0.00051,-0.0010500000000000002,0.014690000000000002,-0.3957,-0.26930000000000004,-9.3419,5.331743536739653,11.9267903870744,14.84999942779541,14.779999732971191,14.84999942779541,14.84999942779541,12.058336452364598,12.001496054770147,12.058336452364598,12.058336452364598,12.044126352965986,0.009838016941988709,-7.200000286102295,0.0,0.0,0.0,0.0,0.0,0.0,,,,,
frame_00059.png,1771859622046887581,1771859622.0468876,42.30096902453558,-83.69720217495309,238.7609100341797,-0.010772701887735159,-0.9998746688758242,-0.007107167176921069,-0.009169711512261522,-0.004620000000000001,0.0024300000000000007,0.011210000000000001,-0.38370000000000004,0.038700000000000005,-9.452,5.322544758973717,11.906213273138668,14.839999198913574,14.769999504089355,14.929999351501465,14.819999694824219,12.050216174310437,11.993375776715984,12.123297128013212,12.033976392594452,12.050216367908522,0.012094785425584127,-7.200000286102295,0.0,0.0,0.0,0.0,0.0,0.0,,,,,
frame_00060.png,1771859622097710916,1771859622.0977108,42.30096903420184,-83.69720602786539,238.76339721679688,-0.011065969471819037,-0.9998720753334742,-0.007342356731616524,-0.008914431311383824,-0.004690000000000001,0.01819,0.011290000000000001,-0.25,0.2092,-9.5813,5.313454518643774,11.885878950935005,14.84999942779541,14.769999504089355,14.809999465942383,14.789999961853027,12.058336452364598,11.993375776715984,12.025856114540291,12.009616332824306,12.021796169111296,0.011435184451848929,-7.200000286102295,0.0,0.0,0.0,0.0,0.0,0.0,,,,,
frame_00061.png,1771859622148361792,1771859622.1483617,42.300969043240514,-83.69720859442964,238.76458740234375,-0.011384527593995997,-0.9998697055181321,-0.007567344054120709,-0.008584860075267285,-0.00449,0.012660000000000001,0.00935,-0.5483,0.1341,-9.6798,5.297979008932894,11.851261164242349,14.819999694824219,14.739999771118164,14.809999465942383,14.809999465942383,12.033976392594452,11.96901571694584,12.025856114540291,12.025856114540291,12.013676084655218,0.013704441929176971,-7.200000286102295,0.0,0.0,0.0,0.0,0.0,0.0,,,,,
frame_00062.png,1771859622208212169,1771859622.2082121,42.30096905930319,-83.69721243160141,238.765869140625,-0.011685479716754266,-0.9998694599757669,-0.007600212619463253,-0.00817002690914674,0.0009800000000000002,0.01795,0.011890000000000001,-0.5113,0.4131,-9.7819,5.283606778551023,11.819111347211924,14.789999961853027,14.769999504089355,14.769999504089355,14.710000038146973,12.009616332824306,11.993375776715984,11.993375776715984,11.944655657175694,11.985255885857992,0.01405727839980627,-7.200000286102295,0.0,0.0,0.0,0.0,0.0,0.0,,,,,
frame_00063.png,1771859622251058345,1771859622.2510583,42.300969070914775,-83.69721497889962,238.766845703125,-0.012000956233865767,-0.9998667995166466,-0.007765215550365948,-0.007877924934074926,-0.00578,0.013490000000000002,0.008910000000000001,-0.5045000000000001,0.1975,-10.3437,5.272217675337604,11.7936346066697,14.719999313354492,14.6899995803833,14.729999542236328,14.649999618530273,11.952775160837517,11.928415101067372,11.96089543889168,11.895934763243066,11.934505116009909,0.011944622165972623,-7.200000286102295,0.0,0.0,0.0,0.0,0.0,0.0,,,,,
frame_00064.png,1771859622301159850,1771859622.3011599,42.30096908621355,-83.69721879807344,238.76951599121094,-0.012286426132966266,-0.9998632842590045,-0.007901110203369076,-0.007747837196929032,-0.0029300000000000003,0.00515,0.011200000000000002,-0.1315,-0.2451,-10.3507,5.263508038480537,11.774151671598652,14.65999984741211,14.65999984741211,14.699999809265137,14.649999618530273,11.904055041297227,11.904055041297227,11.936535379121532,11.895934763243066,11.910145056239763,0.011550164159100415,-7.200000286102295,0.0,0.0,0.0,0.0,0.0,0.0,,,,,
frame_00065.png,1771859622353261342,1771859622.3532612,42.30096909848058,-83.69722134254624,238.7723388671875,-0.012578750780714965,-0.9998560075042241,-0.008189203751636225,-0.00791683196888209,-0.00529,-0.014120000000000002,0.009440000000000002,0.0041,-0.1559,-10.2352,5.258348946166113,11.762611091636826,14.639999389648438,14.589999198913574,14.6899995803833,14.59999942779541,11.887814485188905,11.847213869310437,11.928415101067372,11.855334147364598,11.879694400732827,0.00995385362857462,-7.200000286102295,0.0,0.0,0.0,0.0,0.0,0.0,,,,,
frame_00066.png,1771859622403300557,1771859622.4033005,42.30096911836988,-83.69722515096865,238.77740478515625,-0.01282615105743573,-0.9998489590467016,-0.008238662783251834,-0.008347058033987408,0.013510000000000003,-0.017410000000000002,0.00543,-0.2093,0.4193,-10.1555,5.243391278938033,11.729151687507644,14.769999504089355,14.539999961853027,14.630000114440918,14.589999198913574,11.993375776715984,11.806614027824308,11.879694981527082,11.847213869310437,11.881724663844453,0.013008014594892701,-7.200000286102295,0.0,0.0,0.0,0.0,0.0,0.0,,,,,
frame_00067.png,1771859622450981712,1771859622.4509816,42.30096913515909,-83.69722768621286,238.78114318847656,-0.013031770410817711,-0.999844366912259,-0.00805162374360223,-0.00875135811602207,-0.00217,-0.026890000000000004,0.008600000000000002,-0.46730000000000005,0.2795,-9.908000000000001,5.232023193737278,11.703721962998667,14.489999771118164,14.50999927520752,14.589999198913574,14.50999927520752,11.76601341194584,11.782253193661825,11.847213869310437,11.782253193661825,11.794433417144981,0.0077506501293433385,-7.200000286102295,0.0,0.0,0.0,0.0,0.0,0.0,,,,,
frame_00068.png,1771859622501503676,1771859622.5015037,42.300969159028796,-83.69723147611258,238.78631591796875,-0.013286065518723744,-0.9998354191236773,-0.008359755901015236,-0.009095581899364874,-0.02099,-0.01246,0.012670000000000002,-0.6293000000000001,0.0358,-9.6065,5.212872234533018,11.660882416316289,14.4399995803833,14.4399995803833,14.549999237060547,14.489999771118164,11.725412796067372,11.725412796067372,11.81473353148613,11.76601341194584,11.75789313389168,0.008319329027762916,-7.200000286102295,0.0,0.0,0.0,0.0,0.0,0.0,,,,,
frame_00069.png,1771859622551967855,1771859622.5519679,42.300969173406855,-83.69723398715936,238.78924560546875,-0.013481349028830525,-0.9998306780946542,-0.008508179267828745,-0.009191259690230342,-0.0029300000000000003,0.0035500000000000006,0.012780000000000001,-0.5667,-0.1855,-9.151900000000001,5.1944604944763055,11.619696458513827,14.50999927520752,14.50999927520752,14.50999927520752,14.40999984741211,11.782253193661825,11.782253193661825,11.782253193661825,11.701052736297227,11.761953079320676,0.01224271402568497,-7.400000095367432,0.0,0.0,0.0,0.0,0.0,0.0,,,,,
frame_00070.png,1771859622603030647,1771859622.6030304,42.30096919369547,-83.69723774858655,238.7930450439453,-0.013751043139584418,-0.9998258040776911,-0.008627958213950555,-0.00921024701243803,-0.012750000000000003,-0.015510000000000001,0.01678,-0.1824,-0.3881,-9.6151,5.189879471471547,11.609448984913563,14.25999927520752,14.34999942779541,14.5,14.429999351501465,11.579250888661823,11.652331842364598,11.77413369,11.71729251801321,11.680752234759908,0.006141828948040786,-7.700000286102295,0.0,0.0,0.0,0.0,0.0,0.0,,,,,
frame_00071.png,1771859622652851246,1771859622.652851,42.30096920600072,-83.69724025299048,238.79550170898438,-0.014125319659267499,-0.9998160489761014,-0.009018337286685845,-0.009328083775618487,-0.020760000000000004,-0.016270000000000003,0.019200000000000002,-0.22920000000000001,-0.26830000000000004,-9.4174,5.174639787426363,11.575358726085529,14.399999618530273,14.449999809265137,14.399999618530273,14.34000015258789,11.692932458243066,11.733533074121533,11.692932458243066,11.644212338702776,11.69090258232761,0.009981881251049082,-7.5,0.0,0.0,0.0,0.0,0.0,0.0,,,,,
frame_00072.png,1771859622703962574,1771859622.7039626,42.300969224124735,-83.69724399632975,238.79891967773438,-0.014497537610056066,-0.9998060752976612,-0.00932096556531425,-0.009526426510658041,-0.0021900000000000005,-0.028130000000000006,0.018090000000000002,-0.6247,0.2008,-9.576,5.157664387434233,11.537385774827133,14.399999618530273,14.25,14.389999389648438,14.329999923706055,11.692932458243066,11.571131385000001,11.684812180188905,11.636092060648613,11.646242021020146,0.009435087663491501,-7.400000095367432,0.0,0.0,0.0,0.0,0.0,0.0,,,,,
frame_00073.png,1771859622754007304,1771859622.7540073,42.30096924927467,-83.69724772134846,238.8025665283203,-0.014847438084360731,-0.9998009046278058,-0.00934802293823274,-0.009503639034533681,-0.0025400000000000006,-0.0032600000000000003,0.016330000000000004,-0.7856000000000001,0.33630000000000004,-10.1623,5.132693267822352,11.481526878522532,14.289999961853027,14.619999885559082,14.219999313354492,14.309999465942383,11.603611722824308,11.87157470347292,11.546770550837518,11.619851504540291,11.66045212041876,0.015583749773815216,-7.400000095367432,1.9500000476837158,0.0,0.0,0.0,0.0,0.0,,,,,
frame_00074.png,1771859622813843566,1771859622.8138435,42.3009692827558,-83.69725143284604,238.8066864013672,-0.015244701548282336,-0.9997957216494053,-0.009388227030172211,-0.00937951168657347,-0.00506,0.016010000000000003,0.018490000000000003,-0.32080000000000003,1.0206,-11.065000000000001,5.1187946355689,11.450436472089496,14.119999885559082,14.489999771118164,14.319999694824219,14.1899995803833,11.46557009347292,11.76601341194584,11.627971782594452,11.522410491067372,11.595491444770147,0.012668073661141479,-6.800000190734863,2.5,0.0,0.0,0.0,0.0,0.0,,,,,
frame_00075.png,1771859622863745160,1771859622.8637452,42.30096930540128,-83.6972539070935,238.8099365234375,-0.015451503568896574,-0.9997934100663535,-0.009112530206841914,-0.009557720365349246,0.0029500000000000004,-0.012060000000000003,0.01617,0.1568,0.0665,-10.604000000000001,5.1106988620773794,11.432326712535374,14.25,14.139999389648438,14.4399995803833,14.210000038146973,11.571131385000001,11.481809875188905,11.725412796067372,11.538651047175694,11.579251275857992,0.012851676392480693,-6.700000286102295,3.4750001430511475,0.0,0.0,0.0,0.0,0.0,,,,,
frame_00076.png,1771859622914305665,1771859622.9143057,42.30096934289835,-83.69725760613503,238.815673828125,-0.015670053299185305,-0.9997859554493428,-0.00905451955036932,-0.01002538735199737,-0.025470000000000003,-0.031190000000000006,0.015140000000000002,-0.3907,-0.6156,-9.5531,5.103183437960755,11.415515159711932,14.079999923706055,14.229999542236328,14.170000076293945,14.210000038146973,11.433089755648613,11.554890828891677,11.506170709351387,11.538651047175694,11.508200585266842,0.008119250358671398,-6.800000190734863,3.575000047683716,0.0,0.0,0.0,0.0,0.0,,,,,
frame_00077.png,1771859622964139672,1771859622.9641397,42.300969365866464,-83.69726006185876,238.81898498535156,-0.01581705930012134,-0.999777170218367,-0.009301940921453287,-0.01043572902793432,0.008510000000000002,-0.01708,0.00267,-0.6019,-0.3674,-9.647,5.0869065875361645,11.379104821923148,14.289999961853027,14.1899995803833,14.199999809265137,14.079999923706055,11.603611722824308,11.522410491067372,11.530530769121533,11.433089755648613,11.522410684665456,0.012593772971157841,-6.900000095367432,4.050000190734863,0.0,0.0,0.0,0.0,0.0,,,,,
frame_00078.png,1771859623015472389,1771859623.0154724,42.300969403109846,-83.69726374315397,238.8233184814453,-0.01602248231459813,-0.9997700405234025,-0.009284653943924004,-0.010813941624312262,0.00218,-0.028120000000000003,0.006060000000000001,0.20620000000000002,0.10360000000000001,-9.9443,5.080864178899888,11.365588316348315,14.09000015258789,14.019999504089355,14.149999618530273,14.109999656677246,11.441210033702776,11.384368861715986,11.489930153243066,11.457449815418759,11.443239716020145,0.006832149600222206,-6.800000190734863,4.150000095367432,0.0,0.0,0.0,0.0,0.0,,,,,
frame_00079.png,1771859623065171987,1771859623.065172,42.300969425126794,-83.6972661927821,238.8251953125,-0.01636248676634927,-0.9997611277513242,-0.009425830109353535,-0.011005007540703417,-0.014020000000000003,-0.008700000000000001,0.01454,-0.7711,0.4026,-9.448400000000001,5.055937149541223,11.309828047294744,14.25,14.170000076293945,14.1899995803833,14.069999694824219,11.571131385000001,11.506170709351387,11.522410491067372,11.424969477594452,11.506170515753302,0.01736034072644657,-6.300000190734863,4.099999904632568,0.0,0.0,0.0,0.0,0.0,,,,,
frame_00080.png,1771859623116476727,1771859623.1164768,42.30096945610892,-83.69726985456691,238.8275146484375,-0.0167686031560193,-0.9997500338310834,-0.009799701656378078,-0.011074730262601517,-0.01327,-0.0027800000000000004,0.013630000000000001,-0.43860000000000005,0.3209,-9.8058,5.0423291349511254,11.279387735137572,13.969999313354492,14.289999961853027,14.149999618530273,14.00999927520752,11.343768245837518,11.603611722824308,11.489930153243066,11.376248583661823,11.45338967639168,0.015426541346039276,-5.800000190734863,4.125,0.0,0.0,0.0,0.0,0.0,,,,,
frame_00081.png,1771859623166334714,1771859623.1663346,42.30096948144253,-83.6972722928397,238.8292236328125,-0.016970514729311492,-0.9997489734475529,-0.009644828331604495,-0.01099859112978192,0.029570000000000006,0.021290000000000003,0.00417,0.43420000000000003,-0.8429000000000001,-10.6013,5.031858341906685,11.255965199344741,14.15999984741211,14.119999885559082,14.059999465942383,14.09999942779541,11.498050431297225,11.46557009347292,11.416849199540291,11.449329537364598,11.457449815418757,0.017900252222327842,-5.700000286102295,3.924999952316284,0.0,0.0,0.0,0.0,0.0,,,,,
frame_00082.png,1771859623208460454,1771859623.2084606,42.300969513077916,-83.69727471716848,238.8309326171875,-0.017134844559517137,-0.9997497558939721,-0.009362504020714224,-0.010916327694164228,0.017820000000000003,0.0005900000000000001,-0.0008700000000000001,-0.24810000000000001,-0.109,-10.917200000000001,5.023337328553199,11.236904203733793,14.199999809265137,13.929999351501465,14.15999984741211,14.0,11.530530769121533,11.311287908013211,11.498050431297225,11.368129080000001,11.426999547107993,0.016917056506634172,-5.5,4.0,0.0,0.0,0.0,0.0,0.0,,,,,
frame_00083.png,1771859623258095595,1771859623.2580955,42.300969561887605,-83.6972783564406,238.83383178710938,-0.017313726790006423,-0.9997476064997098,-0.009325024710632923,-0.010862876087316346,0.016730000000000002,0.011860000000000002,0.0031300000000000004,0.0261,0.47200000000000003,-10.4146,5.019101115484386,11.227428049271643,14.049999237060547,14.0,14.069999694824219,14.09999942779541,11.40872892148613,11.368129080000001,11.424969477594452,11.449329537364598,11.412789254111296,0.016509676483892326,-5.300000190734863,4.075000286102295,0.0,0.0,0.0,0.0,0.0,,,,,
frame_00084.png,1771859623317800219,1771859623.3178003,42.30096961203857,-83.69728199233036,238.83758544921875,-0.01742329610702864,-0.9997447013268568,-0.00913440832057347,-0.011114112932372975,0.030550000000000004,-0.011790000000000002,-0.0007800000000000001,0.1101,0.1423,-10.324,5.0126902761868894,11.213087386413502,13.949999809265137,13.90999984741211,13.969999313354492,13.799999237060547,11.327528464121533,11.295048126297226,11.343768245837518,11.20572661648613,11.293017863185602,0.007128320151053936,-4.800000190734863,3.450000047683716,0.0,0.0,0.0,0.0,0.0,,,,,
frame_00085.png,1771859623370965663,1771859623.3709657,42.300969651111686,-83.69728441645492,238.84097290039062,-0.01755055484781659,-0.9997404001234388,-0.008838566846969587,-0.011532134306018259,0.028180000000000007,-0.036210000000000006,0.006710000000000001,-2.0794,1.0301,-9.541400000000001,4.997197904195732,11.178431879811603,14.069999694824219,13.84000015258789,14.049999237060547,13.809999465942383,11.424969477594452,11.238207728702776,11.40872892148613,11.213846894540291,11.321438255580912,0.012793062328141048,-4.400000095367432,0.0,0.0,0.0,0.0,0.0,0.0,,,,,
frame_00086.png,1771859623412236355,1771859623.4122362,42.30096968481554,-83.69728682890096,238.8444061279297,-0.017635637904103496,-0.9997343026829139,-0.00898856759962009,-0.011811603080452747,-0.022340000000000006,-0.05131000000000001,0.007050000000000001,-0.6131,0.7687,-9.2317,4.9947533383671106,11.172963532726925,13.829999923706055,13.969999313354492,13.90999984741211,13.799999237060547,11.230087450648613,11.343768245837518,11.295048126297226,11.20572661648613,11.268657609817373,0.00856478917255467,-4.0,0.0,0.0,0.0,0.0,0.0,0.0,,,,,
frame_00087.png,1771859623462597829,1771859623.4625978,42.30096973382077,-83.69729044479287,238.849609375,-0.017653766122796455,-0.9997361348123956,-0.008582243723237275,-0.01193106804641407,-0.00396,-0.014890000000000002,0.014520000000000002,-0.5885,-0.6283000000000001,-9.3805,4.979865008600642,11.139659232339122,13.899999618530273,13.869999885559082,13.880000114440918,13.929999351501465,11.286927848243065,11.26256778847292,11.27068806652708,11.311287908013211,11.28286790281407,0.012855749667746061,-3.799999952316284,0.0,0.0,0.0,0.0,0.0,0.0,,,,,
frame_00088.png,1771859623511931512,1771859623.5119314,42.30096976017406,-83.69729284589617,238.85191345214844,-0.017871357700678492,-0.9997380667159708,-0.00834910435854102,-0.011606247858704967,0.00031,0.014180000000000002,0.027500000000000004,-1.105,0.1834,-9.1873,4.95540807049485,11.084950529212751,13.789999961853027,14.09999942779541,14.059999465942383,14.019999504089355,11.197607112824306,11.449329537364598,11.416849199540291,11.384368861715986,11.362038677861296,0.024996787123074668,-3.200000047683716,0.0,0.0,0.0,0.0,0.0,0.0,,,,,
frame_00089.png,1771859623561165715,1771859623.5611658,42.30096979727136,-83.69729643423236,238.85365295410156,-0.018018616853147706,-0.999737507990107,-0.00865543251404461,-0.011195001224892876,0.0017100000000000001,0.03134000000000001,-0.00016,0.24050000000000002,-1.8808,-10.2763,4.957055332695042,11.088635355918848,13.84999942779541,13.739999771118164,14.019999504089355,13.859999656677246,11.246327232364598,11.157006496945838,11.384368861715986,11.254447510418759,11.260537525361295,0.01550255409478225,-2.700000047683716,0.0,0.0,0.0,0.0,0.0,0.0,,,,,
frame_00090.png,1771859623612951606,1771859623.6129515,42.300969825111075,-83.69729883006785,238.85455322265625,-0.0181700169348053,-0.9997278025216163,-0.009117570137894479,-0.011447325655795867,-0.010700000000000001,-0.05528000000000001,-0.00030000000000000003,0.6435000000000001,-0.2629,-9.2234,4.966829390950634,11.110499337793113,13.75,13.670000076293945,13.819999694824219,13.679999351501465,11.165126775000001,11.100166099351387,11.221967172594454,11.108285603013211,11.148886412489762,0.0034550269550957815,-2.4000000953674316,0.0,0.0,0.0,0.0,0.0,0.0,,,,,
frame_00091.png,1771859623661210368,1771859623.6612103,42.30096985669811,-83.69730241970345,238.85494995117188,-0.018275766886842792,-0.9997170751969618,-0.009767041585473708,-0.011677791015322354,-0.05241000000000001,-0.040810000000000006,0.02312,-0.8441000000000001,2.3448,-9.2619,4.95028812547978,11.07349751941074,13.239999771118164,13.789999961853027,13.779999732971191,13.829999923706055,10.751001886945838,11.197607112824306,11.189486834770145,11.230087450648613,11.092045821297225,0.001675017477899045,-2.1000001430511475,0.0,0.0,0.0,0.0,0.0,0.0,,,,,
frame_00092.png,1771859623712563809,1771859623.7125638,42.30096988390015,-83.69730480046535,238.85459899902344,-0.01811508042619442,-0.9997186935165105,-0.010262209467527589,-0.011360666865918669,-0.025860000000000005,0.02237,0.007700000000000001,1.8198,-0.4297,-9.201500000000001,4.937808366231477,11.04558104675784,13.389999389648438,13.639999389648438,13.670000076293945,13.869999885559082,10.872802960188904,11.075805265188903,11.100166099351387,11.26256778847292,11.077835528300529,0.0029201253792036507,-2.299999952316284,0.0,0.0,0.0,0.0,0.0,0.0,,,,,
frame_00093.png,1771859623761998006,1771859623.7619982,42.300969927895075,-83.69730837375741,238.85476684570312,-0.01800446316021026,-0.999718362252586,-0.010227654998087822,-0.011594419112652472,-0.01106,-0.00269,0.0005000000000000001,1.9603000000000002,-0.5602,-9.545,4.9266905865435024,11.020711240662623,13.679999351501465,13.609999656677246,13.799999237060547,13.75999927520752,11.108285603013211,11.051445205418759,11.20572661648613,11.173246278661823,11.13467592589498,0.010340955564815716,-2.0,0.17499999701976776,0.0,0.0,0.0,0.0,0.0,,,,,
frame_00094.png,1771859623813189036,1771859623.813189,42.30096996117385,-83.69731074886998,238.85606384277344,-0.017907319578062242,-0.9997142078183673,-0.009727795215946057,-0.012498023518147406,0.01485,-0.0177,-0.00576,0.5254,-0.7447,-10.695,4.9274941395281795,11.022508740476166,13.619999885559082,13.519999504089355,13.699999809265137,13.75,11.059565483472921,10.978364251715986,11.124526159121533,11.165126775000001,11.081895667327611,0.005387786777920017,-1.7000000476837158,0.5,0.0,0.0,0.0,0.0,0.0,,,,,
frame_00095.png,1771859623862876206,1771859623.8628762,42.3009700130649,-83.69731433042557,238.85955810546875,-0.017901914783983064,-0.9996981823505149,-0.00950607540754308,-0.013881649127172789,-0.0015600000000000002,-0.02014,-0.0066500000000000005,-0.7231000000000001,-1.5757,-10.9838,4.921434509054609,11.008953710684617,13.630000114440918,13.649999618530273,13.649999618530273,13.579999923706055,11.06768576152708,11.083925543243065,11.083925543243065,11.027085145648613,11.065655498415456,0.005150515591305269,-1.399999976158142,0.20000000298023224,0.0,0.0,0.0,0.0,0.0,,,,,
frame_00096.png,1771859623914030292,1771859623.9140303,42.3009700714168,-83.69731790481245,238.86297607421875,-0.017813857129682364,-0.999682815022197,-0.009223798113103265,-0.015226864149492205,-0.016970000000000002,-0.047540000000000006,-0.0016400000000000002,-0.8438,-3.0555000000000003,-10.6213,4.91713855650362,10.999343922585208,13.239999771118164,13.6899995803833,13.569999694824219,13.5,10.751001886945838,11.11640588106737,11.018964867594454,10.962124470000001,10.962124276401916,0.003383806020181634,-2.200000047683716,1.0,0.0,0.0,0.0,0.0,0.0,,,,,
frame_00097.png,1771859623964147420,1771859623.9641476,42.30097010960276,-83.69732028534519,238.86500549316406,-0.0177817346305022,-0.9996600752344131,-0.00959386443270455,-0.01647730745919329,0.017070000000000002,-0.06415000000000001,-0.0017900000000000004,-0.8256,0.0864,-8.292900000000001,4.918052710403384,11.001388830009747,13.559999465942383,13.40999984741211,13.729999542236328,13.719999313354492,11.01084458954029,10.889043516297226,11.148886218891679,11.140765940837518,11.047385066391678,0.004180948159605296,-2.799999952316284,1.0750000476837158,0.0,0.0,0.0,0.0,0.0,,,,,
frame_00098.png,1771859624024020329,1771859624.0240202,42.30097016056228,-83.69732384292905,238.86756896972656,-0.01786897071799065,-0.9996404823989732,-0.009346079959017713,-0.017670784476854755,0.017350000000000004,-0.053360000000000005,0.011630000000000001,-0.9364,0.5292,-9.5966,4.898896070942466,10.95853657693404,13.460000038146973,13.59999942779541,13.569999694824219,13.649999618530273,10.929644132175694,11.043324927364598,11.018964867594454,11.083925543243065,11.018964867594452,0.0055142664566729714,-2.799999952316284,2.125,0.0,0.0,0.0,0.0,0.0,,,,,
frame_00099.png,1771859624073801153,1771859624.0738013,42.300970206039416,-83.6973273956157,238.87013244628906,-0.01797839291791198,-0.999627234516879,-0.009194688504832835,-0.01837463206502632,-0.02452,-0.03395,0.014520000000000002,0.4662,-0.0046,-9.348600000000001,4.898039298053174,10.956620027387068,13.399999618530273,13.670000076293945,13.539999961853027,13.5,10.880923238243065,11.100166099351387,10.994604807824306,10.962124470000001,10.984454653854689,0.0025404391498515116,-2.6000001430511475,3.700000047683716,0.0,0.0,0.0,0.0,0.0,,,,,
frame_00100.png,1771859624115790289,1771859624.1157904,42.300970234453466,-83.69732975995385,238.8720245361328,-0.017991402377448895,-0.9996124722548386,-0.009307059432121352,-0.019094328943158063,-0.035570000000000004,-0.03159000000000001,-0.0068000000000000005,0.0907,-1.8041,-9.654300000000001,4.879783209790536,10.915782253308842,13.619999885559082,13.539999961853027,13.269999504089355,13.579999923706055,11.059565483472921,10.994604807824306,10.775361946715984,11.027085145648613,10.964154345915455,0.004431390392745322,-2.5,4.450000286102295,0.0,0.0,0.0,0.0,0.0,,,,,
frame_00101.png,1771859624166884500,1771859624.1668847,42.30097025912904,-83.69733212217554,238.87351989746094,-0.018044501218626163,-0.9995824666605151,-0.010045441270054748,-0.02020835051014706,-0.03436,-0.060320000000000006,-0.003980000000000001,-1.0401,-0.4295,-8.7066,4.878267338479735,10.912391340138859,13.519999504089355,13.569999694824219,13.489999771118164,13.429999351501465,10.978364251715986,11.018964867594454,10.954004191945838,10.905283298013211,10.964154152317372,0.004743489356738401,-2.5,8.0,0.0,0.0,0.0,0.0,0.0,,,,,
frame_00102.png,1771859624219174075,1771859624.2191741,42.30097030677049,-83.69733566275916,238.87442016601562,-0.018087090307460862,-0.9995653511694454,-0.009885886655073842,-0.021076886647601066,-0.006340000000000001,-0.023490000000000004,0.0038900000000000002,-0.4549,-1.2499,-9.6447,4.873795760664082,10.902388688859913,13.359999656677246,13.670000076293945,13.229999542236328,13.59000015258789,10.848442900418759,11.100166099351387,10.742881608891679,11.035205423702774,10.93167400809115,0.002686137879230135,-2.6000001430511475,9.050000190734863,0.0,0.0,0.0,0.0,0.0,,,,,
frame_00103.png,1771859624266926195,1771859624.266926,42.300970335659926,-83.69733802516149,238.87368774414062,-0.01805489755364653,-0.9995533060048704,-0.01011233025853183,-0.021562697090202986,-0.009320000000000002,-0.03255000000000001,-0.0014600000000000004,1.9039000000000001,-1.3703,-9.1663,4.890253114975138,10.939202803012487,13.34999942779541,13.670000076293945,13.199999809265137,13.460000038146973,10.840322622364598,11.100166099351387,10.718521549121533,10.929644132175694,10.897163600753304,0.003842985911880684,-2.4000000953674316,9.600000381469727,0.0,0.0,0.0,0.0,0.0,,,,,
frame_00104.png,1771859624318128557,1771859624.3181286,42.3009703737095,-83.69734157184355,238.8738555908203,-0.018109364827244456,-0.9995256992466091,-0.010277344450114587,-0.022689284743780434,0.009850000000000003,-0.009270000000000002,-0.010440000000000001,0.8391000000000001,-2.5151000000000003,-10.106200000000001,4.888395732068032,10.935047948892263,13.460000038146973,13.460000038146973,13.449999809265137,13.529999732971191,10.929644132175694,10.929644132175694,10.921523854121533,10.986484529770147,10.941824162060767,0.0006196784138646663,-1.8000000715255737,10.02500057220459,0.0,0.0,0.0,0.0,0.0,,,,,
frame_00105.png,1771859624368769204,1771859624.3687692,42.30097040807826,-83.69734393701894,238.87347412109375,-0.0183606936045439,-0.9994849823459694,-0.010654069541683919,-0.024065448207719546,-0.0024900000000000005,-0.047360000000000006,0.00572,-0.2922,0.7632,-9.7338,4.880122687651998,10.91654164491626,13.569999694824219,13.679999351501465,13.569999694824219,13.679999351501465,11.018964867594454,11.108285603013211,11.018964867594454,11.108285603013211,11.063625235303832,0.01347346029280872,-1.2000000476837158,10.27500057220459,0.0,0.0,0.0,0.0,0.0,,,,,
frame_00106.png,1771859624427849588,1771859624.4278495,42.30097045869574,-83.69734749104909,238.87069702148438,-0.018468584940722177,-0.9994776701980044,-0.010619980472343835,-0.024300497127091904,-0.01004,0.009760000000000001,0.00898,-0.2899,1.0037,-8.753,4.891183782638395,10.941284650735131,13.75999927520752,13.449999809265137,13.619999885559082,13.569999694824219,11.173246278661823,10.921523854121533,11.059565483472921,11.018964867594454,11.043325120962683,0.009326187324876492,-1.0,10.125,0.0,0.0,0.0,0.0,0.0,,,,,
frame_00107.png,1771859624480216455,1771859624.4802165,42.30097050934144,-83.69735105179619,238.86521911621094,-0.018362690530368875,-0.9994706526042374,-0.011100213912086506,-0.024454272233121552,-0.056920000000000005,-0.012620000000000003,-0.0008200000000000001,0.1014,1.7131,-9.8366,4.920583332799935,11.007049680473488,13.479999542236328,14.039999961853027,13.519999504089355,13.679999351501465,10.945883913891679,11.400609417824308,10.978364251715986,11.108285603013211,11.108285796611295,0.009197388862285228,-1.5,10.100000381469727,0.0,0.0,0.0,0.0,0.0,,,,,
frame_00108.png,1771859624521085766,1771859624.5210857,42.30097053459623,-83.6973534356831,238.86187744140625,-0.018171886745832366,-0.9994684008688592,-0.01131811571653675,-0.0245885838016074,-0.044950000000000004,-0.0038800000000000006,0.011480000000000002,-0.7025,-3.1660000000000004,-10.9,4.9228602225044105,11.012142946129016,13.829999923706055,13.989999771118164,13.609999656677246,13.75,11.230087450648613,11.36000880194584,11.051445205418759,11.165126775000001,11.201667058253303,0.0172104660329449,-2.200000047683716,9.850000381469727,0.0,0.0,0.0,0.0,0.0,,,,,
frame_00109.png,1771859624572746407,1771859624.5727465,42.300970567937654,-83.69735583103652,238.85809326171875,-0.018354810994712367,-0.9994520808528589,-0.011675470928922606,-0.024946389935762803,0.031970000000000005,-0.009900000000000003,-0.0017500000000000003,-1.0290000000000001,-1.0834000000000001,-10.1957,4.945172190170911,11.06205347908092,14.019999504089355,13.719999313354492,13.779999732971191,13.829999923706055,11.384368861715986,11.140765940837518,11.189486834770145,11.230087450648613,11.236177271993064,0.015740639225928922,-2.0,9.574999809265137,0.0,0.0,0.0,0.0,0.0,,,,,
frame_00110.png,1771859624622963280,1771859624.6229632,42.300970611259146,-83.69735944193143,238.85289001464844,-0.018476834991945024,-0.9994419366665093,-0.0112222527645063,-0.025465326305925306,0.027770000000000003,-0.024420000000000004,-0.0037100000000000006,-0.44580000000000003,0.30720000000000003,-10.2199,4.993620962457554,11.170430475759801,13.819999694824219,13.719999313354492,13.719999313354492,13.630000114440918,11.221967172594454,11.140765940837518,11.140765940837518,11.06768576152708,11.142796203949143,0.002473877069520788,-1.600000023841858,9.550000190734863,0.0,0.0,0.0,0.0,0.0,,,,,
frame_00111.png,1771859624670835747,1771859624.6708357,42.30097064522208,-83.697361867768,238.85012817382812,-0.01848385931191665,-0.9994097632565488,-0.01123933428920594,-0.02668612780381203,0.005700000000000001,-0.08215000000000001,-0.007550000000000001,-1.1340000000000001,2.4849,-9.1744,5.012346007281384,11.21231727752802,13.989999771118164,13.719999313354492,13.869999885559082,14.019999504089355,11.36000880194584,11.140765940837518,11.26256778847292,11.384368861715986,11.286927848243065,0.0066543399431428,-1.100000023841858,9.725000381469727,0.0,0.0,0.0,0.0,0.0,,,,,
frame_00112.png,1771859624721821526,1771859624.7218215,42.30097070394797,-83.6973655067879,238.84652709960938,-0.018395861380375855,-0.9993999960519448,-0.011458031105876922,-0.02701765531321626,-3e-05,-0.008050000000000002,-0.005980000000000001,-0.4101,1.3419,-8.9326,5.000990787497815,11.186916332185364,13.949999809265137,14.069999694824219,14.0,14.039999961853027,11.327528464121533,11.424969477594452,11.368129080000001,11.400609417824308,11.380309109885074,0.017287407177910923,-0.800000011920929,9.475000381469727,0.0,0.0,0.0,0.0,0.0,,,,,
frame_00113.png,1771859624771780001,1771859624.77178,42.30097074390821,-83.69736792675748,238.84347534179688,-0.018261514097409615,-0.9994124011306211,-0.011812425254397449,-0.026492190902332183,0.008940000000000002,0.0204,-0.011120000000000001,1.056,0.4315,-10.1422,5.011526152192303,11.210483310885051,14.149999618530273,14.179999351501465,13.90999984741211,14.039999961853027,11.489930153243066,11.51429021301321,11.295048126297226,11.400609417824308,11.424969477594452,0.0191326422564798,-0.6000000238418579,9.225000381469727,0.0,0.0,0.0,0.0,0.0,,,,,
frame_00114.png,1771859624822202676,1771859624.8222027,42.30097079353488,-83.69737157496448,238.8395233154297,-0.01817415894107388,-0.9994321240136603,-0.011693074908377761,-0.025853460803439015,-0.020280000000000003,0.014690000000000002,-0.0012200000000000002,1.034,-0.0734,-10.4162,5.03523268162626,11.263513394837046,14.029999732971191,14.139999389648438,14.139999389648438,14.139999389648438,11.392489139770145,11.481809875188905,11.481809875188905,11.481809875188905,11.459479691334213,0.017398327646770805,-0.5,9.199999809265137,0.0,0.0,0.0,0.0,0.0,,,,,
frame_00115.png,1771859624872135209,1771859624.8721352,42.30097082432569,-83.69737401790675,238.83663940429688,-0.01825996995568696,-0.9994426007605042,-0.011576981129787261,-0.0254368785470534,-0.006770000000000001,0.018380000000000004,0.011940000000000001,0.010400000000000001,0.21530000000000002,-9.3152,5.053267528636465,11.303856265508056,14.210000038146973,14.109999656677246,14.359999656677246,14.359999656677246,11.538651047175694,11.457449815418759,11.66045212041876,11.66045212041876,11.579251275857994,0.0243629257026438,-0.4000000059604645,7.200000286102295,0.0,0.0,0.0,0.0,0.0,,,,,
frame_00116.png,1771859624923193651,1771859624.9231937,42.30097087179047,-83.69737770132542,238.8310089111328,-0.018249028556779845,-0.9994482746260192,-0.011829448277131288,-0.025103455086218977,-0.027630000000000005,0.012770000000000002,0.012690000000000002,-0.7321000000000001,1.165,-10.398800000000001,5.075604829600428,11.353823467526382,14.279999732971191,14.229999542236328,14.109999656677246,14.25,11.595491444770145,11.554890828891677,11.457449815418759,11.571131385000001,11.544740868520146,0.016815251843558726,-0.4000000059604645,6.800000190734863,0.0,0.0,0.0,0.0,0.0,,,,,
frame_00117.png,1771859624973114818,1771859624.973115,42.30097092132223,-83.6973814056338,238.82394409179688,-0.018067230713489257,-0.9994557639638912,-0.012031333961405499,-0.024839445581762445,-0.0023500000000000005,0.0017100000000000001,-0.015140000000000002,-0.07780000000000001,-0.2564,-9.1347,5.101892860127015,11.412628214532527,14.269999504089355,14.279999732971191,14.329999923706055,14.199999809265137,11.587371166715984,11.595491444770145,11.636092060648613,11.530530769121533,11.58737136031407,0.015311385116272306,-0.4000000059604645,6.800000190734863,0.0,0.0,0.0,0.0,0.0,,,,,
frame_00118.png,1771859625024447225,1771859625.0244472,42.30097095622675,-83.69738388145318,238.81886291503906,-0.01793935466142721,-0.9994617030688502,-0.012484669448876835,-0.02446664426923768,-0.009580000000000002,0.008100000000000001,-0.007700000000000001,-0.1327,0.7408,-9.3213,5.117524500114647,11.447595255286458,14.4399995803833,14.420000076293945,14.420000076293945,14.029999732971191,11.725412796067372,11.709173014351387,11.709173014351387,11.392489139770145,11.634061991135074,0.016288725421394114,-0.20000000298023224,6.75,0.0,0.0,0.0,0.0,0.0,,,,,
frame_00119.png,1771859625074457568,1771859625.0744576,42.30097100028252,-83.69738760456092,238.80996704101562,-0.017923568117923894,-0.9994685964871051,-0.01326248200467728,-0.02377765575270464,-0.040650000000000006,0.02604,0.015210000000000003,0.678,3.1044,-9.6524,5.132058022043783,11.48010587183062,14.429999351501465,14.449999809265137,14.4399995803833,14.389999389648438,11.71729251801321,11.733533074121533,11.725412796067372,11.684812180188905,11.715262642097755,0.020483850313972513,0.20000000298023224,6.550000190734863,0.0,0.0,0.0,0.0,0.0,,,,,
frame_00120.png,1771859625125721115,1771859625.125721,42.30097103378632,-83.69739009389622,238.80430603027344,-0.017926689541353624,-0.9994815249323334,-0.013222956274340582,-0.02324797944752112,-0.025100000000000004,0.03211000000000001,0.025100000000000004,-0.3962,2.9149000000000003,-10.637,5.141388560395605,11.500977726291344,14.59999942779541,14.529999732971191,14.359999656677246,14.489999771118164,11.855334147364598,11.798493749770145,11.66045212041876,11.76601341194584,11.770073357374836,0.023397630835188574,0.699999988079071,6.900000095367432,0.0,0.0,0.0,0.0,0.0,,,,,
frame_00121.png,1771859625176054925,1771859625.176055,42.300971097803334,-83.69739385692728,238.79673767089844,-0.017736861051669883,-0.9995020028393182,-0.012069150822773853,-0.023140563490174484,0.029500000000000002,-0.012060000000000003,0.0006900000000000001,-0.4864,-0.8563000000000001,-10.0792,5.183213615061705,11.59453786407613,14.369999885559082,14.5,14.739999771118164,14.559999465942383,11.66857239847292,11.77413369,11.96901571694584,11.822853809540293,11.808643903739762,0.018466112420660236,0.800000011920929,6.900000095367432,0.0,0.0,0.0,0.0,0.0,,,,,
frame_00122.png,1771859625235423627,1771859625.2354238,42.30097116636307,-83.69739763246814,238.7871551513672,-0.0174131522049894,-0.9995243008744998,-0.011533642995887706,-0.022692050830004383,-0.014980000000000004,0.023160000000000004,-0.006150000000000001,-1.1717,-1.7089,-10.0396,5.195584054755666,11.62220979544514,14.549999237060547,14.569999694824219,14.479999542236328,14.699999809265137,11.81473353148613,11.830974087594452,11.757893133891677,11.936535379121532,11.835034033023447,0.018311856464827768,0.9000000357627869,7.275000095367432,0.0,0.0,0.0,0.0,0.0,,,,,
frame_00123.png,1771859625285426148,1771859625.2854261,42.300971202444394,-83.69740015796081,238.7820587158203,-0.017157090214864557,-0.9995377196930288,-0.011460461369951738,-0.022330225959601754,-0.04714000000000001,-0.027120000000000005,-0.0023100000000000004,-1.2867,-2.9542,-12.543000000000001,5.209265854748718,11.652815161121598,14.769999504089355,14.75999927520752,14.34999942779541,14.539999961853027,11.993375776715984,11.985255498661825,11.652331842364598,11.806614027824308,11.859394286391678,0.017727829920387808,1.0,7.025000095367432,0.0,0.0,0.0,0.0,0.0,,,,,
frame_00124.png,1771859625327500828,1771859625.3275008,42.30097124872533,-83.69740268762635,238.778564453125,-0.017080593691896517,-0.999544701921592,-0.01151166863023179,-0.02204821228481144,0.01302,-0.0041,-0.021690000000000004,0.8656,-1.6826,-12.042100000000001,5.235665017992326,11.711868505347754,14.630000114440918,14.630000114440918,14.420000076293945,14.65999984741211,11.879694981527082,11.879694981527082,11.709173014351387,11.904055041297227,11.843154504675695,0.011209654485788917,1.100000023841858,6.825000286102295,0.0,0.0,0.0,0.0,0.0,,,,,
frame_00125.png,1771859625377699688,1771859625.3776996,42.30097129151409,-83.69740650527335,238.77903747558594,-0.017118014580622065,-0.9995321345520041,-0.011719554284742228,-0.022475266897169024,-0.006920000000000001,-0.040350000000000004,-0.005890000000000001,0.044500000000000005,-0.111,-10.0373,5.247923010609311,11.739288899352392,14.4399995803833,14.809999465942383,14.84999942779541,14.65999984741211,11.725412796067372,12.025856114540291,12.058336452364598,11.904055041297227,11.928415101067372,0.016110533043054587,1.100000023841858,7.150000095367432,0.0,0.0,0.0,0.0,0.0,,,,,
frame_00126.png,1771859625437500978,1771859625.437501,42.30097132478364,-83.69741033516618,238.7803497314453,-0.017185115425398023,-0.9995143131107274,-0.011867151818619363,-0.023129643367776027,0.0026000000000000003,-0.0177,-0.0018300000000000002,-0.0367,-0.1693,-8.875200000000001,5.253076207907929,11.750816292517564,14.75999927520752,14.839999198913574,14.819999694824219,14.65999984741211,11.985255498661825,12.050216174310437,12.033976392594452,11.904055041297227,11.993375776715986,0.020641926327524467,0.800000011920929,6.974999904632568,0.0,0.0,0.0,0.0,0.0,,,,,
frame_00127.png,1771859625487456238,1771859625.4874563,42.300971345253814,-83.69741289120961,238.7797393798828,-0.017110232039271756,-0.9995040668376356,-0.012447992178492812,-0.02332183151714385,-0.010400000000000001,-0.02177,-0.0007000000000000001,-1.2763,1.5916000000000001,-8.9342,5.2571370213641595,11.759900088570344,15.029999732971191,14.809999465942383,14.789999961853027,14.839999198913574,12.204498359770147,12.025856114540291,12.009616332824306,12.050216174310437,12.072546745361295,0.026585825936975283,0.4000000059604645,7.125,0.0,0.0,0.0,0.0,0.0,,,,,
frame_00128.png,1771859625530275357,1771859625.5302753,42.300971365809446,-83.69741545510216,238.7770233154297,-0.01697497955529159,-0.9995041743427886,-0.012871246450031442,-0.023185912862346364,-0.0017200000000000004,-0.005080000000000001,-0.00855,-1.1635,1.6014000000000002,-9.1068,5.2811858888219625,11.813695962141402,14.679999351501465,14.609999656677246,14.799999237060547,14.869999885559082,11.92029482301321,11.863454425418759,12.01773583648613,12.07457700847292,11.969015523347755,0.013147414806009535,0.20000000298023224,6.849999904632568,0.0,0.0,0.0,0.0,0.0,,,,,
frame_00129.png,1771859625590322379,1771859625.5903225,42.300971404982604,-83.69741930756084,238.771728515625,-0.01680399601231708,-0.9995002156616255,-0.012903256235871966,-0.02346168341985507,-0.012770000000000002,-0.02543,0.0014000000000000002,-0.7348,0.7474000000000001,-9.9017,5.315975858993606,11.891519038017158,14.519999504089355,14.859999656677246,14.769999504089355,14.75999927520752,11.790373471715984,12.066456730418759,11.993375776715984,11.985255498661825,11.958865369378138,0.005663391795923974,-0.30000001192092896,6.724999904632568,0.0,0.0,0.0,0.0,0.0,,,,,
frame_00130.png,1771859625632608308,1771859625.6326082,42.30097143455212,-83.69742188539962,238.76759338378906,-0.01672129225562663,-0.9994859782770635,-0.013151247984521837,-0.023983792220844003,-0.009510000000000001,-0.035500000000000004,0.0016200000000000001,-0.0431,-0.031,-9.5866,5.334925236285971,11.933907658057542,14.84999942779541,14.809999465942383,14.799999237060547,14.84999942779541,12.058336452364598,12.025856114540291,12.01773583648613,12.058336452364598,12.040066213938905,0.008895540247429912,-1.100000023841858,6.825000286102295,0.0,0.0,0.0,0.0,0.0,,,,,
frame_00131.png,1771859625680175750,1771859625.6801758,42.30097147881194,-83.69742576868485,238.76121520996094,-0.016584148891485295,-0.9994701461626563,-0.013364767105710166,-0.02461251582738822,0.0035600000000000002,-0.03456000000000001,-0.006860000000000001,-0.0308,-0.0262,-10.096300000000001,5.34726223397801,11.96150478167477,14.809999465942383,14.889999389648438,14.839999198913574,14.960000038146973,12.025856114540291,12.090816790188905,12.050216174310437,12.147657962175694,12.078636760303832,0.009792411637748888,-2.299999952316284,7.125,0.0,0.0,0.0,0.0,0.0,,,,,
frame_00132.png,1771859625732237303,1771859625.7322373,42.300971512053636,-83.69742836690297,238.75686645507812,-0.01654564101746636,-0.9994587432332975,-0.013159459994339706,-0.025204978684698707,0.01693,-0.022850000000000006,-0.0015600000000000002,0.1302,-0.23420000000000002,-9.1759,5.367306234362898,12.006342007895743,14.84999942779541,14.90999984741211,15.019999504089355,14.979999542236328,12.058336452364598,12.107057346297227,12.196378081715984,12.16389774389168,12.131417406067373,0.010417444221510287,-3.0,7.175000190734863,0.0,0.0,0.0,0.0,0.0,,,,,
frame_00133.png,1771859625782910717,1771859625.7829108,42.3009715606008,-83.69743227726319,238.74911499023438,-0.016568300869947705,-0.999446129830897,-0.01306918777652501,-0.02573171784367729,0.019660000000000004,-0.018540000000000004,-0.007160000000000001,0.4055,0.0395,-10.6036,5.378483905403884,12.031345787354166,15.00999927520752,15.089999198913574,14.989999771118164,14.929999351501465,12.188257803661823,12.253218479310437,12.172018021945838,12.123297128013212,12.184197858232828,0.012704486562037065,-3.0,7.275000095367432,0.0,0.0,0.0,0.0,0.0,,,,,
frame_00134.png,1771859625841207019,1771859625.841207,42.300971612824895,-83.69743619627961,238.74253845214844,-0.016662565343045943,-0.9994307664316546,-0.01301595026363054,-0.02628853485378482,0.005540000000000001,-0.023410000000000004,-0.0011800000000000003,-0.2318,-0.749,-10.8918,5.389480999422914,12.055945626849095,15.059999465942383,15.0,15.130000114440918,14.960000038146973,12.228858419540291,12.180138300000001,12.28569959152708,12.147657962175694,12.210588568310767,0.012827110062380825,-2.9000000953674316,7.224999904632568,0.0,0.0,0.0,0.0,0.0,,,,,
frame_00135.png,1771859625882008603,1771859625.8820086,42.300971645283894,-83.69743881999719,238.7399444580078,-0.016800236522980794,-0.9994086630314454,-0.013346631422870908,-0.026869010776966257,-0.013320000000000002,-0.05006000000000001,-0.0008600000000000002,-0.0015,1.0009000000000001,-10.7943,5.412269728274503,12.106922645966367,14.84999942779541,14.989999771118164,15.109999656677246,15.09999942779541,12.058336452364598,12.172018021945838,12.269459035418759,12.261338757364596,12.190288066773448,0.0068857647186549974,-2.799999952316284,7.400000095367432,0.0,0.0,0.0,0.0,0.0,,,,,
frame_00136.png,1771859625933370089,1771859625.93337,42.3009716963214,-83.69744276461387,238.7377166748047,-0.01689995980383141,-0.9993844145641835,-0.013319330457228808,-0.027708820274497278,-0.00202,-0.02568,0.013200000000000002,-0.79,2.301,-9.7683,5.4183221309918945,12.120461507701009,15.109999656677246,15.079999923706055,15.039999961853027,15.170000076293945,12.269459035418759,12.245098975648615,12.212618637824306,12.318179929351386,12.261339144560766,0.011623124810078208,-2.799999952316284,7.325000286102295,0.0,0.0,0.0,0.0,0.0,,,,,
frame_00137.png,1771859625982895927,1771859625.9828959,42.300971729399166,-83.69744540593547,238.7366943359375,-0.016837134712098467,-0.9993662286245559,-0.01277733924781431,-0.02864247861419573,0.01391,-0.05455000000000001,-0.008230000000000001,0.13240000000000002,0.0969,-10.417,5.444916937123355,12.179952493328718,15.109999656677246,14.899999618530273,15.229999542236328,15.170000076293945,12.269459035418759,12.098937068243064,12.36690004889168,12.318179929351386,12.263369020476222,0.006848674261512388,-2.799999952316284,7.400000095367432,0.0,0.0,0.0,0.0,0.0,,,,,
frame_00138.png,1771859626034403928,1771859626.0344038,42.300971787953216,-83.69744938303671,238.73582458496094,-0.016877843693656802,-0.9993308227979757,-0.012408875345199556,-0.029984409462929722,0.013260000000000003,-0.07454000000000001,-0.004810000000000001,-0.23670000000000002,0.6715,-8.8792,5.468613041006107,12.232959255948202,15.170000076293945,14.869999885559082,15.339999198913574,15.229999542236328,12.318179929351386,12.07457700847292,12.456220784310437,12.36690004889168,12.303969442756605,0.0058048249260598565,-2.700000047683716,7.325000286102295,0.0,0.0,0.0,0.0,0.0,,,,,
frame_00139.png,1771859626084152572,1771859626.0841525,42.300971827629056,-83.69745204598276,238.7340850830078,-0.016997707655912964,-0.9993009061185152,-0.01217624756083766,-0.030992191927905584,-0.006430000000000001,-0.025570000000000002,0.009080000000000001,0.1211,2.4071000000000002,-7.1381000000000006,5.48280342153864,12.264702285776647,15.089999198913574,15.019999504089355,15.1899995803833,15.339999198913574,12.253218479310437,12.196378081715984,12.33441971106737,12.456220784310437,12.310059264101058,0.003698171979030593,-2.5,7.275000095367432,0.0,0.0,0.0,0.0,0.0,,,,,
frame_00140.png,1771859626135264942,1771859626.135265,42.30097189514336,-83.69745605267838,238.72654724121094,-0.016984617512254774,-0.9992905794531072,-0.01094952400648026,-0.03178000170338423,0.042390000000000004,0.01058,-0.0031200000000000004,0.29700000000000004,-1.5055,-7.6033,5.487477628988771,12.275158207390142,15.279999732971191,15.289999961853027,15.25999927520752,15.339999198913574,12.407500664770147,12.415620942824306,12.391260108661823,12.456220784310437,12.417650625141679,0.011608193991809491,-2.4000000953674316,7.200000286102295,0.0,0.0,0.0,0.0,0.0,,,,,
frame_00141.png,1771859626185332540,1771859626.1853325,42.3009719381003,-83.6974587172309,238.7181854248047,-0.017024026382747248,-0.9992893033908596,-0.010506350099703379,-0.03194819653615012,0.0026400000000000004,-0.008150000000000001,0.0002800000000000001,-0.9855,-2.0034,-10.869,5.4966239258021075,12.295617924583768,15.319999694824219,15.479999542236328,15.309999465942383,15.329999923706055,12.439981002594452,12.56990235389168,12.431860724540291,12.448101280648613,12.472461340418759,0.014382637531490937,-2.4000000953674316,7.349999904632568,0.0,0.0,0.0,0.0,0.0,,,,,
frame_00142.png,1771859626236606099,1771859626.2366061,42.30097199494604,-83.69746271835923,238.7034454345703,-0.017157911006341786,-0.9993039094560019,-0.010947979874159186,-0.03126410677636992,-0.01708,0.035690000000000006,0.00117,-1.5201,-0.685,-8.9647,5.501611132615763,12.306774006993507,15.559999465942383,15.569999694824219,15.489999771118164,15.449999809265137,12.634863029540291,12.642983307594454,12.578022631945839,12.545542294121534,12.60035281580053,0.023855058087537215,-2.4000000953674316,7.275000095367432,0.0,0.0,0.0,0.0,0.0,,,,,
frame_00143.png,1771859626286306341,1771859626.2863064,42.30097202738803,-83.69746539503154,238.69305419921875,-0.017226857865180245,-0.9993337290817494,-0.011589394137403513,-0.0300169823797416,-0.01768,0.04517,0.0029600000000000004,-0.6642,-0.8424,-10.179400000000001,5.520693536102789,12.349460198649775,15.6899995803833,15.619999885559082,15.529999732971191,15.559999465942383,12.74042432106737,12.68358392347292,12.610502969770145,12.634863029540291,12.667343560962681,0.02574066859599763,-2.4000000953674316,7.300000190734863,0.0,0.0,0.0,0.0,0.0,,,,,
frame_00144.png,1771859626337374803,1771859626.3373747,42.30097206744952,-83.69746941916144,238.6791229248047,-0.017275966212032368,-0.9993618088613373,-0.012006073512231505,-0.028868151649448393,-0.005270000000000001,0.041960000000000004,-0.0003800000000000001,0.169,-0.14070000000000002,-11.3358,5.544592027919752,12.40291969093481,15.639999389648438,15.559999465942383,15.559999465942383,15.639999389648438,12.699823705188903,12.634863029540291,12.634863029540291,12.699823705188903,12.667343367364598,0.0213194701746761,-2.4000000953674316,7.300000190734863,0.0,0.0,0.0,0.0,0.0,,,,,
frame_00145.png,1771859626387383391,1771859626.3873832,42.300972093136224,-83.69747211517473,238.67269897460938,-0.0172557527708474,-0.9993769924165423,-0.01219695974448782,-0.028268360365777272,-0.016770000000000004,0.01297,0.0025200000000000005,0.1211,0.7241000000000001,-11.293000000000001,5.565134306104044,12.44887153469638,15.59999942779541,15.619999885559082,15.729999542236328,15.569999694824219,12.667343367364598,12.68358392347292,12.772904658891678,12.642983307594454,12.691703814330912,0.019506368826903864,-2.4000000953674316,7.175000190734863,0.0,0.0,0.0,0.0,0.0,,,,,
frame_00146.png,1771859626439959210,1771859626.4399593,42.300972136334224,-83.69747617328831,238.66622924804688,-0.017262004603256387,-0.9993786572821386,-0.012638039449079094,-0.02801075730698193,-0.020260000000000004,0.0076500000000000005,-0.0024300000000000007,0.0346,0.0499,-10.916400000000001,5.582677185656811,12.488113903683148,15.679999351501465,15.670000076293945,15.679999351501465,15.719999313354492,12.732304043013212,12.724184539351388,12.732304043013212,12.764784380837519,12.738394251553833,0.020041485031368062,-2.299999952316284,6.525000095367432,0.0,0.0,0.0,0.0,0.0,,,,,
frame_00147.png,1771859626499292791,1771859626.4992926,42.300972187212714,-83.69748024566691,238.66226196289062,-0.017237274441565142,-0.9993798610701184,-0.012738969989768763,-0.02793722070817214,0.0030900000000000003,0.01182,0.0015400000000000001,-0.4174,0.612,-9.294,5.596378027621277,12.518761865107141,15.649999618530273,15.619999885559082,15.729999542236328,15.809999465942383,12.707943983243066,12.68358392347292,12.772904658891678,12.837865334540291,12.750574475036988,0.018517215394596276,-2.200000047683716,0.0,0.0,0.0,0.0,0.0,0.0,,,,,
frame_00148.png,1771859626549189478,1771859626.5491893,42.30097222617506,-83.69748296344389,238.6587371826172,-0.017225506585396566,-0.9994027930993972,-0.012065519458183252,-0.027418284195115775,0.029940000000000005,0.04241,-0.0004700000000000001,-0.4772,0.0229,-9.2002,5.601342035619643,12.529866053159004,15.719999313354492,15.739999771118164,15.829999923706055,16.020000457763672,12.764784380837519,12.781024936945839,12.854105890648613,13.008388076108323,12.852075821135074,0.025715340180738365,-2.0,0.0,0.0,0.0,0.0,0.0,0.0,,,,,
frame_00149.png,1771859626600725047,1771859626.600725,42.30097228646604,-83.69748704237129,238.6508331298828,-0.01720601009133521,-0.9994368812736837,-0.011594102328798296,-0.026371392793303475,-0.0051600000000000005,0.04796000000000001,0.008220000000000002,-0.5923,0.43570000000000003,-8.9589,5.608485186236969,12.545844852500926,15.90999984741211,15.839999198913574,15.9399995803833,16.029998779296875,12.919066566297225,12.862225394310435,12.943426626067373,13.016506805377809,12.93530634801321,0.031043066456751853,-1.8000000715255737,0.0,0.0,0.0,0.0,0.0,0.0,,,,,
frame_00150.png,1771859626652125322,1771859626.6521254,42.30097233594552,-83.69748976114228,238.64285278320312,-0.017133678764857496,-0.9994911417429977,-0.010837672028713257,-0.024625992249243008,0.013930000000000001,0.07383000000000002,-0.005730000000000001,-0.3322,-1.7244000000000002,-8.8977,5.619619145546687,12.570750851439206,15.84999942779541,15.809999465942383,15.880000114440918,15.899999618530273,12.870345672364598,12.837865334540291,12.894706506527081,12.910946288243066,12.878465950418759,0.02447865705208242,-1.7000000476837158,0.0,0.0,0.0,0.0,0.0,0.0,,,,,
frame_00151.png,1771859626701824344,1771859626.7018242,42.30097240628608,-83.69749384689415,238.62745666503906,-0.01705569219322317,-0.9995379476242279,-0.010386478567611799,-0.022915402809478007,0.028750000000000005,0.07157000000000002,-0.008110000000000001,-0.16390000000000002,-1.7077,-9.9742,5.6314404803882,12.59719446819958,16.049999237060547,15.949999809265137,15.899999618530273,15.899999618530273,13.03274736148613,12.951546904121534,12.910946288243066,12.910946288243066,12.95154671052345,0.028129457175436832,-1.7000000476837158,0.0,0.0,0.0,0.0,0.0,0.0,,,,,
frame_00152.png,1771859626743201648,1771859626.7432015,42.30097245083506,-83.69749657853392,238.6178741455078,-0.017030534809677145,-0.9995643974002957,-0.010426063653414998,-0.02173185520325841,0.016560000000000002,0.05392000000000001,-0.011670000000000002,0.5458000000000001,0.39430000000000004,-10.7752,5.64856200740974,12.635494296855144,15.960000038146973,15.9399995803833,15.869999885559082,15.869999885559082,12.959667182175693,12.943426626067373,12.88658622847292,12.88658622847292,12.919066566297227,0.02244251493292675,-1.7000000476837158,0.0,0.0,0.0,0.0,0.0,0.0,,,,,
frame_00153.png,1771859626790905908,1771859626.790906,42.300972490463614,-83.69749931963914,238.61032104492188,-0.016997552562293794,-0.9995770748459301,-0.010201975927461988,-0.021276144775819638,0.01566,-0.00417,0.0013400000000000003,0.3507,0.275,-10.8406,5.671825287464524,12.687532858540894,15.84999942779541,15.960000038146973,15.829999923706055,15.699999809265137,12.870345672364598,12.959667182175693,12.854105890648613,12.748544599121534,12.85816583607761,0.013448869803072118,-1.7000000476837158,0.0,0.0,0.0,0.0,0.0,0.0,,,,,
frame_00154.png,1771859626850378398,1771859626.8503785,42.3009725425147,-83.69750345052464,238.60269165039062,-0.0170385898317586,-0.9995627258060702,-0.010218523346978713,-0.0219003519672884,-0.00058,-0.030760000000000003,-0.0031200000000000004,0.2513,-0.3604,-10.9542,5.695415724811317,12.740303251459428,15.84999942779541,15.90999984741211,15.819999694824219,15.829999923706055,12.870345672364598,12.919066566297225,12.845985612594452,12.854105890648613,12.872375935476223,0.01036652593035139,-1.7000000476837158,0.0,0.0,0.0,0.0,0.0,0.0,,,,,
frame_00155.png,1771859626891912630,1771859626.8919127,42.30097257147568,-83.69750621347272,238.5998077392578,-0.017087312371470653,-0.999538575231973,-0.010498508141799753,-0.02281319148987418,-0.010640000000000002,-0.046150000000000004,0.0028400000000000005,-0.5001,0.5735,-10.6241,5.694359330421643,12.737940160593391,15.809999465942383,15.869999885559082,15.859999656677246,15.869999885559082,12.837865334540291,12.88658622847292,12.878465950418759,12.88658622847292,12.872375935476223,0.010553965020084448,-1.7000000476837158,0.0,0.0,0.0,0.0,0.0,0.0,,,,,
frame_00156.png,1771859626951220517,1771859626.9512205,42.300972613019404,-83.69751036127742,238.5982666015625,-0.017129276562709184,-0.999503297552751,-0.010805953800037078,-0.024144925514206102,-0.01208,-0.048690000000000004,-0.0011200000000000003,-0.5885,0.1169,-10.0911,5.692467724404947,12.733708751430404,15.829999923706055,15.809999465942383,15.899999618530273,15.929999351501465,12.854105890648613,12.837865334540291,12.910946288243066,12.93530634801321,12.884555965361294,0.01184629057217479,-1.7000000476837158,0.949999988079071,0.0,0.0,0.0,0.0,0.0,,,,,
frame_00157.png,1771859627000897944,1771859627.0008981,42.3009726540576,-83.69751450694544,238.59738159179688,-0.017196093575882587,-0.999480165985625,-0.011026781458031893,-0.024941977823622816,-0.007000000000000001,-0.030800000000000004,0.0034100000000000007,-0.8528,0.41390000000000005,-9.3886,5.690253056655973,12.728754672556013,15.809999465942383,15.839999198913574,15.869999885559082,15.880000114440918,12.837865334540291,12.862225394310435,12.88658622847292,12.894706506527081,12.870345865962681,0.011123727108351605,-1.7000000476837158,1.125,0.0,0.0,0.0,0.0,0.0,,,,,
frame_00158.png,1771859627052256896,1771859627.0522568,42.30097268194534,-83.6975172700676,238.5963134765625,-0.017238334221366725,-0.9994632466631038,-0.011166596421283656,-0.02552186371102762,-0.0015600000000000002,-0.026460000000000004,0.0018600000000000003,-0.45520000000000005,0.269,-9.4923,5.693931408046779,12.736982923916162,15.839999198913574,15.670000076293945,15.929999351501465,15.880000114440918,12.862225394310435,12.724184539351388,12.93530634801321,12.894706506527081,12.854105697050528,0.009195487960845483,-1.7000000476837158,1.625,0.0,0.0,0.0,0.0,0.0,,,,,
frame_00159.png,1771859627101937820,1771859627.101938,42.30097272816022,-83.69752141412575,238.59381103515625,-0.017281636080808627,-0.9994492107921173,-0.011422411788384677,-0.025925829018973324,-0.01353,-0.01012,0.00035000000000000005,0.1017,0.7198,-9.154300000000001,5.6910490257040625,12.730535207558447,15.799999237060547,15.880000114440918,15.929999351501465,15.869999885559082,12.82974505648613,12.894706506527081,12.93530634801321,12.88658622847292,12.886586034874835,0.012257994245500135,-1.8000000715255737,2.875,0.0,0.0,0.0,0.0,0.0,,,,,
frame_00160.png,1771859627153217093,1771859627.153217,42.30097276136025,-83.6975241734963,238.59156799316406,-0.01722838900933077,-0.9994393288599508,-0.0115692994848836,-0.026274737858698598,-0.009850000000000003,-0.00936,-0.0028300000000000005,0.019700000000000002,0.5103,-9.315100000000001,5.689438282444552,12.726932071531518,15.829999923706055,15.869999885559082,15.9399995803833,15.90999984741211,12.854105890648613,12.88658622847292,12.943426626067373,12.919066566297225,12.900796327871532,0.013661128649293707,-1.899999976158142,4.900000095367432,0.0,0.0,0.0,0.0,0.0,,,,,
frame_00161.png,1771859627194243845,1771859627.194244,42.30097281533594,-83.69752831531092,238.58726501464844,-0.01717511902376956,-0.9994337532970203,-0.011479604357981912,-0.026559494365174328,0.0050100000000000006,-0.0034800000000000005,-0.00046000000000000007,-1.1744,0.17950000000000002,-9.9521,5.680842005969371,12.707702716833126,15.84999942779541,16.010000228881836,15.90999984741211,15.90999984741211,12.870345672364598,13.00026779805416,12.919066566297225,12.919066566297225,12.927186650753303,0.017271723993782132,-2.0,6.099999904632568,0.0,0.0,0.0,0.0,0.0,,,,,
frame_00162.png,1771859627254093326,1771859627.2540934,42.30097286927886,-83.6975324579837,238.58242797851562,-0.017088353870491624,-0.9994244693526557,-0.011440861515068977,-0.026978230278365215,-0.00151,-0.014390000000000002,-0.0027100000000000006,-0.46530000000000005,-0.0512,-9.6172,5.686702654828676,12.72081263669246,15.899999618530273,15.90999984741211,15.829999923706055,15.859999656677246,12.910946288243066,12.919066566297225,12.854105890648613,12.878465950418759,12.890646173901915,0.01335084023795626,-2.200000047683716,7.300000190734863,0.0,0.0,0.0,0.0,0.0,,,,,
frame_00163.png,1771859627303985598,1771859627.3039856,42.300972908569605,-83.6975352153297,238.57797241210938,-0.017047423238719772,-0.9994232518421468,-0.011235333012124423,-0.02713514935089443,0.019110000000000002,-0.0013400000000000003,-0.0030900000000000003,-1.1447,0.0346,-8.560500000000001,5.684802237949176,12.71656151815803,15.84999942779541,15.84999942779541,15.979999542236328,16.0,12.870345672364598,12.870345672364598,12.975906963891678,12.99214752,12.92718645715522,0.01656304172290885,-2.200000047683716,7.650000095367432,0.0,0.0,0.0,0.0,0.0,,,,,
frame_00164.png,1771859627346657513,1771859627.3466575,42.300972947670225,-83.69753796914193,238.57138061523438,-0.01705595480992045,-0.9994367270504549,-0.011040959633170743,-0.02670992771564355,0.022320000000000003,0.024870000000000003,-0.0034400000000000008,-0.4273,0.612,-8.8416,5.679180601331488,12.70398625434246,16.049999237060547,16.020000457763672,16.049999237060547,16.020000457763672,13.03274736148613,13.008388076108323,13.03274736148613,13.008388076108323,13.020567718797228,0.024919852565690067,-2.200000047683716,8.0,0.0,0.0,0.0,0.0,0.0,,,,,
frame_00165.png,1771859627396034223,1771859627.3960342,42.30097300099047,-83.69754210303853,238.5604248046875,-0.01706318272358981,-0.9994653302232646,-0.01086280903208307,-0.025688535516349517,0.013300000000000001,0.04032000000000001,7.000000000000002e-05,0.1521,0.6948000000000001,-9.758700000000001,5.689381789623643,12.726805700480712,15.389999389648438,16.079999923706055,16.059999465942383,15.969999313354492,12.496821400188903,13.057108195648613,13.040867639540291,12.967786685837519,12.890645980303832,0.012873637240877438,-2.200000047683716,7.700000286102295,0.0,0.0,0.0,0.0,0.0,,,,,
frame_00166.png,1771859627446903445,1771859627.4469035,42.30097304876378,-83.69754484095849,238.55299377441406,-0.01702437337940038,-0.99951063810617,-0.009771018207874342,-0.024355332615607506,0.07687000000000002,0.13034,-0.009400000000000002,-0.3572,-1.1621000000000001,-9.3983,5.6350385584085,12.60524315284631,16.5,16.3799991607666,16.049999237060547,15.9399995803833,13.39815213,13.300710342134742,13.03274736148613,12.943426626067373,13.16875911492206,0.04470488631141616,-2.299999952316284,8.75,0.0,0.0,0.0,0.0,0.0,,,,,
frame_00167.png,1771859627497145023,1771859627.4971452,42.30097312128977,-83.69754895709279,238.54119873046875,-0.017009218524952685,-0.9995713208634661,-0.008900344720385877,-0.02210531285221199,0.03506000000000001,0.11906000000000003,-0.01088,-1.0796000000000001,0.2632,-12.3329,5.6520921135560895,12.64339093249816,16.139999389648438,16.149999618530273,16.15999984741211,16.059999465942383,13.105828315188905,13.113948593243066,13.122068871297225,13.040867639540291,13.095678354817373,0.0357726360541987,-2.1000001430511475,9.175000190734863,0.0,0.0,0.0,0.0,0.0,,,,,
frame_00168.png,1771859627549867908,1771859627.549868,42.30097316792978,-83.69755171246206,238.5342254638672,-0.016944566616443335,-0.9996286265359395,-0.008416720344833678,-0.019612483032215054,0.011870000000000002,0.06935000000000001,-0.00204,0.6308,-0.022000000000000002,-11.535400000000001,5.696411883199708,12.742531598004756,16.059999465942383,16.25,16.18000030517578,16.1299991607666,13.040867639540291,13.195149825,13.138309427405549,13.097708037134742,13.118008732270146,0.029466447179474345,-2.0,9.175000190734863,0.0,0.0,0.0,0.0,0.0,,,,,
frame_00169.png,1771859627600412867,1771859627.6004128,42.300973230190415,-83.69755586943717,238.5275421142578,-0.01686640149257168,-0.9996455900739993,-0.008442589219991366,-0.01878673557485953,-0.009290000000000001,0.03151,-0.0024700000000000004,0.26730000000000004,-0.876,-11.106,5.732201978616217,12.822591894045761,16.029998779296875,16.06999969482422,16.119998931884766,16.03999900817871,13.016506805377809,13.048987917594452,13.089587759080583,13.02462708343197,13.044927391371203,0.017339356907138642,-2.200000047683716,9.100000381469727,0.0,0.0,0.0,0.0,0.0,,,,,
frame_00170.png,1771859627650358193,1771859627.6503582,42.30097326316629,-83.69755866197951,238.52503967285156,-0.016846912289108396,-0.9996347567466031,-0.008778252201835188,-0.0192217829236451,-0.018740000000000003,-0.028360000000000003,-0.00198,-0.2117,-0.9666,-10.007200000000001,5.774176203518053,12.916485716697673,16.10999870300293,16.06999969482422,16.09000015258789,16.170000076293945,13.08146748102642,13.048987917594452,13.065228473702776,13.130189149351388,13.08146825541876,0.01277302064506648,-2.4000000953674316,8.625,0.0,0.0,0.0,0.0,0.0,,,,,
frame_00171.png,1771859627702311739,1771859627.7023118,42.30097330329715,-83.69756287565446,238.52206420898438,-0.016962320236313666,-0.9996074258706138,-0.009155884706220318,-0.020333312857780273,-0.0027400000000000002,-0.05349,0.005030000000000001,-0.3496,-0.0134,-9.1994,5.80771664288489,12.991513667134928,16.19999885559082,16.029998779296875,16.139999389648438,16.19999885559082,13.154548434729195,13.016506805377809,13.105828315188905,13.154548434729195,13.107857997506276,0.008955409920067131,-2.4000000953674316,8.625,0.0,0.0,0.0,0.0,0.0,,,,,
frame_00172.png,1771859627752508867,1771859627.7525089,42.30097332896121,-83.69756569904114,238.51885986328125,-0.0171093913025675,-0.9995779204664978,-0.009370115232790887,-0.021527902490759136,-0.0027900000000000004,-0.05708000000000001,0.00464,0.3391,0.18000000000000002,-8.7552,5.832240252484509,13.0463715103927,16.18000030517578,16.270000457763672,16.19999885559082,16.19999885559082,13.138309427405549,13.211390381108323,13.154548434729195,13.154548434729195,13.164699169493066,0.009069775378242655,-2.4000000953674316,8.625,0.0,0.0,0.0,0.0,0.0,,,,,
frame_00173.png,1771859627800376396,1771859627.8003764,42.300973367190466,-83.69756994516203,238.51223754882812,-0.017266406784447352,-0.9995491793778971,-0.009645545760737721,-0.02258921531846612,-0.00787,-0.033740000000000006,0.005580000000000001,0.1683,0.2997,-8.8786,5.841049313404827,13.066076851127795,16.229999542236328,16.170000076293945,16.229999542236328,16.19999885559082,13.178909268891678,13.130189149351388,13.178909268891678,13.154548434729195,13.160639030465985,0.007237228160802393,-2.299999952316284,8.699999809265137,0.0,0.0,0.0,0.0,0.0,,,,,
frame_00174.png,1771859627851174408,1771859627.8511744,42.300973396497966,-83.69757278018247,238.5066680908203,-0.01732816805305487,-0.9995306608526888,-0.009939485724930794,-0.023224969985699204,0.0029900000000000005,-0.01776,-0.00029,-0.1889,0.4158,-10.5069,5.847792180246088,13.081160239679686,16.3799991607666,16.279998779296875,16.28999900817871,16.260000228881836,13.300710342134742,13.219509110377807,13.22762938843197,13.203270103054162,13.23777973599967,0.011972905571854571,-2.200000047683716,8.824999809265137,0.0,0.0,0.0,0.0,0.0,,,,,
frame_00175.png,1771859627901036993,1771859627.901037,42.30097344867317,-83.69757704260837,238.49813842773438,-0.017332951410975628,-0.999522945771973,-0.010023561831488273,-0.023515481685748196,0.015950000000000002,-0.0020100000000000005,-0.0004000000000000001,-0.36410000000000003,1.0450000000000002,-9.412600000000001,5.860736027936087,13.110114850331351,16.3799991607666,16.350000381469727,16.270000457763672,16.6299991607666,13.300710342134742,13.276351056756935,13.211390381108323,13.503712647134742,13.323041106783686,0.016241372320773592,-2.1000001430511475,9.074999809265137,0.0,0.0,0.0,0.0,0.0,,,,,
frame_00176.png,1771859627952694171,1771859627.9526942,42.3009734952601,-83.69757989426417,238.49330139160156,-0.017128598663061212,-0.9995182887397341,-0.009111857823999096,-0.024223452058457093,0.058030000000000005,-0.04648,-0.02151,0.2826,-0.5525,-16.8564,5.88331666973283,13.160626391192157,16.190000534057617,16.329999923706055,16.170000076293945,16.190000534057617,13.14642970545971,13.260110500648613,13.130189149351388,13.14642970545971,13.170789765229856,0.0007722561020728366,-2.0,8.90000057220459,0.0,0.0,0.0,0.0,0.0,,,,,
frame_00177.png,1771859628001888401,1771859628.0018885,42.30097356955537,-83.69758420461649,238.49835205078125,-0.01688353150437033,-0.9994731835571191,-0.00795877978353,-0.026551074149568053,0.041890000000000004,-0.11143000000000002,-0.0273,1.4847000000000001,-1.8267,-10.137500000000001,5.934474075193974,13.27506243776441,16.270000457763672,16.229999542236328,16.279998779296875,16.369998931884766,13.211390381108323,13.178909268891678,13.219509110377807,13.292590064080583,13.225599706114599,0.0037259886257936773,-1.3000000715255737,8.90000057220459,0.0,0.0,0.0,0.0,0.0,,,,,
frame_00178.png,1771859628052884454,1771859628.0528846,42.300973622252066,-83.69758708120216,238.50428771972656,-0.01684477270136364,-0.9993974115153093,-0.00756932026093751,-0.029390013268567914,-0.0019500000000000003,-0.10541000000000002,-0.0011200000000000003,-0.6955,-0.43370000000000003,-8.645900000000001,5.9197427589183915,13.242109367134908,16.170000076293945,16.31999969482422,16.420000076293945,16.489999771118164,13.130189149351388,13.251990222594452,13.333191454351388,13.39003185194584,13.276350669560767,0.002585789127436186,-0.699999988079071,9.100000381469727,0.0,0.0,0.0,0.0,0.0,,,,,
frame_00179.png,1771859628102757462,1771859628.1027575,42.30097368615489,-83.69759138736002,238.50901794433594,-0.016980519802172966,-0.9993568012517846,-0.007707638762992795,-0.030630671617652882,0.0016600000000000002,-0.017050000000000003,-0.0007100000000000001,-1.8716000000000002,1.0685,-7.1385000000000005,5.883051916427075,13.160034153932381,16.8799991607666,16.270000457763672,16.649999618530273,16.59000015258789,13.706714952134744,13.211390381108323,13.519953203243064,13.471233083702774,13.477322905047227,0.024110024898380412,-0.5,8.850000381469727,0.0,0.0,0.0,0.0,0.0,,,,,
frame_00180.png,1771859628154529739,1771859628.1545298,42.3009737419302,-83.69759567055672,238.50462341308594,-0.01716363762742812,-0.9993876023351604,-0.007305933771031208,-0.02960495184773878,0.0089,0.07806,0.008870000000000001,-1.2379,1.1612,-6.7171,5.862934861638148,13.11503350939284,16.729999542236328,16.6299991607666,16.729999542236328,16.670000076293945,13.58491387889168,13.503712647134742,13.58491387889168,13.536193759351388,13.552433541067373,0.033351041868194424,-0.699999988079071,8.949999809265137,0.0,0.0,0.0,0.0,0.0,,,,,
frame_00181.png,1771859628204440064,1771859628.20444,42.3009737790148,-83.6975985246592,238.49771118164062,-0.01706875826737947,-0.9994600912053524,-0.0059375893937678,-0.027439544660753278,0.028480000000000002,0.09277000000000002,0.010230000000000003,0.4345,-1.9197000000000002,-9.3084,5.891418463304685,13.178749617304783,16.559999465942383,16.829999923706055,16.78999900817871,16.639999389648438,13.446872249540291,13.666115110648613,13.63363399843197,13.511832925188905,13.564613570952444,0.029279253711671536,-1.5,7.825000286102295,0.0,0.0,0.0,0.0,0.0,,,,,
frame_00182.png,1771859628255041774,1771859628.2550418,42.30097382627622,-83.69760282492445,238.48280334472656,-0.016964585912733532,-0.9995034812248047,-0.006851952998373864,-0.025652379702748376,-0.04825000000000001,0.05914000000000001,-0.0029600000000000004,0.3069,-0.5327000000000001,-9.5195,5.926025586311634,13.256163675043947,16.559999465942383,16.809999465942383,16.75,16.85999870300293,13.446872249540291,13.649874554540292,13.601154435,13.690474396026422,13.59709390877675,0.0257186198126566,-2.5,6.925000190734863,0.0,0.0,0.0,0.0,0.0,,,,,
frame_00183.png,1771859628304839164,1771859628.3048391,42.30097385025929,-83.69760571188743,238.47134399414062,-0.01685253210487836,-0.99952688317043,-0.008668316006827858,-0.02422524053266483,-0.06336,0.041080000000000005,-0.00464,0.45380000000000004,0.4033,-10.132200000000001,5.960472405723578,13.333219143259301,16.770000457763672,16.549999237060547,16.690000534057617,16.760000228881836,13.617394991108322,13.43875197148613,13.55243431545971,13.609274713054162,13.55446399777708,0.01659350619986108,-3.200000047683716,6.775000095367432,0.0,0.0,0.0,0.0,0.0,,,,,
frame_00184.png,1771859628356601977,1771859628.356602,42.30097389071537,-83.69761006440883,238.4552459716797,-0.016870176044488205,-0.999535524933606,-0.00935499688886077,-0.023592702031307252,-0.019020000000000002,0.028730000000000002,0.00272,0.0878,-0.316,-10.0412,5.986833599072656,13.392187551109588,16.84000015258789,16.760000228881836,16.729999542236328,16.719999313354492,13.674235388702774,13.609274713054162,13.58491387889168,13.576793600837517,13.611304395371533,0.016361542386239263,-3.200000047683716,6.950000286102295,0.0,0.0,0.0,0.0,0.0,,,,,
frame_00185.png,1771859628406120640,1771859628.4061208,42.30097391787667,-83.69761297957648,238.4463653564453,-0.017044939828386174,-0.9995309300271475,-0.009450780555238698,-0.02362356222521241,-0.0054800000000000005,-0.00034,0.009120000000000001,-0.2336,-0.3043,-10.5485,6.014710283533434,13.45454602164728,16.8799991607666,16.799999237060547,16.779998779296875,16.719999313354492,13.706714952134744,13.641754276486129,13.625513720377807,13.576793600837517,13.63769413745905,0.013612359385229311,-2.5,6.849999904632568,0.0,0.0,0.0,0.0,0.0,,,,,
frame_00186.png,1771859628457242712,1771859628.4572427,42.30097396123162,-83.697617371,238.43511962890625,-0.017213323627167543,-0.9995186790912718,-0.009798526581781349,-0.023876777717516413,-0.010640000000000002,-0.010690000000000002,0.00576,-0.382,0.0516,-10.403500000000001,6.037103564707153,13.50463844803602,16.84000015258789,16.84000015258789,16.899999618530273,16.779998779296875,13.674235388702774,13.674235388702774,13.722955508243064,13.625513720377807,13.674235001506606,0.012558392742106298,-1.7000000476837158,7.325000286102295,0.0,0.0,0.0,0.0,0.0,,,,,
frame_00187.png,1771859628506974922,1771859628.506975,42.30097399336307,-83.69762030814454,238.42877197265625,-0.017302155045895273,-0.9995040403256252,-0.010500892999623496,-0.02412550620669133,-0.016050000000000002,-0.03858000000000001,0.0010000000000000002,0.2374,1.3131000000000002,-11.026100000000001,6.063951012422331,13.56469457772801,16.979999542236328,16.6299991607666,16.899999618530273,16.8799991607666,13.78791618389168,13.503712647134742,13.722955508243064,13.706714952134744,13.680324822851059,0.008524353015135535,-1.5,7.150000095367432,0.0,0.0,0.0,0.0,0.0,,,,,
frame_00188.png,1771859628558304456,1771859628.5583045,42.300974046383004,-83.69762472836308,238.42208862304688,-0.017323574317260226,-0.999484016112241,-0.01096913926297613,-0.02472394169320939,0.0034400000000000008,-0.0357,-0.005750000000000001,0.7506,0.6847000000000001,-10.9152,6.087141563231547,13.616570448455176,16.90999984741211,16.989999771118164,16.829999923706055,16.84000015258789,13.731075786297227,13.796036461945839,13.666115110648613,13.674235388702774,13.716865686898613,0.007365675433700359,-1.5,7.0,0.0,0.0,0.0,0.0,0.0,,,,,
frame_00189.png,1771859628608062723,1771859628.6080627,42.30097409242007,-83.69762768474959,238.4197235107422,-0.017240692566531823,-0.9994573715286428,-0.010716346526836926,-0.025939948612126076,0.025840000000000002,-0.08011000000000001,-0.009130000000000001,0.056600000000000004,0.5099,-11.380500000000001,6.098853638024958,13.642769657043551,16.889999389648438,16.959999084472656,17.119998931884766,16.809999465942383,13.714835230188905,13.771675627783356,13.901596979080582,13.649874554540292,13.759495597898283,0.008555882990699608,-1.5,7.349999904632568,0.0,0.0,0.0,0.0,0.0,,,,,
frame_00190.png,1771859628667506065,1771859628.6675062,42.30097417054958,-83.69763213020136,238.4207305908203,-0.017148625275925977,-0.9994295945930289,-0.009437462342451705,-0.02751989112067912,0.09033000000000001,-0.07823000000000001,-0.01716,0.0625,0.4849,-8.5266,6.109539728459023,13.666673800179128,16.940000534057617,16.8799991607666,17.270000457763672,16.84000015258789,13.75543662045971,13.706714952134744,14.023399601108322,13.674235388702774,13.789946640601388,0.009019959225239144,-1.3000000715255737,7.200000286102295,0.0,0.0,0.0,0.0,0.0,,,,,
frame_00191.png,1771859628711128068,1771859628.711128,42.300974219358494,-83.69763509723265,238.42030334472656,-0.017131577248510443,-0.9994118741781794,-0.00869129668227786,-0.02840556590912123,0.004210000000000001,-0.018490000000000003,0.008060000000000001,-0.5621,1.3975,-5.4284,6.110000335524183,13.667704150547467,17.06999969482422,16.989999771118164,17.5,17.079999923706055,13.860997137594453,13.796036461945839,14.210161350000002,13.869117415648613,13.934078091297227,0.019489296652583074,-0.800000011920929,6.950000286102295,0.0,0.0,0.0,0.0,0.0,,,,,
frame_00192.png,1771859628760967587,1771859628.7609677,42.30097427739137,-83.6976395402685,238.4121551513672,-0.01711518847046828,-0.999405532796491,-0.00975915324908925,-0.02829152288659877,-0.09592000000000002,0.039360000000000006,0.017410000000000002,-2.2556000000000003,1.447,-8.9235,6.086358074903465,13.614817832074559,17.18000030517578,17.09000015258789,17.229999542236328,17.190000534057617,13.950318647405549,13.877237693702774,13.990918488891678,13.95843892545971,13.944228438864927,0.024195006562212254,-0.9000000357627869,7.025000095367432,0.0,0.0,0.0,0.0,0.0,,,,,
frame_00193.png,1771859628821656709,1771859628.821657,42.30097433706027,-83.69764397481285,238.3976593017578,-0.017228369169084268,-0.9994490767144065,-0.009658876984881774,-0.02667269101318831,-0.010130000000000002,0.06112000000000001,0.01861,-0.17120000000000002,1.1346,-9.010900000000001,6.099808945248925,13.64490662198513,16.979999542236328,17.219999313354492,17.219999313354492,17.18000030517578,13.78791618389168,13.982798210837517,13.982798210837517,13.950318647405549,13.925957813243066,0.02059751664442293,-1.0,7.125,0.0,0.0,0.0,0.0,0.0,,,,,
frame_00194.png,1771859628872481847,1771859628.8724818,42.30097438807674,-83.69764692752065,238.38771057128906,-0.017062631575864518,-0.999515395270792,-0.007916597987724053,-0.02480259455539285,0.060520000000000004,0.09182000000000001,0.0014900000000000002,0.2008,-2.2538,-9.808,6.10333588327246,13.652796170727498,17.369998931884766,17.139999389648438,17.299999237060547,17.260000228881836,14.104599284080582,13.917837535188903,14.04775888648613,14.01527932305416,14.021368757202444,0.02699612459352389,-1.5,7.175000190734863,0.0,0.0,0.0,0.0,0.0,,,,,
frame_00195.png,1771859628913748733,1771859628.9137487,42.30097444353946,-83.6976513724217,238.37396240234375,-0.017162150292228395,-0.9995250756323933,-0.00876697426763897,-0.024046287480520435,-0.07178000000000001,0.025120000000000003,-0.008040000000000002,-1.1976,-0.5606,-11.017100000000001,6.127888624011395,13.70771917859605,17.28999900817871,17.44999885559082,17.260000228881836,17.219999313354492,14.03963860843197,14.169559959729195,14.01527932305416,13.982798210837517,14.05181902551321,0.025102633226864908,-1.8000000715255737,6.974999904632568,0.0,0.0,0.0,0.0,0.0,,,,,
frame_00196.png,1771859628963540606,1771859628.9635406,42.30097446744148,-83.69765435100854,238.36634826660156,-0.01714668785729173,-0.999505755380103,-0.011589125997757018,-0.023662802373824565,-0.07578000000000001,-0.012980000000000002,-0.004730000000000001,0.515,0.8115,-11.5733,6.182013915576942,13.828794208310685,17.260000228881836,16.829999923706055,17.219999313354492,17.479999542236328,14.01527932305416,13.666115110648613,13.982798210837517,14.193920793891678,13.964528359607993,0.009815328021566492,-2.5,7.125,0.0,0.0,0.0,0.0,0.0,,,,,
frame_00197.png,1771859629011180956,1771859629.011181,42.30097448763972,-83.69765735357097,238.3609619140625,-0.017229369015177964,-0.9994640492496306,-0.012945345077587218,-0.024641045872547295,-0.01729,-0.046250000000000006,-0.00808,-0.7246,0.48310000000000003,-9.3637,6.204246877838399,13.878528010911829,17.260000228881836,17.299999237060547,17.28999900817871,17.5,14.01527932305416,14.04775888648613,14.03963860843197,14.210161350000002,14.078209541993065,0.014387803297600338,-2.799999952316284,6.625,0.0,0.0,0.0,0.0,0.0,,,,,
frame_00198.png,1771859629062001531,1771859629.0620015,42.30097452649596,-83.69766187439679,238.3542022705078,-0.017357152937762577,-0.9994368125573203,-0.012560254295279643,-0.02582686506715381,0.034730000000000004,-0.054880000000000005,0.0035600000000000002,-1.1826,0.9932000000000001,-8.4699,6.220810153298054,13.915579064318552,17.329999923706055,17.279998779296875,17.270000457763672,17.369998931884766,14.072119720648613,14.031518330377809,14.023399601108322,14.104599284080582,14.057909234053831,0.010228116924018885,-2.200000047683716,7.0,0.0,0.0,0.0,0.0,0.0,,,,,
frame_00199.png,1771859629111806632,1771859629.1118066,42.3009745654246,-83.69766489217858,238.34922790527344,-0.01742631298218461,-0.9994307562646119,-0.011731711487535452,-0.0263979922298358,0.028870000000000003,-0.012950000000000003,0.00396,-0.2336,0.6475000000000001,-9.049900000000001,6.22354133643181,13.921688557117776,17.389999389648438,17.469999313354492,17.420000076293945,17.369998931884766,14.120839840188903,14.185800515837517,14.145200674351388,14.104599284080582,14.139110078614596,0.015617467709091873,-1.100000023841858,7.200000286102295,0.0,0.0,0.0,0.0,0.0,,,,,
frame_00200.png,1771859629162837272,1771859629.1628373,42.300974640394266,-83.69766941883219,238.33932495117188,-0.017383743641633975,-0.9994381145563613,-0.011310951766482353,-0.026331027309313013,0.0239,0.015560000000000001,-0.0046500000000000005,0.42400000000000004,1.4649,-9.391200000000001,6.223147619802613,13.920807836641258,17.479999542236328,17.350000381469727,17.479999542236328,17.420000076293945,14.193920793891678,14.088360276756935,14.193920793891678,14.145200674351388,14.15535063472292,0.016848361160788184,-0.4000000059604645,7.175000190734863,0.0,0.0,0.0,0.0,0.0,,,,,
frame_00201.png,1771859629212949570,1771859629.2129495,42.30097469918179,-83.69767243571839,238.33163452148438,-0.017245089684357784,-0.9994656105831281,-0.010497130849020207,-0.02570817744243461,0.04490000000000001,0.04515,-0.007550000000000001,-0.1177,2.0879000000000003,-9.6301,6.220545787669692,13.914987694269842,17.639999389648438,17.369998931884766,17.399999618530273,17.520000457763672,14.323842145188904,14.104599284080582,14.128960118243066,14.226401906108324,14.195950863405217,0.020191406223885898,-0.4000000059604645,7.25,0.0,0.0,0.0,0.0,0.0,,,,,
frame_00202.png,1771859629264069536,1771859629.2640696,42.30097479805338,-83.69767697180477,238.3211669921875,-0.017020213771017145,-0.9994918326050033,-0.009047347739511968,-0.025387681618484134,0.05158,-0.00808,-0.014630000000000002,-0.7943,1.4091,-11.0047,6.2422452729969935,13.963528140977896,17.420000076293945,17.520000457763672,17.44999885559082,17.520000457763672,14.145200674351388,14.226401906108324,14.169559959729195,14.226401906108324,14.191891111574307,0.016354245738671763,-0.30000001192092896,7.075000286102295,0.0,0.0,0.0,0.0,0.0,,,,,
frame_00203.png,1771859629314080680,1771859629.3140807,42.300974918169246,-83.69768153549163,238.31675720214844,-0.01683997115208702,-0.9995026082441973,-0.006673959941147532,-0.02581491319658516,0.05302000000000001,-0.059910000000000005,0.015700000000000002,-1.4137000000000002,0.5740000000000001,-12.0973,6.272204289921201,14.030544664296333,17.369998931884766,17.44999885559082,17.84000015258789,17.469999313354492,14.104599284080582,14.169559959729195,14.486244608702776,14.185800515837517,14.236551092087517,0.01468271066592381,-0.20000000298023224,7.150000095367432,0.0,0.0,0.0,0.0,0.0,,,,,
frame_00204.png,1771859629365267185,1771859629.3652673,42.30097496808842,-83.69768459046678,238.31686401367188,-0.01661137890287373,-0.9994892644858596,-0.005529109642813496,-0.0267338963680632,-0.03926,-0.011840000000000002,0.017660000000000006,0.3503,-2.9808000000000003,-7.5526,6.283195667796873,14.055131717121538,17.219999313354492,17.559999465942383,17.69999885559082,17.369998931884766,13.982798210837517,14.258881469540292,14.372562264729195,14.104599284080582,14.179710307296897,0.008863566182279245,-0.30000001192092896,6.825000286102295,0.0,0.0,0.0,0.0,0.0,,,,,
frame_00205.png,1771859629415070617,1771859629.4150708,42.30097501234832,-83.69768917682187,238.31398010253906,-0.016808796934274617,-0.9994436245134282,-0.008168203527372441,-0.027625825168118272,-0.14770000000000003,-0.032010000000000004,0.015670000000000003,0.5670000000000001,-3.0418000000000003,-10.548,6.280914204246121,14.050028220046318,17.34000015258789,17.84000015258789,17.639999389648438,17.799999237060547,14.080239998702774,14.486244608702776,14.323842145188904,14.45376349648613,14.336022562270147,0.02035542831264759,-1.2000000476837158,6.950000286102295,0.0,0.0,0.0,0.0,0.0,,,,,
frame_00206.png,1771859629466190134,1771859629.46619,42.30097502665073,-83.69769222987263,238.3075714111328,-0.01697112232919379,-0.9994251761507023,-0.010390153498962896,-0.027447094441727164,-0.05886000000000001,-0.012740000000000001,0.00034,-0.6287,-1.7247000000000001,-7.149,6.297019574983722,14.086054968064087,17.510000228881836,17.649999618530273,17.639999389648438,17.600000381469727,14.21828162805416,14.331962423243066,14.323842145188904,14.291362581756935,14.291362194560767,0.014575211225723108,-2.799999952316284,7.099999904632568,0.0,0.0,0.0,0.0,0.0,,,,,
frame_00207.png,1771859629516295743,1771859629.5162957,42.30097504888999,-83.6976968276937,238.2935028076172,-0.0170588997661007,-0.9994121930406935,-0.011483953290919493,-0.027429567207192963,-0.0049700000000000005,-0.02227,0.007190000000000001,-0.19840000000000002,0.6541,-10.2446,6.324682247501865,14.147934706726824,17.739999771118164,17.579999923706055,17.60999870300293,17.639999389648438,14.405043376945839,14.275122025648614,14.29948131102642,14.323842145188904,14.325872214702445,0.01257692459458538,-3.5,6.925000190734863,0.0,0.0,0.0,0.0,0.0,,,,,
frame_00208.png,1771859629567472849,1771859629.567473,42.300975062882024,-83.6976999093318,238.2852325439453,-0.017059685167391203,-0.9994078952001095,-0.012214076005273033,-0.027269809332192287,-0.024360000000000003,-0.004760000000000001,-0.0007300000000000002,0.449,2.1038,-10.56,6.348293099993351,14.200750767099128,17.719999313354492,17.75,17.68000030517578,17.670000076293945,14.388802820837519,14.413163655,14.356323257405549,14.348202979351388,14.376623178148613,0.012384726267920464,-2.700000047683716,7.175000190734863,0.0,0.0,0.0,0.0,0.0,,,,,
frame_00209.png,1771859629617532521,1771859629.6175325,42.30097510050377,-83.69770453849013,238.27365112304688,-0.017046678349654898,-0.9993925177220264,-0.012914201102464402,-0.027517806750489596,-0.017130000000000003,-0.0010500000000000002,0.00064,0.7222000000000001,1.9499000000000002,-9.2166,6.3541489905585475,14.213850042940038,17.969999313354492,17.719999313354492,17.559999465942383,17.779998779296875,14.591805125837517,14.388802820837519,14.258881469540292,14.437522940377809,14.419253089148285,0.014450908486280917,-1.0,7.025000095367432,0.0,0.0,0.0,0.0,0.0,,,,,
frame_00210.png,1771859629668709534,1771859629.6687095,42.30097514233895,-83.69770762845606,238.26779174804688,-0.016934188103457648,-0.9993798659152875,-0.012546191926122672,-0.02820833111992672,0.028610000000000003,-0.025840000000000002,-0.004000000000000001,-0.2479,2.1608,-10.3796,6.367454798182155,14.243614336245592,17.779998779296875,17.670000076293945,17.719999313354492,17.78999900817871,14.437522940377809,14.348202979351388,14.388802820837519,14.445643218431968,14.40504298974967,0.011333405250470193,-0.20000000298023224,6.825000286102295,0.0,0.0,0.0,0.0,0.0,,,,,
frame_00211.png,1771859629726912958,1771859629.726913,42.300975219316584,-83.69771227965629,238.26190185546875,-0.016792742341976974,-0.9993729336936706,-0.01182007405535706,-0.028844913840539093,0.01983,-0.013740000000000002,0.0006000000000000001,-0.6613,2.3894,-10.1516,6.38422030962187,14.281117779405548,17.739999771118164,17.809999465942383,17.709999084472656,17.920000076293945,14.405043376945839,14.461883774540292,14.380682542783356,14.551205284351388,14.449703744655219,0.011804815831207858,-0.10000000149011612,7.050000190734863,0.0,0.0,0.0,0.0,0.0,,,,,
frame_00212.png,1771859629772007034,1771859629.772007,42.300975278126884,-83.6977153911094,238.2591552734375,-0.01642533735277535,-0.9993606486578666,-0.010412081691290957,-0.030001512659022105,0.0471,-0.08854000000000002,-0.023310000000000004,-0.0731,-2.0822000000000003,-10.6658,6.418175185817326,14.357072800162209,17.940000534057617,18.049999237060547,17.78999900817871,17.959999084472656,14.56744584045971,14.65676580148613,14.445643218431968,14.583684847783356,14.563384927040293,0.014370069007085672,-0.20000000298023224,7.0,0.0,0.0,0.0,0.0,0.0,,,,,
