image_filename,timestamp_ns,timestamp_sec,latitude,longitude,altitude,orientation_x,orientation_y,orientation_z,orientation_w,angular_velocity_x,angular_velocity_y,angular_velocity_z,linear_acceleration_x,linear_acceleration_y,linear_acceleration_z,vehicle_speed_mps,vehicle_speed_mph,wheel_speed_fl_rads,wheel_speed_fr_rads,wheel_speed_rl_rads,wheel_speed_rr_rads,wheel_speed_fl_mph,wheel_speed_fr_mph,wheel_speed_rl_mph,wheel_speed_rr_mph,avg_wheel_speed_mph,wheel_slip,steering_angle_deg,throttle_pedal,brake_pedal,brake_torque_actual,abs_active,esc_active,trac_active,marwis_road_condition,marwis_friction,marwis_surface_temp_c,marwis_ice_percent,marwis_water_film_height
pylon_camera_1771858951969695591.png,1771858951969695591,1771858951.9696956,42.30087113510282,-83.69727175577769,238.58615112304688,-0.0039788745261298275,-0.9998832307029091,-0.012102935734561391,-0.008438747728389939,0.008350000000000002,0.0037700000000000003,-0.0018300000000000002,3.2922000000000002,0.28390000000000004,-10.5008,1.0074705947891958,2.2536512723077435,3.3299999237060547,3.25,3.3399999141693115,3.419999837875366,2.703990640648613,2.6390299649999998,2.7121107251046896,2.777071400753303,2.7080506828766513,0.20162809399681514,0.9000000357627869,31.325000762939453,0.0,0.0,0.0,0.0,0.0,,,,,
pylon_camera_1771858952008266341.png,1771858952008266341,1771858952.0082662,42.30087112853498,-83.69727304042459,238.59182739257812,-0.003950780615225247,-0.9998826634171365,-0.011836816439384302,-0.008884847042261725,0.0044,-0.012350000000000002,-0.0011,2.8424,0.10070000000000001,-9.681600000000001,1.1308245660133414,2.529586704697884,3.7200000286102295,3.619999885559082,3.7200000286102295,3.7200000286102295,3.0206743216317706,2.9394732834729194,3.0206743216317706,3.0206743216317706,3.0003740620920576,0.18611236235541526,0.6000000238418579,32.85000228881836,0.0,0.0,0.0,0.0,0.0,,,,,
pylon_camera_1771858952067887240.png,1771858952067887240,1771858952.0678873,42.3008711255551,-83.69727334955215,238.5926513671875,-0.003928624969526062,-0.9998851507096866,-0.011558656250270246,-0.008980465567209746,0.00493,0.0018800000000000004,-0.00039000000000000005,2.9041,-0.1061,-9.2735,1.3120811817304936,2.9350468786602106,4.319999694824219,4.259999752044678,4.319999694824219,4.21999979019165,3.507879582594452,3.4591590758579924,3.507879582594452,3.426678738033686,3.475399244770146,0.18410348742252292,0.0,34.625,0.0,0.0,0.0,0.0,0.0,,,,,
pylon_camera_1771858952109713231.png,1771858952109713231,1771858952.109713,42.3008711231002,-83.69727398955294,238.59376525878906,-0.00392021426330702,-0.9998871483769469,-0.01148175634187109,-0.008859554280713814,0.010560000000000002,0.014110000000000001,-0.0014800000000000002,2.814,0.35900000000000004,-9.7295,1.3965531674330691,3.12400564235773,4.610000133514404,4.690000057220459,4.599999904632568,4.659999847412109,3.7433626126149275,3.8083232882635407,3.735242334560766,3.7839628412972264,3.767722769184115,0.2060550461556026,-0.4000000059604645,36.75,0.0,0.0,0.0,0.0,0.0,,,,,
pylon_camera_1771858952160277675.png,1771858952160277675,1771858952.1602778,42.30087111535755,-83.69727469555795,238.59475708007812,-0.0038745185033768337,-0.9998890502052507,-0.011484998222250806,-0.008658533469566729,-0.0028200000000000005,0.010780000000000001,-0.0013000000000000002,3.2099,0.3895,-9.7928,1.5588070708188866,3.4869578889976003,5.190000057220459,5.21999979019165,5.069999694824219,4.929999828338623,4.214327898263541,4.238687958033686,4.116886497594452,4.00320531520938,4.143276917275265,0.1882210939078296,-0.4000000059604645,37.625,0.0,0.0,0.0,0.0,0.0,,,,,
pylon_camera_1771858952211470775.png,1771858952211470775,1771858952.2114708,42.30087108997737,-83.69727673750826,238.5962677001953,-0.0038878778729830588,-0.9998907584387385,-0.011548094478083476,-0.008366427455872669,-0.00020000000000000004,0.0064600000000000005,0.0018000000000000004,3.3824,0.3789,-9.9201,1.749925101040074,3.9144774555205837,5.599999904632568,5.489999771118164,5.62999963760376,5.539999961853027,4.547251554560767,4.457930431945839,4.571611614330912,4.498531047824307,4.518831162165457,0.15438936959326552,-0.4000000059604645,38.45000076293945,0.0,0.0,0.0,0.0,0.0,,,,,
pylon_camera_1771858952262101465.png,1771858952262101465,1771858952.2621014,42.300871083154114,-83.69727718558175,238.59666442871094,-0.0038520666881578514,-0.9998892391446861,-0.01167528214586751,-0.008388015957620464,-0.0073300000000000014,-0.0019000000000000002,-0.00253,3.2889000000000004,-0.2252,-9.9738,1.90626093846979,4.264191343700612,6.009999752044678,6.12999963760376,6.009999752044678,5.900000095367432,4.880175210857993,4.977616224330911,4.880175210857993,4.790854475439234,4.882205280371533,0.1449310987378411,-0.4000000059604645,38.67499923706055,0.0,0.0,0.0,0.0,0.0,,,,,
pylon_camera_1771858952312445027.png,1771858952312445027,1771858952.312445,42.300871067270506,-83.69727814108052,238.5974884033203,-0.003875563262425774,-0.9998869951308381,-0.011861071988970474,-0.008384029394907826,-0.00871,0.006770000000000001,-0.0014800000000000002,2.9935,-0.2134,-10.029300000000001,2.0233274935124017,4.5260622033376325,6.639999866485596,6.639999866485596,6.37999963760376,6.569999694824219,5.391741112385073,5.391741112385073,5.180618529330912,5.334900327594452,5.324750270423878,0.17646422678355428,-0.699999988079071,38.60000228881836,0.0,0.0,0.0,0.0,0.0,,,,,
pylon_camera_1771858952363075017.png,1771858952363075017,1771858952.363075,42.30087103829286,-83.69727967994663,238.5993194580078,-0.0039567314745969084,-0.9998796839594304,-0.012383975374378475,-0.008461621307672751,-0.012960000000000001,0.012960000000000001,0.0019000000000000002,2.9172000000000002,-0.16010000000000002,-9.7642,2.2077713220377806,4.938651981119193,6.989999771118164,7.25,6.909999847412109,6.809999942779541,5.675944261945839,5.887066845,5.610983586297227,5.529782741736461,5.675944358744882,0.14929020721533093,-1.3000000715255737,38.82500076293945,0.0,0.0,0.0,0.0,0.0,,,,,
pylon_camera_1771858952413116305.png,1771858952413116305,1771858952.4131165,42.30087101936611,-83.69728077505482,238.6005401611328,-0.003975890502996959,-0.9998759823186423,-0.012727605364308472,-0.008379757677192068,-0.008480000000000001,0.010820000000000001,-0.003940000000000001,2.8454,0.34950000000000003,-9.9931,2.3353277590839365,5.223988077405221,7.480000019073486,7.519999980926514,7.399999618530273,7.389999866485596,6.073828981087847,6.106309318912153,6.008867918243065,6.0007480273850735,6.047438561407034,0.1576287066127503,-2.200000047683716,38.79999923706055,0.0,0.0,0.0,0.0,0.0,,,,,
pylon_camera_1771858952464000642.png,1771858952464000642,1771858952.4640007,42.300870979428076,-83.69728317045477,238.60379028320312,-0.004031882874420634,-0.9998697111874586,-0.013184491205928506,-0.008394865218441096,-0.011000000000000001,-0.019150000000000004,0.0030900000000000003,3.1796,-0.2737,-10.6912,2.5647865531131884,5.737273632121016,7.929999828338623,8.079999923706055,7.75,7.859999656677246,6.4392329752093795,6.5610344356486126,6.293071455000001,6.382392190418759,6.418932764069188,0.11881237947791053,-2.700000047683716,38.625,0.0,0.0,0.0,0.0,0.0,,,,,
pylon_camera_1771858952522744314.png,1771858952522744314,1771858952.5227444,42.300870963122,-83.69728445101286,238.6051025390625,-0.004070702896580514,-0.9998658205526851,-0.013438939406642163,-0.008435945475039511,0.010620000000000001,-0.016380000000000002,-0.0023000000000000004,3.5896000000000003,0.16140000000000002,-10.591700000000001,2.7317144609625683,6.110681346305608,8.760000228881836,8.529999732971191,8.25,8.300000190734863,7.113200953054162,6.926438429770146,6.699076065,6.739676680878468,6.869598032175694,0.1241951008178346,-3.200000047683716,38.650001525878906,0.0,0.0,0.0,0.0,0.0,,,,,
pylon_camera_1771858952565650854.png,1771858952565650854,1771858952.565651,42.30087094621041,-83.69728580342233,238.606689453125,-0.004118351603084991,-0.9998617085301151,-0.013696267300836607,-0.008486180373800329,-0.010770000000000002,0.005980000000000001,-0.006530000000000001,3.6605000000000003,1.0003,-8.607000000000001,2.8509056705200813,6.377304930613191,9.510000228881836,8.789999961853027,8.720000267028809,8.779999732971191,7.722207868054161,7.137561012824307,7.080720615229854,7.129440734770146,7.2674825577196165,0.13958523808909878,-3.799999952316284,38.54999923706055,0.0,0.0,0.0,0.0,0.0,,,,,
pylon_camera_1771858952615071029.png,1771858952615071029,1771858952.615071,42.30087092314584,-83.69728795219639,238.6080322265625,-0.004092273994922735,-0.9998563854229978,-0.013891540150941295,-0.00880266633713515,-0.024790000000000003,-0.017370000000000003,-0.00251,2.8224,-0.1134,-9.9097,3.0136187870879216,6.741284409588456,9.269999504089355,9.380000114440918,9.309999465942383,9.279999732971191,7.527325066715985,7.616646576527081,7.559805404540291,7.535445344770146,7.559805598138376,0.12141917456941852,-4.700000286102295,38.775001525878906,0.0,0.0,0.0,0.0,0.0,,,,,
pylon_camera_1771858952665304246.png,1771858952665304246,1771858952.6653044,42.300870907727365,-83.69728946416642,238.60888671875,-0.003932809951128158,-0.9998486960292736,-0.014243742230141375,-0.009177900725704567,-0.04864000000000001,-0.0026100000000000003,0.0028700000000000006,2.5476,-0.9993000000000001,-9.825700000000001,3.1929555101298086,7.142449898829774,9.829999923706055,9.920000076293945,9.579999923706055,9.6899995803833,7.982050570648613,8.055131524351388,7.779048265648614,7.8683690010673715,7.921149840428997,0.10902420774793338,-5.5,38.525001525878906,0.0,0.0,0.0,0.0,0.0,,,,,
pylon_camera_1771858952724536797.png,1771858952724536797,1771858952.724537,42.30087087539091,-83.69729183753579,238.6097869873047,-0.003877007586492842,-0.9998297829230547,-0.015494720350942574,-0.009235130397436906,-0.07415000000000001,0.013970000000000002,-0.0015600000000000002,2.726,-1.2767000000000002,-9.6648,3.3554881539282353,7.506025671048227,10.429999351501465,10.289999961853027,9.969999313354492,10.149999618530273,8.46925563801321,8.355574842824307,8.095731365837517,8.241893273243065,8.290613779979525,0.1045277678648985,-5.700000286102295,38.5,0.0,0.0,0.0,0.0,0.0,,,,,
pylon_camera_1771858952775452482.png,1771858952775452482,1771858952.7754524,42.300870830774535,-83.69729435422876,238.61065673828125,-0.0038701125732218396,-0.9998047704127365,-0.016882245086674432,-0.009509631403958538,-0.0531,-0.030420000000000006,0.0035500000000000006,2.6817,-1.2464,-11.023100000000001,3.5233873125051183,7.881606014835199,10.649999618530273,10.550000190734863,10.619999885559082,10.649999618530273,8.647897883243065,8.566697425878468,8.623537823472919,8.647897883243065,8.62150775395938,0.09387702680538659,-5.800000190734863,38.79999923706055,0.0,0.0,0.0,0.0,0.0,,,,,
pylon_camera_1771858952825976243.png,1771858952825976243,1771858952.8259764,42.30087079309901,-83.69729701400833,238.613037109375,-0.004087361602983619,-0.9997937532044602,-0.01699686377969954,-0.010336882998247941,0.013640000000000003,-0.020180000000000003,0.016460000000000002,3.0511000000000004,0.6728000000000001,-10.1384,3.7136933464349835,8.307309194374273,11.09000015258789,11.329999923706055,11.050000190734863,11.170000076293945,9.005182373702773,9.200064400648614,8.972702035878468,9.070143049351387,9.062022964895311,0.09084936564442932,-6.200000286102295,38.54999923706055,0.0,0.0,0.0,0.0,0.0,,,,,
pylon_camera_1771858952867564177.png,1771858952867564177,1771858952.8675642,42.30087078285414,-83.69729792185085,238.6143341064453,-0.004180746668780266,-0.9997908954251091,-0.016673512216518138,-0.011076135278853705,0.03888000000000001,-0.037410000000000006,0.0030700000000000002,1.7252,1.224,-9.9593,3.799078406846542,8.498310451411305,11.65999984741211,11.579999923706055,11.449999809265137,11.279999732971191,9.468027381297226,9.403066705648614,9.297505414121533,9.159463784770146,9.332015821459379,0.09810248458381766,-6.5,38.45000076293945,0.0,0.0,0.0,0.0,0.0,,,,,
pylon_camera_1771858952917591000.png,1771858952917591000,1771858952.917591,42.30087075114734,-83.69730075653041,238.61805725097656,-0.004418063799581873,-0.9997804221521627,-0.016688896059827586,-0.011877244706175606,0.00185,0.0007700000000000001,0.0006000000000000001,2.9018,-0.4469,-9.7356,3.960102430518692,8.858511530924483,12.139999389648438,11.949999809265137,11.949999809265137,11.719999313354492,9.857791435188904,9.703510024121533,9.703510024121533,9.516747500837518,9.695389746067372,0.09447165161115408,-7.0,38.67499923706055,0.0,0.0,0.0,0.0,0.0,,,,,
pylon_camera_1771858952978375860.png,1771858952978375860,1771858952.978376,42.30087074238113,-83.69730271819888,238.61985778808594,-0.0047290921838671895,-0.9997805377211253,-0.01641146557147765,-0.012131606611256061,0.05679000000000001,-0.011800000000000001,0.00693,2.2912,0.801,-10.5107,4.112727014011123,9.199923566722044,12.369999885559082,12.4399995803833,12.309999465942383,12.420000076293945,10.04455395847292,10.101394356067372,9.99583306454029,10.085154574351387,10.056733988357992,0.09313234130935638,-7.599999904632568,38.67499923706055,0.0,0.0,0.0,0.0,0.0,,,,,
pylon_camera_1771858953027145608.png,1771858953027145608,1771858953.0271456,42.300870738146244,-83.69730576194993,238.62326049804688,-0.005008038890562505,-0.9997949907746002,-0.015046502136062104,-0.012589628348661949,0.09102000000000002,-0.017130000000000003,-0.00256,2.4738,0.8568,-9.506300000000001,4.264506182175952,9.539444459156673,12.859999656677246,13.00999927520752,12.929999351501465,12.609999656677246,10.442438290418758,10.564239363661825,10.499278688013211,10.23943598541876,10.436348081878139,0.0940205298706415,-7.700000286102295,38.97500228881836,0.0,0.0,0.0,0.0,0.0,,,,,
pylon_camera_1771858953070433397.png,1771858953070433397,1771858953.0704334,42.30087074147335,-83.69730893617684,238.62619018554688,-0.005298428713088943,-0.9998079815441038,-0.013624647646881052,-0.013049738325943805,0.07962000000000001,-0.027100000000000003,0.00014000000000000004,2.3879,1.0884,-9.040600000000001,4.414354114223848,9.874645292271895,13.15999984741211,13.15999984741211,13.199999809265137,13.039999961853027,10.686041211297226,10.686041211297226,10.718521549121533,10.588600197824306,10.669801042385073,0.08052499371653214,-7.099999904632568,38.67499923706055,0.0,0.0,0.0,0.0,0.0,,,,,
pylon_camera_1771858953120472605.png,1771858953120472605,1771858953.1204727,42.300870744642786,-83.6973100165691,238.62681579589844,-0.005496471831315963,-0.9998151959983022,-0.013015352687030614,-0.013036995156723396,0.033800000000000004,0.009830000000000002,0.00768,3.1182000000000003,2.0113000000000003,-9.2124,4.514261359143925,10.098131804723412,13.90999984741211,13.679999351501465,13.399999618530273,13.319999694824219,11.295048126297226,11.108285603013211,10.880923238243065,10.815962562594452,11.025054882536988,0.09179154082540368,-6.599999904632568,38.775001525878906,0.0,0.0,0.0,0.0,0.0,,,,,
pylon_camera_1771858953170933913.png,1771858953170933913,1771858953.170934,42.3008707550997,-83.69731335443875,238.62725830078125,-0.005692113592401626,-0.9998177646370594,-0.012807348249048717,-0.012961835897455053,-0.017620000000000004,0.011880000000000002,0.0015700000000000002,2.4463,1.8432000000000002,-9.538,4.656423174075847,10.416139255017226,14.149999618530273,13.859999656677246,13.75,13.75,11.489930153243066,11.254447510418759,11.165126775000001,11.165126775000001,11.268657803415458,0.08184592462966468,-6.5,38.07500076293945,0.0,0.0,0.0,0.0,0.0,,,,,
pylon_camera_1771858953220932991.png,1771858953220932991,1771858953.220933,42.30087075105214,-83.69731799489604,238.6281280517578,-0.006076127433018275,-0.9998192443012863,-0.012250447413571048,-0.013209312563101011,0.011270000000000002,-0.033400000000000006,0.015790000000000002,3.4975,0.5622,-10.4585,4.873478420453844,10.901678817850021,14.50999927520752,14.210000038146973,14.549999237060547,14.149999618530273,11.782253193661825,11.538651047175694,11.81473353148613,11.489930153243066,11.656391981391678,0.0692290771129596,-6.5,38.04999923706055,0.0,0.0,0.0,0.0,0.0,,,,,
pylon_camera_1771858953280952655.png,1771858953280952655,1771858953.2809527,42.300870745446296,-83.69731920136492,238.6288299560547,-0.006303401217087057,-0.9998103817956046,-0.012161696353375617,-0.013840546543829638,0.00408,-0.004700000000000001,0.008660000000000001,1.5536,0.5856,-8.8041,4.9732675981723675,11.124901221055696,14.969999313354492,14.679999351501465,14.829999923706055,14.699999809265137,12.155777465837517,11.92029482301321,12.042096670648615,11.936535379121532,12.013676084655218,0.07989058472873183,-6.200000286102295,37.625,0.0,0.0,0.0,0.0,0.0,,,,,
pylon_camera_1771858953331247383.png,1771858953331247383,1771858953.3312473,42.3008707117822,-83.69732413010836,238.63015747070312,-0.006839035378018665,-0.9997881850006799,-0.012672772386603906,-0.014704202398694861,-0.034460000000000005,-0.017900000000000003,0.01467,3.1526,-1.8775000000000002,-8.7575,5.189123397818943,11.607757693517106,15.089999198913574,15.139999389648438,15.34999942779541,15.0,12.253218479310437,12.293819095188905,12.464341062364598,12.180138300000001,12.297879234215985,0.05945347576339482,-5.800000190734863,38.0,0.0,0.0,0.0,0.0,0.0,,,,,
pylon_camera_1771858953381456317.png,1771858953381456317,1771858953.3814564,42.30087066426084,-83.69732797186583,238.62896728515625,-0.007195690152664469,-0.9997612617234323,-0.013738779761357534,-0.01539115106371701,-0.060320000000000006,-0.013740000000000002,0.01004,3.0795000000000003,-3.2579000000000002,-10.8392,5.3175011873497215,11.894931106030088,15.539999961853027,15.519999504089355,15.649999618530273,15.50999927520752,12.618623247824306,12.602382691715986,12.707943983243066,12.594262413661824,12.630803084111296,0.061864332926498504,-5.700000286102295,37.67499923706055,0.0,0.0,0.0,0.0,0.0,,,,,
pylon_camera_1771858953431596249.png,1771858953431596249,1771858953.4315963,42.300870650734396,-83.69732927424813,238.6282501220703,-0.007613550461834928,-0.9997259088978956,-0.015435664763531745,-0.015870764976826542,-0.0422,0.00436,0.00487,1.7162000000000002,-0.1436,-8.4664,5.42498828383219,12.13537329163558,15.899999618530273,16.049999237060547,15.719999313354492,15.84999942779541,12.910946288243066,13.03274736148613,12.764784380837519,12.870345672364598,12.89470592573283,0.06257183984778014,-5.599999904632568,37.95000076293945,0.0,0.0,0.0,0.0,0.0,,,,,
pylon_camera_1771858953482520303.png,1771858953482520303,1771858953.4825203,42.30087059733346,-83.69733326992757,238.6235809326172,-0.007963123783712611,-0.9996980387927892,-0.017017710110821357,-0.015837216802209897,0.0022600000000000003,0.009910000000000002,-0.0046500000000000005,2.2954000000000003,0.5563,-8.834900000000001,5.557721655451519,12.43228987994572,16.270000457763672,16.279998779296875,16.279998779296875,16.260000228881836,13.211390381108323,13.219509110377807,13.219509110377807,13.203270103054162,13.213419676229524,0.06283072578156565,-5.5,37.57500076293945,0.0,0.0,0.0,0.0,0.0,,,,,
pylon_camera_1771858953532463335.png,1771858953532463335,1771858953.5324633,42.30087056044044,-83.69733737877449,238.6177215576172,-0.00821058470572572,-0.9996877491635414,-0.017726806427924305,-0.015580462284207744,0.011840000000000002,-0.010220000000000002,-0.007220000000000001,2.9133,0.5965,-13.091600000000001,5.702131912895182,12.75532696123175,16.65999984741211,16.529998779296875,16.5,16.279998779296875,13.528073481297227,13.422511415377807,13.39815213,13.219509110377807,13.39206153426321,0.049919110264028184,-5.400000095367432,37.22500228881836,0.0,0.0,0.0,0.0,0.0,,,,,
pylon_camera_1771858953574489653.png,1771858953574489653,1771858953.5744896,42.30087054797982,-83.69734019309256,238.61671447753906,-0.008422047600788685,-0.9996903349458284,-0.017142897592694106,-0.01595068626215853,0.05241000000000001,-0.03506000000000001,-0.0054,2.4739,1.2957,-7.9351,5.844005119733693,13.07268881253709,16.85999870300293,16.719999313354492,16.739999771118164,16.69999885559082,13.690474396026422,13.576793600837517,13.593034156945839,13.560553044729195,13.605213799634743,0.04073568909457608,-5.300000190734863,37.04999923706055,0.0,0.0,0.0,0.0,0.0,,,,,
pylon_camera_1771858953625189284.png,1771858953625189284,1771858953.6251893,42.300870550401164,-83.69734305821731,238.6162109375,-0.008650183296633362,-0.9996931428147517,-0.016295212649627154,-0.01653059535535754,0.04442000000000001,-0.029640000000000003,0.01152,3.0300000000000002,1.8647,-11.6266,5.937120996598173,13.280983442130317,17.18000030517578,17.029998779296875,17.28999900817871,17.209999084472656,13.950318647405549,13.828516025377809,14.03963860843197,13.974677932783356,13.948287803499671,0.05024510152256584,-5.099999904632568,36.70000076293945,0.0,0.0,0.0,0.0,0.0,,,,,
pylon_camera_1771858953676278649.png,1771858953676278649,1771858953.6762786,42.30087057131576,-83.69734893770132,238.61599731445312,-0.008813265945425086,-0.999686702656279,-0.015459142730972982,-0.01760220956627474,0.0068800000000000016,-0.07998000000000001,0.007450000000000001,3.0888,1.9941000000000002,-11.6255,6.0852978578899295,13.6124461902283,17.729999542236328,17.399999618530273,17.670000076293945,17.5,14.396923098891678,14.128960118243066,14.348202979351388,14.210161350000002,14.271061886621533,0.048383346181086945,-4.700000286102295,36.625,0.0,0.0,0.0,0.0,0.0,,,,,
pylon_camera_1771858953725764549.png,1771858953725764549,1771858953.7257645,42.30087058798918,-83.6973504351797,238.61654663085938,-0.009145374486366653,-0.9996707100207747,-0.014870639995179125,-0.018806852958383333,0.042370000000000005,-0.04340000000000001,0.036520000000000004,2.5053,5.7023,-7.7003,6.205134828072743,13.880514302309043,18.059999465942383,17.799999237060547,18.059999465942383,18.079999923706055,14.66488607954029,14.45376349648613,14.66488607954029,14.681126635648614,14.61616557280383,0.05299884820351432,-4.300000190734863,36.72500228881836,0.0,0.0,0.0,0.0,0.0,,,,,
pylon_camera_1771858953776496594.png,1771858953776496594,1771858953.7764966,42.300870620660945,-83.6973550127835,238.6165313720703,-0.009312323197980477,-0.9996691530453985,-0.013491068512456095,-0.019820599298308133,0.024740000000000005,-0.006200000000000001,0.0202,4.2762,1.5275,-7.8219,6.324159475127547,14.146765296291816,18.549999237060547,18.619998931884766,18.53999900817871,18.459999084472656,15.06277041148613,15.119610809080582,15.05465013343197,14.989689457783356,15.05668020294551,0.06431964393246858,-4.200000286102295,35.85000228881836,0.0,0.0,0.0,0.0,0.0,,,,,
pylon_camera_1771858953826428079.png,1771858953826428079,1771858953.8264282,42.3008706382308,-83.6973581274634,238.6142578125,-0.009654415475333522,-0.999658786525365,-0.012766687611092602,-0.02064254034524106,0.032100000000000004,-0.007420000000000001,0.013930000000000001,2.0344,3.7277,-9.443900000000001,6.454892797071186,14.43920789348042,18.94999885559082,18.690000534057617,18.690000534057617,18.690000534057617,15.387573789729194,15.17645275545971,15.17645275545971,15.17645275545971,15.22923301402708,0.05471388225550601,-4.099999904632568,34.400001525878906,0.0,0.0,0.0,0.0,0.0,,,,,
pylon_camera_1771858953877370711.png,1771858953877370711,1771858953.8773706,42.30087066710225,-83.69736287435698,238.6083221435547,-0.009876152264896021,-0.999662575991813,-0.012400574060710268,-0.020577209257283787,-0.008350000000000002,0.04844000000000001,0.014070000000000003,2.4562,1.2471,-7.4389,6.576413588697596,14.7110426131012,19.049999237060547,18.84000015258789,18.959999084472656,19.0,15.46877502148613,15.298253828702775,15.395694067783356,15.428175180000002,15.397724524493066,0.046677990775468726,-3.9000000953674316,34.25,0.0,0.0,0.0,0.0,0.0,,,,,
pylon_camera_1771858953927429010.png,1771858953927429010,1771858953.9274292,42.30087068038804,-83.69736773608415,238.5994110107422,-0.010050723221913305,-0.9996545786331313,-0.012353457349330531,-0.02090690010622309,-0.006670000000000001,0.025200000000000004,0.008430000000000002,1.3416000000000001,-0.2149,-8.9354,6.6950600119482955,14.976447543127621,19.34000015258789,19.479999542236328,19.31999969482422,19.439998626708984,15.704258438702775,15.817939233891678,15.688017882594451,15.785458121675035,15.748918419215984,0.05157904595625107,-3.5,33.97500228881836,0.0,0.0,0.0,0.0,0.0,,,,,
pylon_camera_1771858953979428940.png,1771858953979428940,1771858953.9794288,42.30087068301212,-83.69737102693838,238.59347534179688,-0.010216731483334185,-0.9996445558775068,-0.013069930886989052,-0.02087000739982507,-0.024080000000000004,0.008960000000000003,-0.00027000000000000006,0.4797,0.876,-10.455,6.80997142438947,15.233497478073783,19.6299991607666,19.44999885559082,19.729999542236328,19.709999084472656,15.939740307134743,15.793578399729196,16.020941538891677,16.004700982783355,15.939740307134743,0.04636117412153611,-2.200000047683716,33.97500228881836,0.0,0.0,0.0,0.0,0.0,,,,,
pylon_camera_1771858954028408208.png,1771858954028408208,1771858954.0284083,42.30087068206439,-83.6973743547977,238.5874481201172,-0.010392237242775215,-0.9996479106838723,-0.013449091138086578,-0.02037591759941552,-0.031380000000000005,0.009120000000000001,0.009810000000000001,1.4676,-0.3265,-9.524600000000001,6.903018958250268,15.441639228468356,19.94999885559082,19.760000228881836,19.899999618530273,19.969999313354492,16.199583009729196,16.04530237305416,16.158983168243065,16.215823565837518,16.154923029215986,0.046192233233413045,-1.3000000715255737,33.57500076293945,0.0,0.0,0.0,0.0,0.0,,,,,
pylon_camera_1771858954079248664.png,1771858954079248664,1771858954.0792487,42.30087068824683,-83.69737773446501,238.5820770263672,-0.01047931642488864,-0.9996539712112504,-0.013424056866571122,-0.02004785440107101,-0.007840000000000001,-0.008000000000000002,0.008090000000000002,1.9516,-0.9117000000000001,-11.0755,7.025892916424531,15.716500900466691,20.369998931884766,20.149999618530273,20.43000030517578,20.25,16.540626944080582,16.361985473243067,16.589348612405548,16.443186705,16.4837869336823,0.04882041098555368,-0.6000000238418579,30.774999618530273,0.0,0.0,0.0,0.0,0.0,,,,,
pylon_camera_1771858954129434516.png,1771858954129434516,1771858954.1294346,42.3008707038581,-83.6973828836658,238.57614135742188,-0.010458792049797438,-0.9996551253831214,-0.013300643630319615,-0.02008324782335277,0.03345,-0.0013400000000000003,-0.006020000000000001,0.5173,0.8954000000000001,-9.880600000000001,7.146732816162786,15.986812505787185,20.869998931884766,20.5,20.5,20.53999900817871,16.946631554080582,16.64618901,16.64618901,16.67866857343197,16.72941953687814,0.046451225397316276,-0.699999988079071,27.05000114440918,0.0,0.0,0.0,0.0,0.0,,,,,
pylon_camera_1771858954180442398.png,1771858954180442398,1771858954.1804423,42.30087073590083,-83.69738812245049,238.57003784179688,-0.010340847714394696,-0.9996599946163165,-0.013164103886102937,-0.019991708309442,0.028220000000000002,-0.024700000000000003,-0.013290000000000001,1.1573,2.4021,-8.8887,7.266089153413719,16.253805470837285,20.899999618530273,20.90999984741211,20.829999923706055,20.850000381469727,16.970992388243065,16.979112666297226,16.914151990648616,16.930392546756934,16.94866239798646,0.04275041487335954,-0.6000000238418579,26.25,0.0,0.0,0.0,0.0,0.0,,,,,
pylon_camera_1771858954239128739.png,1771858954239128739,1771858954.2391288,42.30087075615166,-83.69739167162369,238.56561279296875,-0.01004130437506362,-0.9996783120013768,-0.012227460764110874,-0.01982256097953092,0.06026000000000001,-0.0017000000000000001,-0.029740000000000003,2.2219,-0.9779,-10.157200000000001,7.367458864946363,16.48056343335312,21.10999870300293,21.020000457763672,21.279998779296875,21.06999969482422,17.141513581026423,17.068434176108322,17.279555210377808,17.109034017594453,17.14963424627675,0.04059756910795759,-0.699999988079071,25.125,0.0,0.0,0.0,0.0,0.0,,,,,
pylon_camera_1771858954290292908.png,1771858954290292908,1771858954.290293,42.30087079299353,-83.69739888489765,238.55467224121094,-0.00996938956368193,-0.9996813560613889,-0.012055107059944082,-0.01981090630848435,-0.027530000000000006,0.004210000000000001,-0.007240000000000001,0.9645,-1.2072,-8.5843,7.465022441971923,16.698807301344676,21.53999900817871,21.079999923706055,21.219999313354492,21.31999969482422,17.49067779343197,17.117154295648614,17.230835090837516,17.31203632259445,17.28767587562814,0.035264109804778954,-0.9000000357627869,25.825000762939453,0.0,0.0,0.0,0.0,0.0,,,,,
pylon_camera_1771858954340595410.png,1771858954340595410,1771858954.3405955,42.30087080205621,-83.69740439504906,238.5431365966797,-0.010010008500586698,-0.9996719790515669,-0.012699376184631236,-0.019861013908228586,-0.019510000000000003,-0.009130000000000001,-0.0025800000000000003,1.7271,1.4793,-9.771,7.600581089883492,17.00204386320398,21.709999084472656,21.31999969482422,21.459999084472656,21.5,17.628719422783355,17.31203632259445,17.425717117783357,17.45819823,17.45616777329029,0.02670995991659154,-0.9000000357627869,25.67500114440918,0.0,0.0,0.0,0.0,0.0,,,,,
pylon_camera_1771858954382301934.png,1771858954382301934,1771858954.382302,42.30087080510833,-83.69740624368279,238.539794921875,-0.009973837984049438,-0.9996617255220664,-0.013288124584697716,-0.020009568389498945,-0.0422,-0.022970000000000004,0.014940000000000002,-0.1254,1.7708000000000002,-10.667900000000001,7.643820823104211,17.098768552034734,21.670000076293945,21.68000030517578,21.729999542236328,21.639999389648438,17.59623985935139,17.60436013740555,17.644959978891677,17.571879025188903,17.60435975020938,0.029568866122495163,0.0,25.950000762939453,0.0,0.0,0.0,0.0,0.0,,,,,
pylon_camera_1771858954441213242.png,1771858954441213242,1771858954.4412131,42.30087081234705,-83.69741184452019,238.53201293945312,-0.009787349967666503,-0.9996491622163716,-0.013484544342907355,-0.020589495491173653,0.07124,-0.037570000000000006,-0.011720000000000001,1.2569000000000001,3.5752,-10.5485,7.753315593866721,17.343701784544223,22.0,21.939998626708984,22.03999900817871,21.939998626708984,17.86420284,17.815481171675035,17.896682403431967,17.815481171675035,17.84796189669551,0.02907453774376215,0.20000000298023224,25.399999618530273,0.0,0.0,0.0,0.0,0.0,,,,,
pylon_camera_1771858954483524020.png,1771858954483524020,1771858954.483524,42.300870829497576,-83.69741752549875,238.52737426757812,-0.009712634847363899,-0.9996374751911303,-0.01299743365630834,-0.02148603351421475,0.03411,-0.050230000000000004,-0.0015500000000000002,0.934,5.0442,-9.192,7.841602108635533,17.541193420891172,22.0,22.010000228881836,22.28999900817871,22.049999237060547,17.86420284,17.87232311805416,18.09968470843197,17.904802681486128,17.935253336993064,0.022464829310449026,0.0,25.475000381469727,0.0,0.0,0.0,0.0,0.0,,,,,
pylon_camera_1771858954533679184.png,1771858954533679184,1771858954.533679,42.30087084254684,-83.69742135297541,238.5251922607422,-0.00954784508034029,-0.9996109700205646,-0.012800701922886216,-0.022866772818854283,-0.024700000000000003,-0.045470000000000003,-0.00916,1.5715000000000001,-0.36970000000000003,-9.7347,7.903065285987358,17.678682860836563,22.139999389648438,22.10999870300293,22.170000076293945,22.329999923706055,17.977883635188903,17.953522801026423,18.00224446935139,18.132165820648613,18.016454181553833,0.01910613609487456,-0.5,25.625,0.0,0.0,0.0,0.0,0.0,,,,,
pylon_camera_1771858954592819135.png,1771858954592819135,1771858954.5928192,42.30087084974487,-83.69742714467878,238.52252197265625,-0.009470265953699708,-0.9995784373527143,-0.012775672030630663,-0.0242908181508582,0.04854000000000001,-0.04046,-0.021240000000000002,-1.1598000000000002,-1.3451,-9.9639,7.946455708248123,17.775744632008557,22.40999984741211,22.59000015258789,22.43000030517578,22.84000015258789,18.197126496297226,18.343288403702772,18.213367052405548,18.546290708702777,18.32501816527708,0.03090017012730101,-0.800000011920929,25.55000114440918,0.0,0.0,0.0,0.0,0.0,,,,,
pylon_camera_1771858954634708955.png,1771858954634708955,1771858954.634709,42.300870853867,-83.6974290811197,238.52084350585938,-0.009056861579691156,-0.9995646961196272,-0.0132666368130239,-0.024746472016740725,0.00109,-0.003910000000000001,-0.05559000000000001,2.341,-4.1123,-10.1167,8.02326409853008,17.947560392565876,22.44999885559082,22.709999084472656,22.6299991607666,22.689998626708984,18.229606059729196,18.440728642783355,18.375767967134742,18.424488086675034,18.36764768908058,0.02340637319647693,-1.399999976158142,25.625,0.0,0.0,0.0,0.0,0.0,,,,,
pylon_camera_1771858954685260095.png,1771858954685260095,1771858954.68526,42.30087086324641,-83.69743492245948,238.5106201171875,-0.008974596491462428,-0.9995562875240239,-0.013306668578644567,-0.025092175281239734,0.0021100000000000003,-0.00604,-0.021890000000000003,0.8193,-3.442,-8.7738,8.070606477568637,18.053462453932386,22.81999969482422,22.78999900817871,22.600000381469727,23.06999969482422,18.530050152594452,18.50568931843197,18.351408681756936,18.733052457594454,18.530050152594452,0.026398686671777777,-2.5,25.350000381469727,0.0,0.0,0.0,0.0,0.0,,,,,
pylon_camera_1771858954734981310.png,1771858954734981310,1771858954.7349813,42.3008708504135,-83.69744280322475,238.49191284179688,-0.008963288057299013,-0.9995389516513588,-0.014196497418739629,-0.02529828175873434,-0.0318,-0.050320000000000004,0.0037,0.7454000000000001,-0.2156,-13.7018,8.15323957975603,18.23830774553946,23.029998779296875,22.969999313354492,22.889999389648438,23.279998779296875,18.700571345377806,18.651851225837518,18.5868905501889,18.90357365037781,18.71072169294551,0.025902290607065136,-3.1000001430511475,25.649999618530273,0.0,0.0,0.0,0.0,0.0,,,,,
pylon_camera_1771858954785873973.png,1771858954785873973,1771858954.785874,42.3008708514015,-83.69744478471718,238.48690795898438,-0.009000915628863071,-0.9995309699191985,-0.014726523268951564,-0.02529729635034958,0.00585,0.012250000000000002,-0.005460000000000001,2.7757,-0.2989,-8.6533,8.209474016915694,18.364100807399392,23.529998779296875,23.90999984741211,23.170000076293945,23.260000228881836,19.106575955377807,19.415140326297227,18.814253689351386,18.88733464305416,19.055826153520144,0.03766725925627879,-3.0,26.0,0.0,0.0,0.0,0.0,0.0,,,,,
pylon_camera_1771858954835682426.png,1771858954835682426,1771858954.8356824,42.30087085687348,-83.69745076796283,238.47329711914062,-0.009057194644118194,-0.9995187950321309,-0.014673182379016245,-0.025784555872990125,-0.01264,0.005320000000000001,0.026220000000000004,-0.0684,4.0462,-8.1111,8.243526902179935,18.440275068562386,23.56999969482422,23.389999389648438,23.51999855041504,23.309999465942383,19.13905706759445,18.992895160188905,19.098455677323646,18.92793448454029,19.039585597411822,0.03250008617665153,-3.1000001430511475,25.5,0.0,0.0,0.0,0.0,0.0,,,,,
pylon_camera_1771858954895189812.png,1771858954895189812,1771858954.8951898,42.30087087362794,-83.6974567873896,238.45755004882812,-0.009042879461504505,-0.9995411082537218,-0.014228800275935961,-0.025166256866564412,-0.07165,0.04571000000000001,0.0318,-1.3086,0.5167,-10.0395,8.255515607157939,18.46709308227588,23.479999542236328,23.389999389648438,23.639999389648438,23.84000015258789,19.065976113891676,18.992895160188905,19.195897465188906,19.358299928702774,19.153267166993064,0.03715658342436967,-3.700000047683716,25.774999618530273,0.0,0.0,0.0,0.0,0.0,,,,,
pylon_camera_1771858954945107811.png,1771858954945107811,1771858954.9451077,42.30087087130664,-83.69746082545554,238.44813537597656,-0.0091063571185368,-0.9995536298241015,-0.015261491763592542,-0.024014625432073756,-0.05748000000000001,0.0722,0.005900000000000001,1.3206,-1.0824,-10.4322,8.358344122231806,18.697114300785216,23.649999618530273,23.639999389648438,23.670000076293945,23.799999237060547,19.204017743243067,19.195897465188906,19.220258299351386,19.32581881648613,19.236498081067374,0.028848504191874444,-4.200000286102295,25.600000381469727,0.0,0.0,0.0,0.0,0.0,,,,,
pylon_camera_1771858954988151352.png,1771858954988151352,1771858954.9881513,42.30087087506922,-83.69746489941342,238.43984985351562,-0.009161803943205815,-0.9995290282565047,-0.016053941135626085,-0.024495999573963187,-0.014530000000000003,-0.00642,0.011410000000000002,-0.4454,2.2919,-11.9137,8.41778847464733,18.8300877504776,23.78999900817871,23.779998779296875,23.869998931884766,23.899999618530273,19.31769853843197,19.309578260377805,19.382659214080583,19.407020048243066,19.354239015283355,0.02783583761007494,-4.300000190734863,22.524999618530273,0.0,0.0,0.0,0.0,0.0,,,,,
pylon_camera_1771858955038151026.png,1771858955038151026,1771858955.038151,42.30087088283841,-83.69746899809567,238.4320068359375,-0.009263784284942844,-0.9995120985289194,-0.01606224789548582,-0.025134665058072967,0.016470000000000002,-0.06065000000000001,0.004920000000000001,0.043500000000000004,1.2711000000000001,-8.2111,8.489192035573579,18.989813232055962,23.989999771118164,23.920000076293945,23.93000030517578,23.899999618530273,19.48010100194584,19.423260604351388,19.431380882405552,19.407020048243066,19.43544063423646,0.023466655344890515,-4.400000095367432,0.0,0.0,0.0,0.0,0.0,0.0,,,,,
pylon_camera_1771858955088529446.png,1771858955088529446,1771858955.0885293,42.300870889239555,-83.69747518290995,238.41891479492188,-0.009366976339497235,-0.9995133416827056,-0.015564799640341125,-0.02535895432943513,0.023370000000000005,0.014090000000000004,0.00217,1.8558000000000001,-0.744,-7.205,8.530483655927398,19.082180109290235,24.15999984741211,24.049999237060547,24.059999465942383,24.029998779296875,19.618142631297225,19.528821121486132,19.53694139954029,19.51258056537781,19.549121429425362,0.024470019539737774,-4.5,0.0,0.0,0.0,0.0,0.0,0.0,,,,,
pylon_camera_1771858955138748685.png,1771858955138748685,1771858955.1387486,42.30087090415724,-83.69748139989912,238.40081787109375,-0.009646453723852144,-0.9995148723714543,-0.015733014854944386,-0.025088604632438165,-0.004300000000000001,0.02704,0.0181,0.6173000000000001,1.9603000000000002,-9.940100000000001,8.572641186077401,19.176483974783984,24.209999084472656,24.149999618530273,24.399999618530273,24.439998626708984,19.658742472783356,19.610022353243064,19.813024658243066,19.845504221675036,19.73182342648613,0.028959399044808556,-4.400000095367432,0.0,0.0,0.0,0.0,0.0,0.0,,,,,
pylon_camera_1771858955189752746.png,1771858955189752746,1771858955.1897528,42.300870915822614,-83.69748557128862,238.3895721435547,-0.009782393903612074,-0.9995329011703062,-0.015364503760458083,-0.02454009518686552,0.025740000000000006,0.020610000000000003,0.006210000000000001,1.3697000000000001,0.9765,-11.783800000000001,8.630123780676795,19.305069089947153,24.28999900817871,24.170000076293945,24.439998626708984,24.469999313354492,19.72370314843197,19.626262909351386,19.845504221675036,19.869865055837515,19.76633383382398,0.02389345211496923,-4.599999904632568,0.0,0.0,0.0,0.0,0.0,0.0,,,,,
pylon_camera_1771858955240025614.png,1771858955240025614,1771858955.2400255,42.30087093807733,-83.69749187169404,238.37762451171875,-0.009817624055934004,-0.9995318737913084,-0.01494491947142252,-0.024825328097030742,-0.011050000000000003,-0.0008800000000000001,-0.00022000000000000003,0.5705,-1.0402,-14.527800000000001,8.67722943931544,19.41044162198228,24.31999969482422,24.15999984741211,24.439998626708984,24.549999237060547,19.748063982594452,19.618142631297225,19.845504221675036,19.93482573148613,19.78663414176321,0.019380935638006913,-5.099999904632568,0.0,0.0,0.0,0.0,0.0,0.0,,,,,
pylon_camera_1771858955299561981.png,1771858955299561981,1771858955.299562,42.30087097123541,-83.69750032899104,238.36509704589844,-0.010049341876243623,-0.9995104716477828,-0.0147712508062527,-0.025683417683403188,-0.027840000000000004,-0.05433000000000001,-0.003980000000000001,-0.2907,-2.5932,-8.297600000000001,8.715806520154162,19.49673623719365,24.529998779296875,24.439998626708984,24.489999771118164,24.3799991607666,19.91858517537781,19.845504221675036,19.88610561194584,19.796784102134744,19.861744777783358,0.018721520163635604,-5.700000286102295,0.0,0.0,0.0,0.0,0.0,0.0,,,,,
pylon_camera_1771858955341975453.png,1771858955341975453,1771858955.3419755,42.300870974663795,-83.69750245027245,238.36180114746094,-0.010311657832738186,-0.9994967663780248,-0.015025054071779669,-0.025964041726066176,0.02075,-0.043140000000000005,0.0029700000000000004,-0.331,-0.6546000000000001,-10.324300000000001,8.753496923181187,19.581047407340925,24.459999084472656,25.19999885559082,24.51999855041504,24.559999465942383,19.861744777783354,20.462631414729195,19.910464897323646,19.94294600954029,20.044446774844122,0.023665708879774656,-7.200000286102295,0.0,0.0,0.0,0.0,0.0,0.0,,,,,
pylon_camera_1771858955392190672.png,1771858955392190672,1771858955.3921907,42.30087099776522,-83.69750882551041,238.34815979003906,-0.010639509642920097,-0.9994996044134468,-0.014706118279768926,-0.02590505157421671,0.03187,-0.033990000000000006,0.011300000000000003,0.2147,1.6604,-9.7517,8.7816007606412,19.64391400550873,24.639999389648438,23.809999465942383,24.5,24.549999237060547,20.007906685188903,19.33393909454029,19.89422589,19.93482573148613,19.792724350303832,0.0075753917856375835,-8.100000381469727,0.0,0.0,0.0,0.0,0.0,0.0,,,,,
pylon_camera_1771858955450421387.png,1771858955450421387,1771858955.4504216,42.30087101153989,-83.69751307448493,238.33749389648438,-0.011096791657206173,-0.9994984553413518,-0.014955163092956093,-0.025613318450196643,-0.057850000000000006,0.03891000000000001,0.026630000000000004,0.0729,-0.22030000000000002,-8.375300000000001,8.760027890697684,19.595656789817276,24.689998626708984,24.59000015258789,24.549999237060547,24.5,20.048506526675034,19.967306843702776,19.93482573148613,19.89422589,19.961216247965986,0.01865512659614805,-7.900000095367432,0.0,0.0,0.0,0.0,0.0,0.0,,,,,
pylon_camera_1771858955492860749.png,1771858955492860749,1771858955.4928606,42.300871018501454,-83.69751733218013,238.32638549804688,-0.011160584367581272,-0.9994892721514792,-0.016045538330408414,-0.025281948310357686,-0.048150000000000005,0.010160000000000002,0.010900000000000002,0.262,2.9823,-10.5608,8.790727677110228,19.664330370034953,24.59000015258789,24.439998626708984,24.59000015258789,24.510000228881836,19.967306843702776,19.845504221675036,19.967306843702776,19.902346168054162,19.92061601928369,0.013033021945118965,-6.800000190734863,0.0,0.0,0.0,0.0,0.0,0.0,,,,,
pylon_camera_1771858955542953926.png,1771858955542953926,1771858955.542954,42.30087105727202,-83.69752586694067,238.3069305419922,-0.01188355521457568,-0.9994937456022148,-0.014937228975657912,-0.025454131453378038,0.053880000000000004,-0.01485,0.024120000000000006,-0.6999000000000001,1.881,-10.5418,8.80849834897705,19.704082296760724,24.65999984741211,24.60999870300293,24.6299991607666,24.739999771118164,20.024147241297225,19.98354585102642,19.999786407134746,20.08910791694584,20.02414685410106,0.01624356580123255,-5.5,0.0,0.0,0.0,0.0,0.0,0.0,,,,,
pylon_camera_1771858955593167773.png,1771858955593167773,1771858955.5931678,42.30087109021763,-83.69753014468702,238.2991485595703,-0.012364344226743651,-0.9994984544558195,-0.013310654951966323,-0.02593817643976216,0.04079,-0.010490000000000001,0.021590000000000005,-1.0176,0.20020000000000002,-9.5698,8.82021835360505,19.730299243913283,24.739999771118164,24.689998626708984,24.779998779296875,24.869998931884766,20.08910791694584,20.048506526675034,20.12158748037781,20.194668434080583,20.113467589519818,0.019420300770386985,-4.800000190734863,0.0,0.0,0.0,0.0,0.0,0.0,,,,,
pylon_camera_1771858955652123618.png,1771858955652123618,1771858955.6521237,42.30087112874965,-83.6975344272669,238.29273986816406,-0.012692861564453262,-0.9994973778899741,-0.012384448588014857,-0.02627752441808531,0.04503000000000001,-0.005370000000000001,0.010470000000000002,-0.9314,-0.8699,-11.6666,8.829557047803778,19.751189342514184,24.739999771118164,24.729999542236328,24.850000381469727,24.51999855041504,20.08910791694584,20.08098763889168,20.178429426756935,19.910464897323646,20.064747469979526,0.01587540486943801,-4.900000095367432,0.0,0.0,0.0,0.0,0.0,0.0,,,,,
pylon_camera_1771858955694619497.png,1771858955694619497,1771858955.6946194,42.30087121226105,-83.69754299184152,238.2783966064453,-0.013029876020204778,-0.9994953439548655,-0.011731838048169688,-0.026488558274372676,0.024030000000000003,-0.036270000000000004,0.0032600000000000003,-1.7426000000000001,-0.0959,-8.9026,8.826325421375714,19.74396038809219,24.6299991607666,24.689998626708984,24.639999389648438,24.939998626708984,19.999786407134746,20.048506526675034,20.007906685188903,20.251508831675036,20.07692711266843,0.016864231797033693,-5.0,0.0,0.0,0.0,0.0,0.0,0.0,,,,,
pylon_camera_1771858955744390706.png,1771858955744390706,1771858955.7443907,42.30087122823738,-83.69754513523617,238.2744140625,-0.013153432930501752,-0.9995130372949914,-0.01120071477138158,-0.02598498543571801,0.00305,-0.013010000000000002,-0.0003800000000000001,-0.0054,-0.4485,-9.9931,8.857728373185923,19.81420690711452,24.84000015258789,24.549999237060547,24.75,25.5,20.170309148702774,19.93482573148613,20.097228195,20.706235109999998,20.227149546297223,0.020840735191597834,-5.0,0.0,0.0,0.0,0.0,0.0,0.0,,,,,
pylon_camera_1771858955795025973.png,1771858955795025973,1771858955.7950258,42.30087125941791,-83.69755156009576,238.26339721679688,-0.013671108844624913,-0.9994941330752011,-0.013146641832825254,-0.025529287881380137,-0.046700000000000005,-0.06988000000000001,0.04907000000000001,-0.1351,6.560300000000001,-9.9192,8.855862328795927,19.810032677776764,24.850000381469727,24.779998779296875,24.78999900817871,24.69999885559082,20.178429426756935,20.12158748037781,20.12970775843197,20.056626804729195,20.12158786757398,0.01572714163903034,-4.5,0.0,0.0,0.0,0.0,0.0,0.0,,,,,
pylon_camera_1771858955844893874.png,1771858955844893874,1771858955.844894,42.300871301832146,-83.69755798836101,238.25132751464844,-0.013800331052669923,-0.9995352132325801,-0.012674734675911407,-0.024047026257580414,-0.01725,0.02101,0.014310000000000002,0.6055,0.34040000000000004,-5.3391,8.848525718876308,19.793621121583172,24.8799991607666,24.739999771118164,24.85999870300293,24.81999969482422,20.202788712134744,20.08910791694584,20.18654815602642,20.154068592594456,20.158128344425364,0.01841538850335626,-3.799999952316284,0.0,0.0,0.0,0.0,0.0,0.0,,,,,
pylon_camera_1771858955904710659.png,1771858955904710659,1771858955.9047108,42.300871337895884,-83.6975622811204,238.24290466308594,-0.013966417866956071,-0.9995626067264864,-0.011413863249836355,-0.02343625677942517,0.02162,0.056380000000000006,0.013210000000000001,-0.9962000000000001,-0.2844,-9.8805,8.857713668978683,19.814174014685175,24.93000030517578,24.94999885559082,24.869998931884766,24.829999923706055,20.24339010240555,20.259629109729193,20.194668434080583,20.162188870648613,20.214969129215987,0.020227697315758138,-3.200000047683716,0.0,0.0,0.0,0.0,0.0,0.0,,,,,
pylon_camera_1771858955946652931.png,1771858955946652931,1771858955.946653,42.300871386826856,-83.69756658409679,238.23342895507812,-0.014085659617821655,-0.999577975721879,-0.011072340532399149,-0.022866305342491816,0.01806,-0.02542,-0.006730000000000001,-0.3669,1.1327,-9.436,8.891440969819898,19.889619963028924,24.94999885559082,24.969999313354492,24.920000076293945,24.889999389648438,20.259629109729193,20.27586966583752,20.235269824351388,20.210908990188905,20.245419397526753,0.017888699490447454,-3.0,0.0,0.0,0.0,0.0,0.0,0.0,,,,,
pylon_camera_1771858955997155802.png,1771858955997155802,1771858955.997156,42.300871473908856,-83.69757520105581,238.216552734375,-0.014214513948663077,-0.999601597922972,-0.010741258626980693,-0.021891057218699873,0.021820000000000003,0.05619000000000001,0.0027600000000000003,-0.0639,1.6298000000000001,-8.1752,8.877643737258326,19.85875638162264,24.889999389648438,24.94999885559082,24.619998931884766,24.779998779296875,20.210908990188905,20.259629109729193,19.99166612908058,20.12158748037781,20.145947927344125,0.014461708487811049,-3.1000001430511475,0.0,0.0,0.0,0.0,0.0,0.0,,,,,
pylon_camera_1771858956047022496.png,1771858956047022496,1771858956.0470226,42.300871501136506,-83.69757735522117,238.2128448486328,-0.014276067773493994,-0.9996135987797654,-0.010732809034020786,-0.02129915100965794,0.00158,0.019750000000000004,0.006860000000000001,-0.12090000000000001,1.3574000000000002,-11.993,8.903434733085243,19.916449291827703,24.90999984741211,24.779998779296875,24.869998931884766,25.0,20.227149546297223,20.12158748037781,20.194668434080583,20.3002305,20.210908990188905,0.014784748729384555,-3.299999952316284,0.0,0.0,0.0,0.0,0.0,0.0,,,,,
pylon_camera_1771858956097790048.png,1771858956097790048,1771858956.09779,42.30087155082097,-83.69758384911883,238.2046661376953,-0.014310500382318458,-0.9995926098502841,-0.011660918064831332,-0.021768024747102915,-0.08590000000000002,-0.05219,0.0033300000000000005,-1.8712000000000002,0.9836,-14.0899,8.953782708821219,20.029074692670537,24.920000076293945,24.829999923706055,25.010000228881836,24.94999885559082,20.235269824351388,20.162188870648613,20.30835077805416,20.259629109729193,20.241359645695837,0.010598839750843993,-3.200000047683716,0.0,0.0,0.0,0.0,0.0,0.0,,,,,
pylon_camera_1771858956147487211.png,1771858956147487211,1771858956.1474872,42.30087156476192,-83.6975860226177,238.20364379882812,-0.014597082539328232,-0.9995566564015801,-0.012108635605224204,-0.022952053686188443,-0.02024,-0.02279,0.01042,1.3947,-0.9089,-6.1622,8.981442797570526,20.090948651597415,25.049999237060547,24.939998626708984,25.010000228881836,25.010000228881836,20.34083034148613,20.251508831675036,20.30835077805416,20.30835077805416,20.302260182317372,0.010517747787044188,-3.0,0.0,0.0,0.0,0.0,0.0,0.0,,,,,
pylon_camera_1771858956207961668.png,1771858956207961668,1771858956.2079616,42.30087162109892,-83.69759471046127,238.20108032226562,-0.01489359024328163,-0.9995029972490428,-0.01227805591665821,-0.02492365949760541,0.008040000000000002,-0.056240000000000005,0.009950000000000002,-0.042300000000000004,0.4234,-6.8272,8.966935116816531,20.058495840211574,25.079999923706055,25.010000228881836,25.029998779296875,25.0,20.365191175648615,20.30835077805416,20.32458978537781,20.3002305,20.324590559770147,0.01326593587466959,-3.0,0.0,0.0,0.0,0.0,0.0,0.0,,,,,
pylon_camera_1771858956249146798.png,1771858956249146798,1771858956.249147,42.3008716514254,-83.69759905784011,238.19602966308594,-0.015035023010628368,-0.9994892627643158,-0.012670912957823785,-0.025191460194465293,-0.05124000000000001,-0.008530000000000001,0.004730000000000001,-1.2009,-0.3771,-8.2117,8.96821748246846,20.061364415233,25.03999900817871,25.079999923706055,25.1299991607666,25.079999923706055,20.332710063431968,20.365191175648615,20.405791017134746,20.365191175648615,20.367220857965986,0.015246043908197084,-2.9000000953674316,0.0,0.0,0.0,0.0,0.0,0.0,,,,,
pylon_camera_1771858956299212763.png,1771858956299212763,1771858956.2992127,42.3008716831995,-83.69760340152088,238.1888427734375,-0.015060731786814885,-0.9994833748065859,-0.012794661374961408,-0.025346685850090523,-0.00512,-0.011630000000000001,-0.0046500000000000005,-0.7197,-0.278,-9.738800000000001,8.971864720492139,20.069523067857688,25.15999984741211,25.079999923706055,25.170000076293945,25.049999237060547,20.430151851297225,20.365191175648615,20.43827212935139,20.34083034148613,20.39361137444584,0.01614828142613887,-2.799999952316284,0.0,0.0,0.0,0.0,0.0,0.0,,,,,
pylon_camera_1771858956358066734.png,1771858956358066734,1771858956.3580668,42.30087175068258,-83.69760992543782,238.18011474609375,-0.01508240668335098,-0.9994914972836211,-0.012083507852279213,-0.025362505877116633,0.012730000000000002,0.00444,0.00524,-0.3808,-0.030000000000000002,-9.295200000000001,8.98137052548184,20.090786983271347,25.119998931884766,25.09000015258789,25.19999885559082,25.119998931884766,20.397670739080585,20.373311453702776,20.462631414729195,20.397670739080585,20.407821086648287,0.01578007390357181,-2.799999952316284,0.0,0.0,0.0,0.0,0.0,0.0,,,,,
pylon_camera_1771858956408978359.png,1771858956408978359,1771858956.4089785,42.30087181657705,-83.69761645181762,238.17083740234375,-0.015134095449697571,-0.9994960256050562,-0.011483631832962308,-0.025431872808374868,0.0015700000000000002,-0.0051,0.007490000000000002,-0.6852,-0.9246000000000001,-9.2783,8.99319991103056,20.117248608980702,25.15999984741211,25.119998931884766,25.189998626708984,25.119998931884766,20.430151851297225,20.397670739080585,20.454511136675034,20.397670739080585,20.420001116533356,0.01504939932081467,-2.9000000953674316,0.0,0.0,0.0,0.0,0.0,0.0,,,,,
pylon_camera_1771858956459224262.png,1771858956459224262,1771858956.4592242,42.30087187593402,-83.69762298646413,238.1587371826172,-0.01541212708098566,-0.9994923422573074,-0.011688814837165731,-0.025315918224372992,-0.025550000000000003,-0.009500000000000001,0.01845,-1.0321,0.3477,-10.1145,9.004087815526974,20.14160419806491,25.389999389648438,25.25,25.170000076293945,25.189998626708984,20.616913600188905,20.503232805,20.43827212935139,20.454511136675034,20.503232417803833,0.017954290839141053,-2.799999952316284,0.0,0.0,0.0,0.0,0.0,0.0,,,,,
pylon_camera_1771858956509962827.png,1771858956509962827,1771858956.5099628,42.300871911724926,-83.69762734858624,238.14974975585938,-0.01558824044351742,-0.9994939094771882,-0.012140358772510611,-0.024930771483374053,-0.00787,0.013060000000000002,0.0075200000000000015,-0.2995,0.8994000000000001,-9.387,9.00357930825962,20.140466697818276,25.25,25.15999984741211,25.19999885559082,25.229999542236328,20.503232805,20.430151851297225,20.462631414729195,20.486992248891678,20.470752079979523,0.01639909278750849,-2.700000047683716,0.0,0.0,0.0,0.0,0.0,0.0,,,,,
pylon_camera_1771858956551353331.png,1771858956551353331,1771858956.5513535,42.30087195061222,-83.69763170887165,238.1405792236328,-0.015633011863878832,-0.9995038622603123,-0.012052248470962534,-0.024543462949975167,0.00786,0.041490000000000006,0.0029500000000000004,-0.9236000000000001,0.09240000000000001,-9.5053,8.996251149073665,20.124074045408843,25.329999923706055,25.239999771118164,25.189998626708984,25.100000381469727,20.568193480648613,20.49511252694584,20.454511136675034,20.381431731756933,20.474812219006605,0.017428785682578028,-2.6000001430511475,0.0,0.0,0.0,0.0,0.0,0.0,,,,,
pylon_camera_1771858956602019249.png,1771858956602019249,1771858956.6020193,42.300872049349785,-83.69764041561608,238.1226043701172,-0.015715822524505374,-0.9995539242698654,-0.01041589446700138,-0.023161920074606636,0.05181000000000001,0.03352000000000001,0.004670000000000001,-1.0588,0.9535,-11.0745,8.993704256085444,20.118376798607773,25.26999855041504,25.26999855041504,25.299999237060547,25.260000228881836,20.519471812323648,20.519471812323648,20.54383264648613,20.511353083054164,20.523532338546897,0.020138579965713777,-2.200000047683716,0.0,0.0,0.0,0.0,0.0,0.0,,,,,
pylon_camera_1771858956651477224.png,1771858956651477224,1771858956.6514773,42.30087210701453,-83.69764476926146,238.11512756347656,-0.015699984596961813,-0.9995974848280049,-0.008784949530379504,-0.021936350446920837,0.018630000000000004,0.04753000000000001,0.006050000000000001,-0.6389,-1.2528000000000001,-11.6454,8.996153209974214,20.12385496151972,25.149999618530273,25.03999900817871,25.309999465942383,25.229999542236328,20.422031573243064,20.332710063431968,20.551952924540288,20.486992248891678,20.44842170252675,0.0161284575757309,-2.200000047683716,0.0,0.0,0.0,0.0,0.0,0.0,,,,,
pylon_camera_1771858956702243963.png,1771858956702243963,1771858956.7022438,42.30087215846013,-83.69764911503835,238.1092987060547,-0.01570325158575725,-0.9996136054129388,-0.008731781722714597,-0.021208577296150152,0.0058200000000000005,0.031580000000000004,-0.009380000000000001,0.6663,-0.4515,-10.0,9.01059514840758,20.156160711278854,25.01999855041504,25.1299991607666,25.15999984741211,25.09000015258789,20.31646950732365,20.405791017134746,20.430151851297225,20.373311453702776,20.3814309573646,0.011176247764272408,-2.200000047683716,0.0,0.0,0.0,0.0,0.0,0.0,,,,,
pylon_camera_1771858956761141085.png,1771858956761141085,1771858956.761141,42.30087226743152,-83.69765785969864,238.10073852539062,-0.01575526332016447,-0.9996053621636813,-0.008396034959433439,-0.021688665433529278,0.011380000000000001,-0.031150000000000004,0.008350000000000002,0.13970000000000002,-0.0472,-8.9212,9.048290432111719,20.24048279920799,25.18000030517578,25.03999900817871,25.079999923706055,25.15999984741211,20.44639240740555,20.332710063431968,20.365191175648615,20.430151851297225,20.39361137444584,0.007565460604716542,-2.200000047683716,0.0,0.0,0.0,0.0,0.0,0.0,,,,,
pylon_camera_1771858956804026225.png,1771858956804026225,1771858956.8040261,42.30087229005113,-83.69766004820525,238.09832763671875,-0.015790561640852185,-0.9995870345471638,-0.008293537123382655,-0.02253077384948142,-0.0037800000000000004,-0.06169000000000001,0.00111,-0.2934,-0.5657,-10.2742,9.059102125358336,20.264667908299078,25.28999900817871,25.219999313354492,25.079999923706055,25.119998931884766,20.53571236843197,20.47887197083752,20.365191175648615,20.397670739080585,20.444361563499672,0.00886733777300164,-2.299999952316284,0.0,0.0,0.0,0.0,0.0,0.0,,,,,
pylon_camera_1771858956854216363.png,1771858956854216363,1771858956.8542163,42.30087236619432,-83.69766662245625,238.09059143066406,-0.015967507055747288,-0.9995512370165109,-0.00786194209633093,-0.02409467085605401,0.023700000000000002,-0.04051000000000001,0.0005700000000000001,-0.549,-0.5253,-8.6441,9.054636496751074,20.25467856504235,25.189998626708984,25.10999870300293,25.170000076293945,25.03999900817871,20.454511136675034,20.38955046102642,20.43827212935139,20.332710063431968,20.4037609476212,0.007360392419959324,-2.0,0.0,0.0,0.0,0.0,0.0,0.0,,,,,
pylon_camera_1771858956904352233.png,1771858956904352233,1771858956.9043522,42.30087242517883,-83.69767099714467,238.0846710205078,-0.016103634579991366,-0.9995308473124342,-0.006399481807783268,-0.025254798688430714,0.05165000000000001,-0.025490000000000006,0.0006100000000000001,-1.0367,-0.5824,-8.9072,9.02743354171736,20.19382718680923,25.119998931884766,25.1299991607666,25.219999313354492,25.119998931884766,20.397670739080585,20.405791017134746,20.47887197083752,20.397670739080585,20.420001116533356,0.011200151790536513,-1.5,0.0,0.0,0.0,0.0,0.0,0.0,,,,,
pylon_camera_1771858956954606170.png,1771858956954606170,1771858956.954606,42.30087251937105,-83.69767754058267,238.0753631591797,-0.016096385584851547,-0.9995303648570958,-0.005326064516742231,-0.025526244073664005,0.036070000000000005,-0.03547,-0.00023000000000000003,-0.5736,-0.6446000000000001,-12.5359,9.027372508179539,20.19369065844714,25.189998626708984,25.219999313354492,25.34000015258789,25.309999465942383,20.454511136675034,20.47887197083752,20.576313758702774,20.551952924540288,20.515412447688902,0.01593179744521765,-1.600000023841858,0.0,0.0,0.0,0.0,0.0,0.0,,,,,
pylon_camera_1771858957014404420.png,1771858957014404420,1771858957.0144043,42.30087260677758,-83.6976840819268,238.0692596435547,-0.016084946215810303,-0.9995227821797298,-0.005509326499963054,-0.025790109159203174,-0.01923,-0.014390000000000002,6e-05,-0.3381,0.0088,-9.9486,9.013240099112561,20.162077307308856,25.299999237060547,25.170000076293945,25.420000076293945,25.35999870300293,20.54383264648613,20.43827212935139,20.641274434351388,20.59255276602642,20.553982994053833,0.01943776332029582,-1.899999976158142,0.0,0.0,36.0,0.0,0.0,0.0,,,,,
pylon_camera_1771858957064298061.png,1771858957064298061,1771858957.064298,42.30087268767114,-83.69769060867483,238.061279296875,-0.01613411213915117,-0.9995387053986897,-0.005816866011760031,-0.025064534809046867,0.01963,0.049330000000000006,0.0014600000000000004,0.07880000000000001,0.47740000000000005,-5.9713,8.992461914921185,20.115597755963798,25.26999855041504,25.049999237060547,25.189998626708984,25.260000228881836,20.519471812323648,20.34083034148613,20.454511136675034,20.511353083054164,20.456541593384742,0.01694922723933782,-1.7000000476837158,0.0,0.0,0.0,0.0,0.0,0.0,,,,,
pylon_camera_1771858957115601514.png,1771858957115601514,1771858957.1156013,42.30087274196609,-83.6976949431612,238.0499267578125,-0.016159130320685222,-0.999580805676316,-0.005208007273735025,-0.02345148376975104,0.021390000000000003,0.09253000000000002,0.007540000000000001,-0.3012,0.3809,-7.8879,8.970717061413739,20.06695582335885,25.229999542236328,24.989999771118164,25.079999923706055,25.029998779296875,20.486992248891678,20.29211022194584,20.365191175648615,20.32458978537781,20.367220857965986,0.014963158201485355,-1.600000023841858,0.0,0.0,0.0,0.0,0.0,0.0,,,,,
pylon_camera_1771858957165398561.png,1771858957165398561,1771858957.1653986,42.30087279568909,-83.69769929252406,238.03709411621094,-0.016187293327369234,-0.9996126394061378,-0.004713858497277649,-0.02214322045901008,0.02099,0.05558000000000001,-0.005870000000000001,-0.23670000000000002,-0.2533,-11.002600000000001,9.000669748496602,20.13395818720199,25.0,24.619998931884766,25.10999870300293,25.03999900817871,20.3002305,19.99166612908058,20.38955046102642,20.332710063431968,20.253539288384744,0.005939274337957248,-1.5,0.0,0.0,0.0,0.0,0.0,0.0,,,,,
pylon_camera_1771858957207287936.png,1771858957207287936,1771858957.2072878,42.300872888658105,-83.69770583177403,238.02098083496094,-0.016198502762189315,-0.9996228697384228,-0.003652726601378128,-0.021872000195659668,0.04431000000000001,-0.03731,-0.00708,0.3775,0.030100000000000002,-12.0037,9.03570956789188,20.212340160800064,24.76999855041504,24.719999313354492,24.94999885559082,24.959999084472656,20.113467202323648,20.07286736083752,20.259629109729193,20.267749387783354,20.178428265168428,0.0016777817591554862,-1.5,0.0,0.0,0.0,0.0,0.0,0.0,,,,,
pylon_camera_1771858957257259128.png,1771858957257259128,1771858957.257259,42.30087292368928,-83.69770801607592,238.01705932617188,-0.016198408288270794,-0.9995953313496415,-0.002534830231731927,-0.023245639346396996,0.06831000000000001,-0.09036000000000002,-0.007980000000000001,1.343,0.8907,-12.221200000000001,9.072860701808832,20.29544501830425,24.469999313354492,25.01999855041504,24.90999984741211,24.889999389648438,19.869865055837515,20.31646950732365,20.227149546297223,20.210908990188905,20.156098274911827,0.006865912191959701,-1.7000000476837158,0.0,0.0,0.0,0.0,0.0,0.0,,,,,
pylon_camera_1771858957317202325.png,1771858957317202325,1771858957.3172023,42.300873063374006,-83.69771685005391,238.0110626220703,-0.0161436092058293,-0.9993921107792987,-0.0019041976245673404,-0.030840992612330722,0.010350000000000002,-0.30421000000000004,0.00017,-1.4767000000000001,1.7191,-9.6773,9.147522367761502,20.462458685340415,25.01999855041504,25.03999900817871,25.0,25.029998779296875,20.31646950732365,20.332710063431968,20.3002305,20.32458978537781,20.318499964033357,0.007035260206056866,-2.200000047683716,0.0,0.0,0.0,0.0,0.0,0.0,,,,,
pylon_camera_1771858957358671622.png,1771858957358671622,1771858957.3586717,42.30087314724061,-83.69772348908182,238.00779724121094,-0.016118705396179267,-0.999278631041653,-0.001837711503952049,-0.03433697273056091,-0.026180000000000002,-0.23844,0.00033000000000000005,-1.4034,-1.8301,-8.503400000000001,9.127437601121915,20.41753026745366,25.079999923706055,24.969999313354492,25.15999984741211,25.18000030517578,20.365191175648615,20.27586966583752,20.430151851297225,20.44639240740555,20.37940127504723,0.0018674634937218776,-2.200000047683716,0.0,0.0,0.0,0.0,0.0,0.0,,,,,
pylon_camera_1771858957410553056.png,1771858957410553056,1771858957.410553,42.30087318472451,-83.69772789464929,238.0036163330078,-0.01637198840614218,-0.9990207669079015,-0.0032161839961836053,-0.04097708436284944,-0.013730000000000001,-0.10886000000000003,0.015290000000000003,-2.0723000000000003,-0.6488,-7.1405,9.057122638863206,20.260239915778662,25.670000076293945,26.1299991607666,25.309999465942383,25.420000076293945,20.84427673935139,21.217800237134743,20.551952924540288,20.641274434351388,20.813826083844454,0.027323771602263163,-2.0,0.0,0.0,0.0,0.0,0.0,0.0,,,,,
pylon_camera_1771858957461007895.png,1771858957461007895,1771858957.4610078,42.30087324859497,-83.69773660843121,237.98321533203125,-0.016475483586050832,-0.9989750114602272,-0.0038796473813999394,-0.041981344128565565,-0.06968,-0.03388000000000001,0.004600000000000001,-2.8053000000000003,-1.3702,-7.3308,9.002441742848678,20.13792203224792,25.420000076293945,25.459999084472656,25.31999969482422,25.59000015258789,20.641274434351388,20.673753997783358,20.560073202594452,20.779316063702773,20.663604424607993,0.02610410307072737,-1.3000000715255737,0.0,0.0,0.0,0.0,0.0,0.0,,,,,
pylon_camera_1771858957510713115.png,1771858957510713115,1771858957.510713,42.30087324859497,-83.69773660843121,237.98321533203125,-0.016754289727083982,-0.9990540473706866,-0.005057590595501774,-0.03980860441360874,-0.01076,0.17231000000000005,0.013300000000000001,-3.4948,-0.7318,-6.8862000000000005,8.897971836557323,19.90422912006854,25.489999771118164,25.489999771118164,26.059999465942383,25.760000228881836,20.69811483194584,20.69811483194584,21.160959839540293,20.917357693054164,20.868636799121532,0.048452400403722444,-0.9000000357627869,0.0,0.0,0.0,0.0,0.0,0.0,,,,,
pylon_camera_1771858957560664492.png,1771858957560664492,1771858957.5606647,42.30087332679672,-83.69774518537953,237.94920349121094,-0.01690962977802285,-0.9993283995253834,-0.00649882114821029,-0.031852466882315134,0.058530000000000006,0.27127,0.012160000000000002,-3.1756,-0.6296,-13.475800000000001,8.856346523242587,19.811115791702274,25.44999885559082,25.420000076293945,25.19999885559082,25.229999542236328,20.665633719729193,20.641274434351388,20.462631414729195,20.486992248891678,20.564132954425364,0.03800983097774256,-1.0,0.0,0.0,0.0,0.0,0.0,0.0,,,,,
pylon_camera_1771858957611639674.png,1771858957611639674,1771858957.6116395,42.3008733583482,-83.69774733908602,237.93914794921875,-0.016696565280536257,-0.9995208655195919,-0.0058605811360607826,-0.02539522962184324,0.01963,0.25034,0.018900000000000004,-0.08170000000000001,1.288,-2.1466000000000003,8.885927120437184,19.877285812790756,25.299999237060547,25.3799991607666,25.329999923706055,25.25,20.54383264648613,20.608793322134744,20.568193480648613,20.503232805,20.55601306356737,0.0341458716833393,-1.0,0.0,0.0,0.0,0.0,0.0,0.0,,,,,
pylon_camera_1771858957661390044.png,1771858957661390044,1771858957.66139,42.300873438116604,-83.69775378554274,237.8986358642578,-0.016320260692719413,-0.9996680732830701,-0.005676538706398271,-0.019109402338923113,-0.07920000000000002,0.09818000000000002,-0.04175000000000001,1.1109,-1.4301000000000001,-15.5313,8.916749239192027,19.946233043118216,24.94999885559082,24.959999084472656,25.03999900817871,24.959999084472656,20.259629109729193,20.267749387783354,20.332710063431968,20.267749387783354,20.281959487181965,0.01683157132166266,-0.9000000357627869,0.0,0.0,0.0,0.0,0.0,0.0,,,,,
pylon_camera_1771858957712646597.png,1771858957712646597,1771858957.7126467,42.300873495074704,-83.69775811394463,237.87710571289062,-0.016301229636309422,-0.9997427438384496,-0.005405813443277866,-0.01481530410517452,-0.012280000000000001,0.07233,-0.0009500000000000001,1.8837000000000002,-1.5588000000000002,-12.4006,8.99757808407582,20.12704231939257,24.85999870300293,24.829999923706055,24.8799991607666,24.829999923706055,20.18654815602642,20.162188870648613,20.202788712134744,20.162188870648613,20.178428652364595,0.0025530990672442085,-0.9000000357627869,0.0,0.0,0.0,0.0,0.0,0.0,,,,,
pylon_camera_1771858957771616022.png,1771858957771616022,1771858957.771616,42.30087356439137,-83.6977646673362,237.86280822753906,-0.016275726912454047,-0.999720510313068,-0.0061754528775836695,-0.015995804281329143,-0.022770000000000002,-0.12793000000000002,0.006670000000000001,1.6941000000000002,-0.4786,-16.2006,9.068994832449063,20.28679730049861,24.59000015258789,24.59000015258789,24.78999900817871,24.78999900817871,19.967306843702776,19.967306843702776,20.12970775843197,20.12970775843197,20.048507301067374,0.011746063013375599,-1.0,0.0,0.0,0.0,0.0,0.0,0.0,,,,,
pylon_camera_1771858957823298388.png,1771858957823298388,1771858957.8232982,42.30087359802245,-83.69776907889711,237.86203002929688,-0.016286014847239794,-0.9996092740680279,-0.007541464603146656,-0.021428747728816647,-0.06797000000000002,-0.29697000000000007,0.0,-0.062,-0.7553000000000001,-16.2091,9.123517502072069,20.408761241085095,24.78999900817871,24.889999389648438,25.03999900817871,24.989999771118164,20.12970775843197,20.210908990188905,20.332710063431968,20.29211022194584,20.24135925849967,0.008202456808031335,-1.2000000476837158,0.0,0.0,0.0,0.0,0.0,0.0,,,,,
pylon_camera_1771858957873263429.png,1771858957873263429,1771858957.8732634,42.30087362911702,-83.69777573210648,237.87733459472656,-0.016545730346537224,-0.999402785828923,-0.009372336722444082,-0.02885255255690164,-0.06659000000000001,-0.28707000000000005,0.011830000000000002,1.9888000000000001,0.9874,-9.253,9.13776699612623,20.44063650431461,25.15999984741211,25.03999900817871,25.06999969482422,25.079999923706055,20.430151851297225,20.332710063431968,20.357070897594454,20.365191175648615,20.371280996993065,0.003393020922166823,-1.100000023841858,0.0,0.0,0.0,0.0,0.0,0.0,,,,,
pylon_camera_1771858957915952731.png,1771858957915952731,1771858957.9159527,42.30087365246281,-83.69778016709878,237.88958740234375,-0.016943007533895382,-0.9991898434369794,-0.01001762560577377,-0.03510325405590754,-0.036770000000000004,-0.19306,0.018080000000000002,-1.4796,-0.7834,-4.4910000000000005,9.07864819390392,20.308391290871437,25.6299991607666,25.420000076293945,25.189998626708984,25.189998626708984,20.811795627134742,20.641274434351388,20.454511136675034,20.454511136675034,20.59052308370905,0.013892375264821262,-0.800000011920929,0.0,0.0,0.0,0.0,0.0,0.0,,,,,
pylon_camera_1771858957974191547.png,1771858957974191547,1771858957.9741917,42.300873712855406,-83.69778893977873,237.8861083984375,-0.017254997802307326,-0.999106490214045,-0.010331868719162104,-0.03717174668730124,0.01606,0.03509,-0.0007100000000000001,-3.4479,0.8187000000000001,-3.9687,8.948809773782662,20.01795053536539,25.809999465942383,25.68000030517578,25.15999984741211,24.969999313354492,20.95795753454029,20.852397017405547,20.430151851297225,20.27586966583752,20.629094017270145,0.030529772806914334,-0.20000000298023224,0.0,0.0,0.0,0.0,0.0,0.0,,,,,
pylon_camera_1771858958016514487.png,1771858958016514487,1771858958.0165145,42.300873772026364,-83.69779542831132,237.86070251464844,-0.017235657455799747,-0.9991750073872689,-0.010142180748298616,-0.03534646933409806,0.006630000000000001,0.14077000000000003,0.0073100000000000005,-1.5678,0.8223,-4.6632,8.910684487125353,19.93266655663019,25.489999771118164,25.44999885559082,25.350000381469727,25.09000015258789,20.69811483194584,20.665633719729193,20.584434036756935,20.373311453702776,20.580373510533683,0.0324947468550337,0.30000001192092896,0.0,0.0,0.0,0.0,0.0,0.0,,,,,
pylon_camera_1771858958066048129.png,1771858958066048129,1771858958.0660481,42.30087379768891,-83.69779758388522,237.85186767578125,-0.017384559905808283,-0.999282504163336,-0.010350816922227196,-0.03201740993547952,0.050660000000000004,0.18101,0.019550000000000005,-4.0552,0.4142,-11.9778,8.907713321790222,19.92602023804542,25.010000228881836,25.149999618530273,25.219999313354492,25.149999618530273,20.30835077805416,20.422031573243064,20.47887197083752,20.422031573243064,20.40782147384445,0.02417950147812807,0.30000001192092896,0.0,0.0,0.0,0.0,0.0,0.0,,,,,
pylon_camera_1771858958117003642.png,1771858958117003642,1771858958.1170034,42.300873881925035,-83.69780622375927,237.81239318847656,-0.017369269721727587,-0.9994180951331675,-0.01068942815272271,-0.027340733631209674,-0.0534,0.10847000000000001,0.004540000000000001,0.879,0.9295,-10.832,8.946053269035799,20.01178439963694,25.34000015258789,25.369998931884766,25.18000030517578,25.079999923706055,20.576313758702774,20.600673044080583,20.44639240740555,20.365191175648615,20.497142596459383,0.024253619124102097,0.30000001192092896,0.0,0.0,0.0,0.0,0.0,0.0,,,,,
pylon_camera_1771858958166727216.png,1771858958166727216,1771858958.166727,42.30087390852976,-83.69780838909175,237.80418395996094,-0.017268599813687058,-0.9995087477011982,-0.010916364014813147,-0.023767450977195678,-0.01632,0.12587,0.0028200000000000005,1.3491,0.7722,-10.9845,8.946847739163852,20.013561581645188,25.03999900817871,25.459999084472656,25.189998626708984,25.1299991607666,20.332710063431968,20.673753997783358,20.454511136675034,20.405791017134746,20.466691553756277,0.022641146117973476,0.5,0.0,0.0,0.0,0.0,0.0,0.0,,,,,
pylon_camera_1771858958217525934.png,1771858958217525934,1771858958.217526,42.300874004784035,-83.69781704497748,237.7833709716797,-0.01716841300283961,-0.9995330838079424,-0.011629601564529917,-0.022441308691767445,-0.055490000000000005,0.05090000000000001,0.009620000000000002,-1.613,0.28190000000000004,-12.596,8.946842121683854,20.013549015679484,25.149999618530273,25.25,25.18000030517578,25.079999923706055,20.422031573243064,20.503232805,20.44639240740555,20.365191175648615,20.434211990324307,0.021018909455552234,0.5,0.0,0.0,0.0,0.0,0.0,0.0,,,,,
pylon_camera_1771858958267312572.png,1771858958267312572,1771858958.2673125,42.300874025849524,-83.69781919935245,237.7804718017578,-0.016943940842299665,-0.9995707115418319,-0.0120502870471992,-0.020641852595357776,-0.025090000000000005,0.05801000000000001,-0.009400000000000002,0.0512,-0.8246,-11.0515,8.932946543987361,19.982465442107088,25.03999900817871,24.989999771118164,25.01999855041504,24.90999984741211,20.332710063431968,20.29211022194584,20.31646950732365,20.227149546297223,20.29210983474967,0.015495805236830225,0.699999988079071,0.0,0.0,16.0,0.0,0.0,0.0,,,,,
pylon_camera_1771858958318250124.png,1771858958318250124,1771858958.3182502,42.300874096523884,-83.69782568098955,237.774169921875,-0.016794707870884995,-0.9996094355886571,-0.01170387572005876,-0.019024546322776746,0.028050000000000005,0.06801000000000001,-0.006440000000000001,-0.39430000000000004,-0.385,-10.4586,8.923419152019898,19.96115323791939,25.06999969482422,25.0,25.09000015258789,25.049999237060547,20.357070897594454,20.3002305,20.373311453702776,20.34083034148613,20.34286079819584,0.01912252041386744,0.5,0.0,0.0,0.0,0.0,0.0,0.0,,,,,
pylon_camera_1771858958368402842.png,1771858958368402842,1771858958.368403,42.30087414583779,-83.69782999659773,237.7707061767578,-0.016698947429671374,-0.9996540515856773,-0.01148145142597317,-0.01676599463896426,0.03783,0.13585000000000003,-0.012020000000000001,1.2478,1.0234,-5.269,8.918549620046486,19.950260387066788,25.079999923706055,24.850000381469727,25.0,25.079999923706055,20.365191175648615,20.178429426756935,20.3002305,20.365191175648615,20.302260569513543,0.0176438891331437,0.4000000059604645,0.0,0.0,0.0,0.0,0.0,0.0,,,,,
pylon_camera_1771858958419343833.png,1771858958419343833,1771858958.419344,42.300874212535824,-83.69783648310096,237.7650604248047,-0.01655844593318917,-0.9996711348320199,-0.012102114984992196,-0.015394117864598636,-0.026920000000000003,0.12050000000000002,0.011800000000000001,-0.0693,2.3042000000000002,-13.7881,8.918088740241256,19.949229426595277,24.889999389648438,24.889999389648438,24.850000381469727,24.81999969482422,20.210908990188905,20.210908990188905,20.178429426756935,20.154068592594456,20.1885789999323,0.01199793577078895,0.30000001192092896,0.0,0.0,0.0,0.0,0.0,0.0,,,,,
pylon_camera_1771858958477970459.png,1771858958477970459,1771858958.4779704,42.30087423157986,-83.6978386469259,237.7626953125,-0.016365409233479677,-0.9996766132694188,-0.01233521144190101,-0.015056055973895146,-0.033960000000000004,-0.005900000000000001,-0.00321,-0.5513,0.8402000000000001,-10.715900000000001,8.950337602748137,20.02136819709142,24.829999923706055,24.889999389648438,24.670000076293945,24.920000076293945,20.162188870648613,20.210908990188905,20.03226751935139,20.235269824351388,20.160158801135076,0.006932123852745429,0.30000001192092896,0.0,0.0,0.0,0.0,0.0,0.0,,,,,
pylon_camera_1771858958520958079.png,1771858958520958079,1771858958.520958,42.300874316543805,-83.69784731947887,237.7577667236328,-0.016161671786073306,-0.9996735947906861,-0.01265455920437527,-0.0152107322206914,-0.02603,-0.029440000000000004,-0.0035200000000000006,-0.36210000000000003,-0.10930000000000001,-6.5244,8.949131768794851,20.018670818887955,24.719999313354492,24.65999984741211,24.889999389648438,24.76999855041504,20.07286736083752,20.024147241297225,20.210908990188905,20.113467202323648,20.105347698661824,0.004329801941300095,0.5,0.0,0.0,28.0,0.0,0.0,0.0,,,,,
pylon_camera_1771858958570259173.png,1771858958570259173,1771858958.570259,42.30087436166976,-83.69785165355665,237.75538635253906,-0.01603708596413228,-0.9996467403424114,-0.013067184332084298,-0.01668697366815367,0.032810000000000006,-0.07448,-0.019920000000000004,0.0092,-1.808,-14.067200000000001,8.95136253941063,20.023660918909215,24.719999313354492,24.81999969482422,24.829999923706055,24.739999771118164,20.07286736083752,20.154068592594456,20.162188870648613,20.08910791694584,20.119558185256608,0.00478919747671281,0.699999988079071,0.0,0.0,0.0,0.0,0.0,0.0,,,,,
pylon_camera_1771858958630077033.png,1771858958630077033,1771858958.630077,42.30087442156843,-83.6978581657204,237.7618408203125,-0.01594495820280656,-0.9996077020007583,-0.01275090287508736,-0.019173285700263974,0.07886000000000001,-0.10602000000000002,-0.03352000000000001,0.4198,-0.906,-12.0329,8.966117013967942,20.05666579322545,24.850000381469727,24.760000228881836,24.93000030517578,24.959999084472656,20.178429426756935,20.10534847305416,20.24339010240555,20.267749387783354,20.1987293475,0.007083109213622883,0.699999988079071,0.0,0.0,0.0,0.0,0.0,0.0,,,,,
pylon_camera_1771858958680532907.png,1771858958680532907,1771858958.680533,42.300874520299075,-83.69786683310059,237.7730255126953,-0.015667286870218067,-0.9995499069149354,-0.011876749203831458,-0.022659711754992148,0.03654000000000001,-0.07652,-0.017530000000000004,-1.1845,-0.8112,-8.4174,8.923927759560966,19.96229096247231,24.75,24.799999237060547,24.93000030517578,24.93000030517578,20.097228195,20.13782803648613,20.24339010240555,20.24339010240555,20.180459109074306,0.0109290134590332,0.6000000238418579,0.0,0.0,0.0,0.0,0.0,0.0,,,,,
pylon_camera_1771858958723237928.png,1771858958723237928,1771858958.723238,42.30087454686538,-83.69786898883812,237.77386474609375,-0.015586995649779223,-0.9995332370711432,-0.011832428366067727,-0.023459479867578903,-0.006060000000000001,-0.044320000000000005,-0.008780000000000001,-0.9987,1.0377,-7.4653,8.900431029996872,19.909730188241205,24.84000015258789,24.889999389648438,24.81999969482422,24.869998931884766,20.170309148702774,20.210908990188905,20.154068592594456,20.194668434080583,20.18248879139168,0.013699763913002079,0.6000000238418579,0.0,0.0,0.0,0.0,0.0,0.0,,,,,
pylon_camera_1771858958773091785.png,1771858958773091785,1771858958.7730918,42.30087462804902,-83.69787545283305,237.77186584472656,-0.015264448941767872,-0.9995322205065444,-0.01140430451272252,-0.023922345335315866,-0.004710000000000001,0.0034100000000000007,-0.006390000000000001,-1.0434,-0.24250000000000002,-7.4908,8.883924883112416,19.872806928029487,24.829999923706055,24.81999969482422,24.76999855041504,24.90999984741211,20.162188870648613,20.154068592594456,20.113467202323648,20.227149546297223,20.164218552965984,0.014663838178062176,0.5,0.0,0.0,0.0,0.0,0.0,0.0,,,,,
pylon_camera_1771858958823304174.png,1771858958823304174,1771858958.8233042,42.30087465568969,-83.69787760413502,237.76953125,-0.014973119011594815,-0.9995473247570703,-0.011018768467921223,-0.023654555998770806,0.023820000000000004,0.009470000000000001,-0.015200000000000002,-0.5466,-0.3467,-8.127,8.876707012000256,19.856660983423854,24.85999870300293,24.85999870300293,24.69999885559082,24.799999237060547,20.18654815602642,20.18654815602642,20.056626804729195,20.13782803648613,20.14188778831704,0.014364288393264571,0.699999988079071,0.0,0.0,0.0,0.0,0.0,0.0,,,,,
pylon_camera_1771858958873115988.png,1771858958873115988,1771858958.873116,42.30087473391244,-83.69788404809398,237.75802612304688,-0.014689150113083194,-0.9995752925155259,-0.010467716666038861,-0.02288865153859947,0.03304000000000001,0.04327000000000001,-0.01896,-0.3809,-0.48450000000000004,-8.8,8.859577554348709,19.818343414424803,24.649999618530273,24.689998626708984,24.69999885559082,24.829999923706055,20.016026963243064,20.048506526675034,20.056626804729195,20.162188870648613,20.070837291323976,0.012740412839722779,0.6000000238418579,0.0,0.0,0.0,0.0,0.0,0.0,,,,,
pylon_camera_1771858958924308660.png,1771858958924308660,1771858958.9243088,42.300874831854024,-83.69789262848798,237.74102783203125,-0.01434321183821663,-0.9996114912810445,-0.00999168027636579,-0.021709562370187223,0.017780000000000004,0.030830000000000007,-0.00786,-0.22690000000000002,-0.051800000000000006,-10.1089,8.855245469149695,19.80865279975972,24.779998779296875,24.920000076293945,24.76999855041504,24.739999771118164,20.12158748037781,20.235269824351388,20.113467202323648,20.08910791694584,20.13985810599967,0.01672023380832688,0.4000000059604645,0.0,0.0,0.0,0.0,0.0,0.0,,,,,
pylon_camera_1771858958974076070.png,1771858958974076070,1771858958.9740763,42.30087488163837,-83.69789691685068,237.73416137695312,-0.0141213475001572,-0.9996210058986876,-0.009884160994141473,-0.02146474952841547,0.011260000000000001,-0.020830000000000005,-0.008910000000000001,-0.7122,0.3022,-11.7392,8.861042677783805,19.821620807641708,24.799999237060547,24.739999771118164,24.689998626708984,24.760000228881836,20.13782803648613,20.08910791694584,20.048506526675034,20.10534847305416,20.09519773829029,0.013801945527235281,0.4000000059604645,0.0,0.0,0.0,0.0,0.0,0.0,,,,,
pylon_camera_1771858959025952975.png,1771858959025952975,1771858959.025953,42.300874924616494,-83.69790120814581,237.72926330566406,-0.013913905698635431,-0.9996273940174589,-0.009721471916827061,-0.021376841250382864,0.0036400000000000004,0.00987,-0.009070000000000002,-0.1399,0.2446,-10.4024,8.85013200134274,19.79721427908363,24.59000015258789,24.529998779296875,24.739999771118164,24.779998779296875,19.967306843702776,19.91858517537781,20.08910791694584,20.12158748037781,20.02414685410106,0.01146285390552095,0.4000000059604645,0.0,0.0,32.0,0.0,0.0,0.0,,,,,
pylon_camera_1771858959084432388.png,1771858959084432388,1771858959.0844324,42.30087501221013,-83.69790979324803,237.72352600097656,-0.013534398312251394,-0.9996164905004259,-0.009687328224251161,-0.02213250220406579,-0.00020000000000000004,-0.05766,-0.004890000000000001,-0.2384,-0.2441,-9.961,8.871437968839508,19.84487445001585,24.489999771118164,24.6299991607666,24.649999618530273,24.689998626708984,19.88610561194584,19.999786407134746,20.016026963243064,20.048506526675034,19.98760637724967,0.00719238247605563,0.30000001192092896,0.0,0.0,0.0,0.0,0.0,0.0,,,,,
pylon_camera_1771858959126429523.png,1771858959126429523,1771858959.1264296,42.30087503000428,-83.69791194677924,237.72238159179688,-0.013424628627301816,-0.9996031237942158,-0.009568798149893218,-0.022843212318570724,0.013160000000000002,-0.060500000000000005,-0.010950000000000001,-0.6387,0.6922,-9.9475,8.871185749894492,19.844310251368984,24.85999870300293,24.619998931884766,24.719999313354492,24.689998626708984,20.18654815602642,19.99166612908058,20.07286736083752,20.048506526675034,20.07489704315489,0.011619793727524466,0.30000001192092896,0.0,0.0,0.0,0.0,0.0,0.0,,,,,
pylon_camera_1771858959177096943.png,1771858959177096943,1771858959.1770968,42.30087509851922,-83.69792054151907,237.71493530273438,-0.013295267842212688,-0.9995766177495093,-0.009232308219124723,-0.024178204780381435,-0.0066900000000000015,-0.04993,-0.00846,-0.9065000000000001,-0.3242,-8.895100000000001,8.864738667309105,19.82988851445043,24.779998779296875,24.670000076293945,24.829999923706055,24.779998779296875,20.12158748037781,20.03226751935139,20.162188870648613,20.12158748037781,20.109407837688906,0.014095859542265377,0.30000001192092896,0.0,0.0,0.0,0.0,0.0,0.0,,,,,
pylon_camera_1771858959227168229.png,1771858959227168229,1771858959.2271683,42.30087511307246,-83.69792268578327,237.7123565673828,-0.013128180532589684,-0.9995577940800764,-0.009638768154388183,-0.024878933219516123,-0.007450000000000001,0.014650000000000003,-0.0068000000000000005,-1.5424,0.3289,-9.3521,8.825012357811625,19.741023143683137,24.81999969482422,24.84000015258789,24.59000015258789,24.65999984741211,20.154068592594456,20.170309148702774,19.967306843702776,20.024147241297225,20.078957956574307,0.017118404169406222,0.10000000149011612,0.0,0.0,0.0,0.0,0.0,0.0,,,,,
pylon_camera_1771858959277287970.png,1771858959277287970,1771858959.277288,42.30087516715147,-83.6979290947626,237.7039337158203,-0.012913711173412334,-0.9995847167085044,-0.008946009923677436,-0.02415779569734092,0.044430000000000004,0.05004,-0.01276,-1.0104,-0.3002,-9.136700000000001,8.794529061885505,19.672833839694164,24.670000076293945,24.670000076293945,24.719999313354492,24.68000030517578,20.03226751935139,20.03226751935139,20.07286736083752,20.04038779740555,20.044447549236462,0.01888968882523108,0.10000000149011612,0.0,0.0,0.0,0.0,0.0,0.0,,,,,
pylon_camera_1771858959337070519.png,1771858959337070519,1771858959.3370707,42.30087520838699,-83.69793335252983,237.69725036621094,-0.012658280175691261,-0.9996401595428739,-0.00796701266608391,-0.02226760160568739,0.04676,0.08196,-0.013470000000000001,0.7533000000000001,-0.1463,-11.071900000000001,8.78536288834836,19.65232965946198,24.579999923706055,24.719999313354492,24.850000381469727,24.81999969482422,19.959186565648615,20.07286736083752,20.178429426756935,20.154068592594456,20.09113798645938,0.022328565345743998,-0.10000000149011612,0.0,0.0,0.0,0.0,0.0,0.0,,,,,
pylon_camera_1771858959386891092.png,1771858959386891092,1771858959.3868911,42.30087526597581,-83.69793974450398,237.689453125,-0.012518854743297614,-0.9996722801941381,-0.007399633092561143,-0.02106788830102999,0.022810000000000004,0.027010000000000003,-0.0034000000000000002,0.17900000000000002,1.3843,-9.2865,8.797103970423757,19.67859375559972,24.579999923706055,24.459999084472656,24.739999771118164,24.549999237060547,19.959186565648615,19.861744777783354,20.08910791694584,19.93482573148613,19.961216247965982,0.014361925241016711,-0.10000000149011612,0.0,0.0,0.0,0.0,0.0,0.0,,,,,
pylon_camera_1771858959437750757.png,1771858959437750757,1771858959.4377508,42.30087532733023,-83.69794826729058,237.6775360107422,-0.012384768083419428,-0.9996812624117106,-0.00748730867159367,-0.020686500702262658,-0.028460000000000003,0.006070000000000001,0.00855,-1.2957,1.2068,-8.5299,8.795672844083189,19.67539241184345,24.639999389648438,24.670000076293945,24.469999313354492,24.489999771118164,20.007906685188903,20.03226751935139,19.869865055837515,19.88610561194584,19.949036218080913,0.013907921148893816,-0.6000000238418579,0.0,0.0,0.0,0.0,0.0,0.0,,,,,
pylon_camera_1771858959479838663.png,1771858959479838663,1771858959.4798386,42.300875339150735,-83.69795040399806,237.67405700683594,-0.012226715753564099,-0.9996875971069203,-0.008010512572193984,-0.020274301487454335,-0.021910000000000002,0.01836,0.0039900000000000005,-0.3345,0.1638,-9.553700000000001,8.806885669383467,19.700474829270654,24.579999923706055,24.729999542236328,24.279998779296875,24.44999885559082,19.959186565648615,20.08098763889168,19.71558287037781,19.853624499729197,19.902345393661825,0.010246989787841838,-1.600000023841858,0.0,0.0,0.0,0.0,0.0,0.0,,,,,
pylon_camera_1771858959538986336.png,1771858959538986336,1771858959.5389862,42.300875388771715,-83.69795893231002,237.65625,-0.012172088081739307,-0.9996900559625095,-0.008127768876682854,-0.020138809659264675,-0.024200000000000003,0.005770000000000001,-0.00058,0.1568,-0.9991000000000001,-9.755,8.806832866139537,19.700356711582177,24.68000030517578,25.26999855041504,24.34000015258789,24.420000076293945,20.04038779740555,20.519471812323648,19.764304538702774,19.82926521435139,20.038357340695843,0.01715708167431044,-2.6000001430511475,0.0,0.0,40.0,0.0,0.0,0.0,,,,,
pylon_camera_1771858959589264750.png,1771858959589264750,1771858959.5892646,42.30087540167685,-83.69796320936621,237.65000915527344,-0.012093889352790932,-0.9996527628043105,-0.009548804303490956,-0.021375499863283128,-0.06783,-0.07922000000000001,-0.005930000000000001,0.678,0.7239,-11.5823,8.833984894300531,19.761094169456634,24.44999885559082,24.6299991607666,24.549999237060547,24.56999969482422,19.853624499729197,19.999786407134746,19.93482573148613,19.951066287594454,19.934825731486132,0.008791596282053223,-3.5,0.0,0.0,0.0,0.0,0.0,0.0,,,,,
pylon_camera_1771858959640059493.png,1771858959640059493,1771858959.6400595,42.30087541434263,-83.69796961619987,237.64712524414062,-0.01192664544238864,-0.9995906117859821,-0.011906535449949247,-0.02312138342307343,-0.09485000000000002,-0.037820000000000006,-0.01755,1.8669,1.8964,-9.431000000000001,8.798424321925875,19.68154730268887,24.559999465942383,24.469999313354492,24.760000228881836,24.459999084472656,19.94294600954029,19.869865055837515,20.10534847305416,19.861744777783354,19.94497607905383,0.013384556219773008,-3.200000047683716,0.0,0.0,0.0,0.0,0.0,0.0,,,,,
pylon_camera_1771858959690008754.png,1771858959690008754,1771858959.6900089,42.30087542604846,-83.69797174548005,237.6470184326172,-0.011869993792525346,-0.9995543301979052,-0.012261524527782508,-0.024492840713910086,0.0011800000000000003,-0.10158000000000002,0.017900000000000003,-3.2083000000000004,0.9697,-11.6584,8.783304022464417,19.647724100011555,24.549999237060547,24.59000015258789,24.69999885559082,24.51999855041504,19.93482573148613,19.967306843702776,20.056626804729195,19.910464897323646,19.967306069310435,0.016265597362429,-2.6000001430511475,0.0,0.0,0.0,0.0,0.0,0.0,,,,,
pylon_camera_1771858959741099313.png,1771858959741099313,1771858959.7410994,42.300875445123715,-83.69797601232507,237.6466827392578,-0.011965389151747496,-0.9995587324310664,-0.010864928655291607,-0.024922343560796787,0.06454000000000001,0.020260000000000004,-0.0036900000000000006,-1.9036000000000002,-0.9956,-8.012500000000001,8.739037375916897,19.548702267683545,24.619998931884766,24.6299991607666,24.549999237060547,24.510000228881836,19.99166612908058,19.999786407134746,19.93482573148613,19.902346168054162,19.957156108938904,0.020894166562175527,-2.4000000953674316,0.0,0.0,0.0,0.0,0.0,0.0,,,,,
pylon_camera_1771858959791196848.png,1771858959791196848,1771858959.7911968,42.30087551306956,-83.69798448771705,237.63583374023438,-0.012192891885428547,-0.9995844379119926,-0.010732334243729852,-0.02381390084208899,0.019760000000000003,0.04725000000000001,0.016390000000000002,0.2038,2.2439,-8.0962,8.732453686906009,19.533974950387528,24.56999969482422,24.6299991607666,24.739999771118164,24.479999542236328,19.951066287594454,19.999786407134746,20.08910791694584,19.87798533389168,19.97948648639168,0.022807008667496662,-2.4000000953674316,0.0,0.0,0.0,0.0,0.0,0.0,,,,,
pylon_camera_1771858959833051755.png,1771858959833051755,1771858959.8330517,42.30087554250341,-83.69798871425516,237.62742614746094,-0.012271502688556257,-0.9996326630169701,-0.010263555698508998,-0.021877126771800516,0.007160000000000001,0.07094,0.005000000000000001,0.9208000000000001,0.3793,-8.823400000000001,8.730382934044924,19.529342800482453,24.489999771118164,24.479999542236328,24.78999900817871,24.469999313354492,19.88610561194584,19.87798533389168,20.12970775843197,19.869865055837515,19.940915940026752,0.021074602650434864,-2.5,0.0,0.0,0.0,0.0,0.0,0.0,,,,,
pylon_camera_1771858959892113619.png,1771858959892113619,1771858959.8921137,42.30087559445324,-83.69799505276323,237.6132049560547,-0.012170413230823296,-0.9996689205995499,-0.010062958423010783,-0.02031420923635519,-0.015950000000000002,0.06870000000000001,-0.00524,0.2902,-2.1868000000000003,-10.0205,8.727586170419421,19.523086608058023,24.549999237060547,24.279998779296875,24.35999870300293,24.100000381469727,19.93482573148613,19.71558287037781,19.780543546026422,19.569422511756937,19.750093664911823,0.011627621257394036,-2.9000000953674316,0.0,0.0,0.0,0.0,0.0,0.0,,,,,
pylon_camera_1771858959933863375.png,1771858959933863375,1771858959.9338634,42.30087560980103,-83.6979992765113,237.60299682617188,-0.01221375242022471,-0.9996738932445106,-0.011681763299115699,-0.019143349325648568,-0.08537,0.05454000000000001,-0.003110000000000001,-0.20980000000000001,-2.6876,-9.010900000000001,8.737131301362993,19.544438493270935,24.389999389648438,24.350000381469727,24.329999923706055,24.40999984741211,19.804904380188905,19.772424816756935,19.756184260648617,19.821144936297227,19.78866459847292,0.012495938693049236,-2.799999952316284,0.0,0.0,0.0,0.0,0.0,0.0,,,,,
pylon_camera_1771858959993784946.png,1771858959993784946,1771858959.993785,42.300875604115085,-83.69800563903956,237.59210205078125,-0.012751796054195741,-0.9996218519870046,-0.014264887936563926,-0.019749878471023254,0.013700000000000002,-0.05639000000000001,-0.0041600000000000005,-1.1787,-1.1821000000000002,-13.299000000000001,8.757133660860225,19.589182571324674,24.40999984741211,24.399999618530273,24.469999313354492,24.329999923706055,19.821144936297227,19.813024658243066,19.869865055837515,19.756184260648617,19.815054727756607,0.011530453382091223,-1.899999976158142,0.0,0.0,0.0,0.0,0.0,0.0,,,,,
pylon_camera_1771858960036363051.png,1771858960036363051,1771858960.0363631,42.30087560532069,-83.6980077683334,237.5913543701172,-0.013045199104868899,-0.9996030319082112,-0.014774505510352176,-0.020132445632630752,-0.02731,-0.06262000000000001,0.045840000000000006,2.0125,4.0671,-6.6481,8.791331872781878,19.665681919500695,24.439998626708984,24.420000076293945,24.51999855041504,24.469999313354492,19.845504221675036,19.82926521435139,19.910464897323646,19.869865055837515,19.863774847296895,0.010073026127803317,-0.6000000238418579,0.0,0.0,0.0,0.0,0.0,0.0,,,,,
pylon_camera_1771858960087017336.png,1771858960087017336,1771858960.0870173,42.30087563597713,-83.69801414673326,237.59033203125,-0.013043500024650156,-0.9995806253234789,-0.013245646318389936,-0.022203455556232304,0.061930000000000006,-0.03449000000000001,0.004350000000000001,0.5518000000000001,2.0481000000000003,-9.3847,8.770038115516037,19.618049062122445,24.44999885559082,24.420000076293945,24.510000228881836,24.489999771118164,19.853624499729197,19.82926521435139,19.902346168054162,19.88610561194584,19.867835373520148,0.012732474600646075,0.800000011920929,0.0,0.0,0.0,0.0,0.0,0.0,,,,,
pylon_camera_1771858960137506265.png,1771858960137506265,1771858960.1375062,42.300875697255556,-83.69802052349297,237.59031677246094,-0.012877351813481541,-0.9995555267037382,-0.011814063212828286,-0.0241526552719964,0.02415,-0.014430000000000002,-3e-05,-0.4869,0.8201,-9.1361,8.75257656525904,19.57898862189056,24.459999084472656,24.549999237060547,24.549999237060547,24.489999771118164,19.861744777783354,19.93482573148613,19.93482573148613,19.88610561194584,19.904375463175363,0.0166191853710462,1.0,0.0,0.0,0.0,0.0,0.0,0.0,,,,,
pylon_camera_1771858960195695596.png,1771858960195695596,1771858960.1956956,42.30087575922614,-83.69802688366833,237.5853729248047,-0.012559647561221299,-0.9995453216550809,-0.012006930981264019,-0.024642216194771634,-0.04118,0.006660000000000001,-0.013060000000000002,-0.2859,-0.1821,-8.566600000000001,8.73832583134942,19.54711058517877,24.51999855041504,24.479999542236328,24.479999542236328,24.510000228881836,19.910464897323646,19.87798533389168,19.87798533389168,19.902346168054162,19.89219543329029,0.017654008074890253,0.0,0.0,0.0,0.0,0.0,0.0,0.0,,,,,
pylon_camera_1771858960246861540.png,1771858960246861540,1771858960.2468615,42.30087579171514,-83.69803111217024,237.5788116455078,-0.012319730033294007,-0.9995473830677353,-0.012520260970477445,-0.024423274137178385,-0.017570000000000002,0.03248,-0.008610000000000001,-0.8213,-0.0716,-8.5134,8.726486894058382,19.52062759279496,24.51999855041504,24.5,24.479999542236328,24.439998626708984,19.910464897323646,19.89422589,19.87798533389168,19.845504221675036,19.88204508572259,0.01851464514701521,-0.6000000238418579,0.0,0.0,0.0,0.0,0.0,0.0,,,,,
pylon_camera_1771858960288484386.png,1771858960288484386,1771858960.2884843,42.30087583520839,-83.69803745757727,237.56715393066406,-0.012127001125128933,-0.9995564438394385,-0.012674472336596604,-0.024066764920841404,0.005470000000000001,0.018280000000000005,-0.008110000000000001,-1.3475000000000001,0.8092,-9.8972,8.728938803698286,19.526112367544844,24.479999542236328,24.44999885559082,24.51999855041504,24.529998779296875,19.87798533389168,19.853624499729197,19.910464897323646,19.91858517537781,19.890164976580586,0.018644397931502674,-0.30000001192092896,0.0,0.0,0.0,0.0,0.0,0.0,,,,,
pylon_camera_1771858960339910410.png,1771858960339910410,1771858960.3399105,42.30087584892373,-83.69803957550164,237.56329345703125,-0.011946807510089363,-0.999578976534824,-0.012210071168115864,-0.0234533072716949,0.027120000000000005,0.03046,-0.008520000000000002,0.1827,0.15760000000000002,-8.9369,8.734896800364448,19.539440048607247,24.51999855041504,24.489999771118164,24.51999855041504,24.439998626708984,19.910464897323646,19.88610561194584,19.910464897323646,19.845504221675036,19.88813490706704,0.017845693509760972,0.4000000059604645,0.0,0.0,0.0,0.0,0.0,0.0,,,,,
pylon_camera_1771858960389739453.png,1771858960389739453,1771858960.3897395,42.300875893052584,-83.6980459175013,237.55001831054688,-0.01177998666805885,-0.9996065412383706,-0.011698042426336475,-0.02260863620286823,0.01617,0.044660000000000005,-0.006210000000000001,0.37970000000000004,0.0262,-9.995000000000001,8.728659468909282,19.52548751238193,24.529998779296875,24.479999542236328,24.559999465942383,24.51999855041504,19.91858517537781,19.87798533389168,19.94294600954029,19.910464897323646,19.912495354033357,0.019820649364376195,0.5,0.0,0.0,0.0,0.0,0.0,0.0,,,,,
pylon_camera_1771858960440689452.png,1771858960440689452,1771858960.4406893,42.300875934577554,-83.69805225325847,237.53639221191406,-0.011643490353245467,-0.9996312253406943,-0.011540174204441995,-0.021648714409565433,-0.0026800000000000005,0.027340000000000003,-0.005540000000000001,0.186,0.28450000000000003,-10.1084,8.731534591076032,19.53191898816162,24.529998779296875,24.5,24.579999923706055,24.439998626708984,19.91858517537781,19.89422589,19.959186565648615,19.845504221675036,19.904375463175366,0.019069118361564615,0.4000000059604645,0.0,0.0,0.0,0.0,0.0,0.0,,,,,
pylon_camera_1771858960490717766.png,1771858960490717766,1771858960.4907176,42.30087597632634,-83.69805859233354,237.5244598388672,-0.01149669714331375,-0.9996448878912971,-0.011420480821321282,-0.021154117457387774,0.01081,0.018770000000000002,-0.00795,-0.023100000000000002,-0.2315,-10.3185,8.7288060930782,19.52581550185035,24.35999870300293,24.5,24.51999855041504,24.439998626708984,19.780543546026422,19.89422589,19.910464897323646,19.845504221675036,19.857684638756275,0.016996429003156184,0.4000000059604645,0.0,0.0,0.0,0.0,0.0,0.0,,,,,
pylon_camera_1771858960541500182.png,1771858960541500182,1771858960.5415,42.30087600549812,-83.6980628134271,237.51708984375,-0.01132280006463271,-0.9996609595586055,-0.011007851248509642,-0.020702351169738193,0.02023,0.012400000000000001,-0.010270000000000001,-0.2083,-0.5145000000000001,-10.7407,8.725092203080377,19.517507752758622,24.34000015258789,24.389999389648438,24.439998626708984,24.549999237060547,19.764304538702774,19.804904380188905,19.845504221675036,19.93482573148613,19.83738471801321,0.016389232134895817,0.4000000059604645,0.0,0.0,0.0,0.0,0.0,0.0,,,,,
pylon_camera_1771858960591652944.png,1771858960591652944,1771858960.5916529,42.30087604343267,-83.69806915429537,237.50845336914062,-0.011157596718895768,-0.9996711609111124,-0.010799382541914381,-0.020407141269684296,0.010230000000000003,0.006870000000000001,-0.008050000000000002,-0.13720000000000002,-0.2768,-10.914200000000001,8.731036356429433,19.530804467151256,24.35999870300293,24.399999618530273,24.399999618530273,24.35999870300293,19.780543546026422,19.813024658243066,19.813024658243066,19.780543546026422,19.796784102134744,0.013618467965865785,0.4000000059604645,0.0,0.0,0.0,0.0,0.0,0.0,,,,,
pylon_camera_1771858960642640572.png,1771858960642640572,1771858960.6426406,42.30087606546812,-83.6980733924068,237.5045928955078,-0.011003421739716468,-0.9996725785995263,-0.010632929274343207,-0.020508562144591715,0.01819,-0.00992,-0.009750000000000002,-0.0776,-0.07740000000000001,-10.3886,8.733682441188575,19.536723599992374,24.309999465942383,24.35999870300293,24.44999885559082,24.479999542236328,19.73994370454029,19.780543546026422,19.853624499729197,19.87798533389168,19.8130242710469,0.014142630909444441,0.4000000059604645,0.0,0.0,0.0,0.0,0.0,0.0,,,,,
pylon_camera_1771858960692622325.png,1771858960692622325,1771858960.6926224,42.30087609500986,-83.69807974853059,237.49978637695312,-0.010847407453387858,-0.9996693187742665,-0.01035992510886818,-0.020886809346396657,0.012270000000000001,-0.030190000000000005,-0.00859,-0.41550000000000004,0.1709,-10.1315,8.735342482765658,19.540437013397813,24.350000381469727,24.389999389648438,24.399999618530273,24.459999084472656,19.772424816756935,19.804904380188905,19.813024658243066,19.861744777783354,19.813024658243066,0.013949925718567806,0.4000000059604645,0.0,0.0,0.0,0.0,0.0,0.0,,,,,
pylon_camera_1771858960743920354.png,1771858960743920354,1771858960.7439203,42.300876114717745,-83.69808398636061,237.4967041015625,-0.010691206177817825,-0.9996634738568309,-0.010287256461932081,-0.021279320981716733,-0.0006600000000000001,-0.02009,-0.009210000000000001,-0.4118,0.08940000000000001,-9.6823,8.730951198314491,19.53061397355762,24.399999618530273,24.559999465942383,24.350000381469727,24.40999984741211,19.813024658243066,19.94294600954029,19.772424816756935,19.821144936297227,19.837385105209382,0.01570719343831671,0.30000001192092896,0.0,0.0,0.0,0.0,0.0,0.0,,,,,
pylon_camera_1771858960793357516.png,1771858960793357516,1771858960.7933576,42.30087614747055,-83.69809244858938,237.489013671875,-0.010509807651224168,-0.9996606708863998,-0.010417741989114555,-0.02143729642318973,-0.010140000000000001,0.0007300000000000002,-0.00461,-0.46740000000000004,0.09860000000000001,-8.9505,8.715437861311404,19.495911569481933,24.369998931884766,24.420000076293945,24.3799991607666,24.479999542236328,19.78866382408058,19.82926521435139,19.796784102134744,19.87798533389168,19.823174618614598,0.016786239923500066,0.30000001192092896,0.0,0.0,0.0,0.0,0.0,0.0,,,,,
pylon_camera_1771858960844433033.png,1771858960844433033,1771858960.844433,42.3008761535947,-83.69809456174589,237.48678588867188,-0.010277065734202673,-0.9996671199597055,-0.010642857128480326,-0.02113671647880367,-0.012550000000000002,0.01932,-0.008100000000000001,-0.5592,0.2816,-10.1404,8.702257473143737,19.46642783197415,24.3799991607666,24.35999870300293,24.35999870300293,24.439998626708984,19.796784102134744,19.780543546026422,19.780543546026422,19.845504221675036,19.800843853965656,0.017179116008239428,0.30000001192092896,0.0,0.0,0.0,0.0,0.0,0.0,,,,,
pylon_camera_1771858960894199112.png,1771858960894199112,1771858960.8941991,42.30087617487592,-83.69810089682095,237.4800262451172,-0.009985274129331423,-0.9996774416461817,-0.01074072301202109,-0.020735087014188032,-0.007070000000000001,0.01806,-0.009670000000000002,-0.6731,0.11080000000000001,-9.9718,8.696066230393017,19.452578393415354,24.35999870300293,24.35999870300293,24.40999984741211,24.5,19.780543546026422,19.780543546026422,19.821144936297227,19.89422589,19.81911447958752,0.01884254512482705,0.20000000298023224,0.0,0.0,0.0,0.0,0.0,0.0,,,,,
pylon_camera_1771858960945247983.png,1771858960945247983,1771858960.945248,42.30087618387741,-83.69810511770744,237.47537231445312,-0.00968089521745924,-0.9996878673293578,-0.010894504955573689,-0.020291819633583206,-0.01693,0.013240000000000002,-0.011200000000000002,-0.7488,-0.22560000000000002,-10.2688,8.691385973238475,19.442108938976077,24.309999465942383,24.329999923706055,24.3799991607666,24.399999618530273,19.73994370454029,19.756184260648617,19.796784102134744,19.813024658243066,19.77648418139168,0.017198506780572213,0.20000000298023224,0.0,0.0,0.0,0.0,0.0,0.0,,,,,
pylon_camera_1771858960994845336.png,1771858960994845336,1771858960.9948454,42.300876195512025,-83.69811144680656,237.46820068359375,-0.009380938026682717,-0.9996983214596833,-0.011155665928298947,-0.01976904626246472,-0.011710000000000002,0.014680000000000002,-0.010090000000000002,-0.4318,0.42550000000000004,-9.43,8.688886023217426,19.43651670077599,24.329999923706055,24.309999465942383,24.35999870300293,24.35999870300293,19.756184260648617,19.73994370454029,19.780543546026422,19.780543546026422,19.764303764310437,0.016864496276812864,-0.10000000149011612,0.0,0.0,0.0,0.0,0.0,0.0,,,,,
pylon_camera_1771858961045902868.png,1771858961045902868,1771858961.0459027,42.30087619759883,-83.69811355655465,237.46578979492188,-0.009108660510500577,-0.9997077788305242,-0.011201720521663398,-0.019388416820327724,-0.00109,0.008690000000000002,-0.01238,-0.596,0.1512,-10.1807,8.685024954630034,19.42787972201011,24.229999542236328,24.279998779296875,24.34000015258789,24.309999465942383,19.67498302889168,19.71558287037781,19.764304538702774,19.73994370454029,19.72370353562814,0.015226767812592827,-0.30000001192092896,0.0,0.0,0.0,0.0,0.0,0.0,,,,,
pylon_camera_1771858961096449051.png,1771858961096449051,1771858961.0964491,42.30087622229042,-83.69812831363699,237.44981384277344,-0.008877227842983781,-0.999715216228392,-0.011146061903728941,-0.019142794239120145,0.013820000000000002,0.006980000000000001,-0.012370000000000003,-0.5717,1.1934,-10.023,8.685696200832249,19.42938125948969,24.28999900817871,24.329999923706055,24.25,24.279998779296875,19.72370314843197,19.756184260648617,19.691223585,19.71558287037781,19.721673466114602,0.01504382474774638,-0.5,0.0,0.0,0.0,0.0,0.0,0.0,,,,,
pylon_camera_1771858961147489471.png,1771858961147489471,1771858961.1474895,42.30087622229042,-83.69812831363699,237.44981384277344,-0.008468940086406751,-0.9997272941541985,-0.010633038017392732,-0.018988230024374577,0.02049,-0.0025800000000000003,-0.017880000000000004,0.158,0.0287,-9.9558,8.687701917460512,19.43386792724412,24.25,24.299999237060547,24.329999923706055,24.34000015258789,19.691223585,19.73182342648613,19.756184260648617,19.764304538702774,19.73588395270938,0.01554070587470996,-1.0,0.0,0.0,0.0,0.0,0.0,0.0,,,,,
pylon_camera_1771858961197090007.png,1771858961197090007,1771858961.1970901,42.30087622186176,-83.69813252989007,237.44659423828125,-0.008187648889366184,-0.9997311111097591,-0.010777684928872197,-0.018828419808490038,-0.020550000000000002,0.0101,-0.009260000000000001,-0.2462,0.1287,-9.945300000000001,8.668823177498629,19.391637318673784,24.239999771118164,24.189998626708984,24.26999855041504,24.34000015258789,19.68310330694584,19.642501916675034,19.707462592323647,19.764304538702774,19.699343088661823,0.015867962304128132,-1.7000000476837158,0.0,0.0,0.0,0.0,0.0,0.0,,,,,
pylon_camera_1771858961257122689.png,1771858961257122689,1771858961.2571228,42.30087620992851,-83.69813884025194,237.4424591064453,-0.007910366733263341,-0.9997304906873165,-0.011750579727716388,-0.018392823717562297,-0.03645000000000001,0.0038500000000000006,-0.005770000000000001,-0.1789,0.308,-10.2803,8.663821217306937,19.380448233842582,24.18000030517578,24.26999855041504,24.260000228881836,24.219999313354492,19.63438318740555,19.707462592323647,19.69934386305416,19.666862750837517,19.67701309840522,0.015302270669094654,-2.6000001430511475,0.0,0.0,0.0,0.0,0.0,0.0,,,,,
pylon_camera_1771858961298376020.png,1771858961298376020,1771858961.2983758,42.30087620483922,-83.69814094141626,237.44129943847656,-0.00782104882427398,-0.9997282736712381,-0.012131765197952341,-0.018303832680522134,-0.022730000000000004,0.007690000000000001,-0.005610000000000001,-0.36660000000000004,-0.20500000000000002,-10.0653,8.658074380867902,19.367592905538647,24.229999542236328,24.18000030517578,24.25,24.28999900817871,19.67498302889168,19.63438318740555,19.691223585,19.72370314843197,19.6810732374323,0.01618581789810372,-2.9000000953674316,0.0,0.0,0.0,0.0,0.0,0.0,,,,,
pylon_camera_1771858961349419235.png,1771858961349419235,1771858961.3494194,42.30087618422764,-83.69814725429039,237.43899536132812,-0.007702113491137197,-0.9997198577627269,-0.01249049376039422,-0.018570702955582857,-0.006660000000000001,-0.020360000000000003,-0.00632,-0.3645,0.1368,-10.0512,8.668225170261186,19.39029961236406,24.209999084472656,24.209999084472656,24.170000076293945,24.19999885559082,19.658742472783356,19.658742472783356,19.626262909351386,19.650622194729195,19.648592512411824,0.013320727642757263,-3.200000047683716,0.0,0.0,0.0,0.0,0.0,0.0,,,,,
pylon_camera_1771858961399848401.png,1771858961399848401,1771858961.3998485,42.30087617044888,-83.69815147037679,237.4382781982422,-0.007641069945658219,-0.9997069257755684,-0.012481657747486337,-0.019284315552336503,0.0043100000000000005,-0.030630000000000004,-0.0010500000000000002,-0.7446,0.5484,-9.487300000000001,8.668896806055487,19.391802021337764,24.229999542236328,24.18000030517578,24.25,24.170000076293945,19.67498302889168,19.63438318740555,19.691223585,19.626262909351386,19.656713177662155,0.013660987051791083,-3.200000047683716,0.0,0.0,0.0,0.0,0.0,0.0,,,,,
pylon_camera_1771858961459459607.png,1771858961459459607,1771858961.4594595,42.30087615372933,-83.69815988832013,237.43431091308594,-0.007491498047559719,-0.9996986301103077,-0.012177187341423638,-0.01995601465797337,0.009370000000000002,-0.010990000000000003,-0.0033900000000000007,-0.6987,0.30510000000000004,-9.7721,8.655384117911447,19.361574948720836,24.19999885559082,24.1299991607666,24.189998626708984,24.189998626708984,19.650622194729195,19.593781797134746,19.642501916675034,19.642501916675034,19.632351956303502,0.013985277969370737,-3.6000001430511475,0.0,0.0,0.0,0.0,0.0,0.0,,,,,
pylon_camera_1771858961499921066.png,1771858961499921066,1771858961.499921,42.300876144090445,-83.69816619311014,237.4293212890625,-0.007435080862548182,-0.9996997048361203,-0.012003327053031507,-0.0200284762974937,0.007470000000000001,-0.00039000000000000005,-0.0048600000000000015,-0.45470000000000005,-0.1956,-8.7318,8.651267479747261,19.35236627614584,24.19999885559082,24.19999885559082,24.219999313354492,24.209999084472656,19.650622194729195,19.650622194729195,19.666862750837517,19.658742472783356,19.656712403269815,0.01572655884976289,-4.099999904632568,0.0,0.0,0.0,0.0,0.0,0.0,,,,,
pylon_camera_1771858961550940711.png,1771858961550940711,1771858961.5509408,42.300876134309426,-83.69817039400992,237.426513671875,-0.007376103260517908,-0.9996979199570966,-0.01238173535622095,-0.019908655497368633,-0.023360000000000006,0.006260000000000001,0.0031500000000000005,-0.3171,0.5012,-9.8454,8.640006949659076,19.327177145970374,24.25,24.229999542236328,24.25,24.260000228881836,19.691223585,19.67498302889168,19.691223585,19.69934386305416,19.68919351548646,0.01873094900418827,-5.0,0.0,0.0,0.0,0.0,0.0,0.0,,,,,
pylon_camera_1771858961600629790.png,1771858961600629790,1771858961.6006298,42.30087612232236,-83.69817668641467,237.4230499267578,-0.007391355143480938,-0.9996989773422092,-0.012598390337068879,-0.019713019327317716,-0.00817,0.0015500000000000002,0.004350000000000001,-0.314,0.6989000000000001,-10.136800000000001,8.63625822327168,19.318791469965355,24.239999771118164,24.170000076293945,24.299999237060547,24.209999084472656,19.68310330694584,19.626262909351386,19.73182342648613,19.658742472783356,19.674983028891678,0.01843756942457238,-5.5,0.0,0.0,0.0,0.0,0.0,0.0,,,,,
pylon_camera_1771858961660365315.png,1771858961660365315,1771858961.6603653,42.300876111506064,-83.69818088116534,237.42091369628906,-0.007511158873241386,-0.9997065785392444,-0.012309279689153588,-0.019463323233015316,0.0055000000000000005,0.007420000000000001,0.011340000000000001,-0.49920000000000003,0.5363,-9.8367,8.628784766669355,19.302073795953348,24.149999618530273,24.1299991607666,24.28999900817871,24.170000076293945,19.610022353243064,19.593781797134746,19.72370314843197,19.626262909351386,19.63844255204029,0.017426560464060607,-5.700000286102295,0.0,0.0,0.0,0.0,0.0,0.0,,,,,
pylon_camera_1771858961701617499.png,1771858961701617499,1771858961.7016175,42.300876103411404,-83.69818507384498,237.41839599609375,-0.00768547591757518,-0.999715381243963,-0.012017942424749975,-0.019122212843537864,0.01093,0.02101,0.01093,-0.3587,-0.183,-9.5579,8.626097897057111,19.296063429842935,24.28999900817871,24.1299991607666,24.279998779296875,24.100000381469727,19.72370314843197,19.593781797134746,19.71558287037781,19.569422511756937,19.650622581925365,0.018374688359184994,-5.700000286102295,0.0,0.0,0.0,0.0,0.0,0.0,,,,,
pylon_camera_1771858961761228813.png,1771858961761228813,1771858961.7612288,42.30087609099826,-83.69818927086038,237.415771484375,-0.008038441359919268,-0.9997173908918104,-0.012159136661283876,-0.018779701931247058,-0.01958,0.012290000000000002,0.013870000000000002,-0.23070000000000002,-0.61,-9.2222,8.633180371217785,19.311906499591913,24.28999900817871,24.219999313354492,24.260000228881836,24.139999389648438,19.72370314843197,19.666862750837517,19.69934386305416,19.601902075188907,19.67295295937814,0.018695536859287105,-5.599999904632568,0.0,0.0,0.0,0.0,0.0,0.0,,,,,
pylon_camera_1771858961811995007.png,1771858961811995007,1771858961.8119948,42.300876068549194,-83.69819765210514,237.40802001953125,-0.008590877636405259,-0.999716225100302,-0.012864104039885466,-0.018115764402573627,-0.00591,0.0357,0.017780000000000004,-0.4183,0.3541,-9.7576,8.617915663754975,19.277760264880055,24.170000076293945,24.18000030517578,24.19999885559082,24.15999984741211,19.626262909351386,19.63438318740555,19.650622194729195,19.618142631297225,19.63235273069584,0.018393862198907818,-5.599999904632568,0.0,0.0,0.0,0.0,0.0,0.0,,,,,
pylon_camera_1771858961854229314.png,1771858961854229314,1771858961.8542292,42.30087606343831,-83.69820184103763,237.40399169921875,-0.008796826750345155,-0.9997261113041328,-0.012637176992289546,-0.017624414132295055,0.025880000000000004,0.034120000000000004,0.008450000000000001,-0.3679,0.5422,-10.0084,8.612849328138411,19.26642717608594,24.229999542236328,24.100000381469727,24.18000030517578,24.149999618530273,19.67498302889168,19.569422511756937,19.63438318740555,19.610022353243064,19.622202770324307,0.018466090831826133,-5.5,0.0,0.0,0.0,0.0,0.0,0.0,,,,,
pylon_camera_1771858961903939276.png,1771858961903939276,1771858961.9039392,42.30087606258898,-83.69820602794393,237.40061950683594,-0.009086581552778972,-0.9997373009392114,-0.012444096360506866,-0.01696784052953901,0.00525,0.01631,0.00909,0.2817,0.3653,-10.801400000000001,8.626004552728155,19.29585462417972,24.18000030517578,24.059999465942383,24.209999084472656,24.10999870300293,19.63438318740555,19.53694139954029,19.658742472783356,19.57754124102642,19.601902075188907,0.015860787561369563,-5.300000190734863,0.0,0.0,0.0,0.0,0.0,0.0,,,,,
pylon_camera_1771858961954367054.png,1771858961954367054,1771858961.954367,42.300876058515904,-83.69821231556645,237.39784240722656,-0.009386789820944652,-0.9997277874240065,-0.01278896870191297,-0.017107937008865072,0.005770000000000001,-0.013590000000000001,0.004380000000000001,-0.0405,0.0094,-10.7293,8.630473695498953,19.30585182840943,24.1299991607666,24.029998779296875,24.26999855041504,24.18000030517578,19.593781797134746,19.51258056537781,19.707462592323647,19.63438318740555,19.61205203556044,0.01586048675150508,-5.099999904632568,0.0,0.0,0.0,0.0,0.0,0.0,,,,,
pylon_camera_1771858962013578994.png,1771858962013578994,1771858962.013579,42.30087605663962,-83.69821860355118,237.3972930908203,-0.00961477746171141,-0.9997156594352337,-0.01316589060498772,-0.01740159932061719,0.004750000000000001,-0.012930000000000002,0.0025700000000000007,0.0344,0.6049,-9.7134,8.627927405210976,19.30015592981264,24.19999885559082,24.100000381469727,24.229999542236328,24.139999389648438,19.650622194729195,19.569422511756937,19.67498302889168,19.601902075188907,19.62423245264168,0.016791394018140875,-4.900000095367432,0.0,0.0,0.0,0.0,0.0,0.0,,,,,
pylon_camera_1771858962065770935.png,1771858962065770935,1771858962.065771,42.30087605642781,-83.69822069753924,237.39744567871094,-0.00979969251406787,-0.9997165398588896,-0.012967843933622415,-0.017396579632564423,0.011640000000000001,0.01068,0.0024100000000000002,-0.6906,-0.4086,-9.2469,8.610701708028419,19.261623078757093,24.279998779296875,24.149999618530273,24.119998931884766,24.209999084472656,19.71558287037781,19.610022353243064,19.58566151908058,19.658742472783356,19.6425023038712,0.019773994307580662,-4.900000095367432,0.0,0.0,0.0,0.0,0.0,0.0,,,,,
pylon_camera_1771858962106285375.png,1771858962106285375,1771858962.1062853,42.30087606094221,-83.69822697435127,237.39608764648438,-0.009923699661949947,-0.9997183254363522,-0.013240634449521312,-0.017013981636555695,-0.025960000000000004,0.025660000000000002,0.010910000000000001,0.021,0.6585000000000001,-8.845500000000001,8.609490595435982,19.258913892554567,24.139999389648438,24.100000381469727,24.209999084472656,24.15999984741211,19.601902075188907,19.569422511756937,19.658742472783356,19.618142631297225,19.612052422756605,0.018336367885136057,-4.700000286102295,0.0,0.0,0.0,0.0,0.0,0.0,,,,,
pylon_camera_1771858962157044524.png,1771858962157044524,1771858962.1570444,42.30087606081704,-83.69823115666736,237.39459228515625,-0.010065267094512054,-0.9997164614566088,-0.01359431979701937,-0.016759521480326743,-0.01195,0.008640000000000002,0.005650000000000001,-0.4116,0.5947,-10.7715,8.60759319906826,19.254669530723756,24.119998931884766,24.06999969482422,24.18000030517578,24.139999389648438,19.58566151908058,19.54506167759445,19.63438318740555,19.601902075188907,19.59175211481737,0.017506536975654054,-4.599999904632568,0.0,0.0,0.0,0.0,0.0,0.0,,,,,
pylon_camera_1771858962206722288.png,1771858962206722288,1771858962.2067223,42.300876063935355,-83.69823743431931,237.39260864257812,-0.010102269549064014,-0.9997177924889965,-0.013482880749728133,-0.016747879196315086,-0.0025900000000000003,-0.014220000000000002,0.0007100000000000001,-0.8431000000000001,-0.5039,-10.1334,8.611804504423137,19.264089968124296,24.10999870300293,24.059999465942383,24.139999389648438,24.15999984741211,19.57754124102642,19.53694139954029,19.601902075188907,19.618142631297225,19.58363183676321,0.016587436477282388,-4.599999904632568,0.0,0.0,0.0,0.0,0.0,0.0,,,,,
pylon_camera_1771858962257150430.png,1771858962257150430,1771858962.2571504,42.30087606522131,-83.69824580217507,237.38937377929688,-0.010126617724019071,-0.999718195996737,-0.013518693493116938,-0.01668008191648079,-0.020810000000000002,0.00177,0.0020800000000000003,-0.6382,-0.9253,-8.5005,8.610224234453339,19.260554999018055,24.079999923706055,24.06999969482422,24.119998931884766,24.149999618530273,19.553181955648615,19.54506167759445,19.58566151908058,19.610022353243064,19.57348187639168,0.01624703324434718,-4.599999904632568,0.0,0.0,0.0,0.0,0.0,0.0,,,,,
pylon_camera_1771858962307631430.png,1771858962307631430,1771858962.3076313,42.30087606493729,-83.69824788992256,237.38819885253906,-0.010153845466928269,-0.9997092642822207,-0.014390655124129027,-0.01646801067624845,-0.03159000000000001,0.014040000000000002,9e-05,-0.4384,-0.3478,-10.120000000000001,8.606119590332158,19.25137315639762,24.059999465942383,24.029998779296875,24.100000381469727,24.09000015258789,19.53694139954029,19.51258056537781,19.569422511756937,19.561302233702776,19.545061677594454,0.015255458341122847,-4.300000190734863,0.0,0.0,0.0,0.0,0.0,0.0,,,,,
pylon_camera_1771858962358353472.png,1771858962358353472,1771858962.3583534,42.30087605418904,-83.69825416204633,237.38494873046875,-0.010174153220970927,-0.999695364780262,-0.015412381553965366,-0.01637445382082018,-0.0216,-0.016010000000000003,-0.0038300000000000005,-0.0279,-0.17350000000000002,-10.7225,8.612993858797298,19.26675048249803,23.969999313354492,24.029998779296875,24.10999870300293,24.15999984741211,19.463860445837515,19.51258056537781,19.57754124102642,19.618142631297225,19.543031220884743,0.01433976832978076,-4.099999904632568,0.0,0.0,0.0,0.0,0.0,0.0,,,,,
