image_filename,timestamp_ns,timestamp_sec,latitude,longitude,altitude,orientation_x,orientation_y,orientation_z,orientation_w,angular_velocity_x,angular_velocity_y,angular_velocity_z,linear_acceleration_x,linear_acceleration_y,linear_acceleration_z,vehicle_speed_mps,vehicle_speed_mph,wheel_speed_fl_rads,wheel_speed_fr_rads,wheel_speed_rl_rads,wheel_speed_rr_rads,wheel_speed_fl_mph,wheel_speed_fr_mph,wheel_speed_rl_mph,wheel_speed_rr_mph,avg_wheel_speed_mph,wheel_slip,steering_angle_deg,throttle_pedal,brake_pedal,brake_torque_actual,abs_active,esc_active,trac_active,marwis_road_condition,marwis_friction,marwis_surface_temp_c,marwis_ice_percent,marwis_water_film_height
pylon_camera_1771860932821067234.png,1771860932821067234,1771860932.8210673,42.30020361783891,-83.69861622631201,236.52413940429688,-0.6889019067201227,-0.7247420867387181,0.012667712204913993,-0.0016123568094806343,-0.0014200000000000003,-0.0012700000000000003,-0.00027000000000000006,-0.19460000000000002,-0.0988,-9.7703,0.003242961385568257,0.007254310041833057,0.0,0.0,0.0,0.0,0.0,0.0,0.0,0.0,0.0,0.0,-0.800000011920929,0.0,4072.0,4256.0,0.0,0.0,0.0,,,,,
pylon_camera_1771860932828662976.png,1771860932828662976,1771860932.828663,42.30020361783891,-83.69861622631201,236.52413940429688,-0.6889019067201227,-0.7247420867387181,0.012667712204913993,-0.0016123568094806343,-0.0014200000000000003,-0.0012700000000000003,-0.00027000000000000006,-0.19460000000000002,-0.0988,-9.7703,0.003242961385568257,0.007254310041833057,0.0,0.0,0.0,0.0,0.0,0.0,0.0,0.0,0.0,0.0,-0.800000011920929,0.0,4072.0,4256.0,0.0,0.0,0.0,,,,,
pylon_camera_1771860932884021230.png,1771860932884021230,1771860932.8840213,42.30020361783891,-83.69861622631201,236.52413940429688,-0.6888741447124852,-0.7247684027280006,0.012681265279162617,-0.0015364454640950118,0.00019000000000000004,0.0008800000000000001,-0.0009300000000000002,-0.1806,-0.2074,-9.7951,-0.0023272288892274475,0.005205871391468447,0.0,0.0,0.0,0.0,0.0,0.0,0.0,0.0,0.0,0.0,-0.699999988079071,0.0,3764.0,4180.0,0.0,0.0,0.0,,,,,
pylon_camera_1771860932934793029.png,1771860932934793029,1771860932.934793,42.3002036122892,-83.69861621915369,236.52354431152344,-0.6888806658913988,-0.7247625078737051,0.012664406776683786,-0.0015323650462891333,-0.00033000000000000005,-0.00024,0.0006300000000000001,-0.1516,-0.20620000000000002,-9.803,-0.0012209503608033576,0.002731192700095463,0.0,0.0,0.0,0.0,0.0,0.0,0.0,0.0,0.0,0.0,-0.800000011920929,0.0,3568.0,4044.0,0.0,0.0,0.0,,,,,
pylon_camera_1771860932985225547.png,1771860932985225547,1771860932.9852254,42.30020361144706,-83.69861621852598,236.52346801757812,-0.6888890586268377,-0.7247543711142407,0.01267723097357402,-0.001501422616531285,0.0014700000000000002,-0.00021000000000000004,0.0008100000000000001,-0.14500000000000002,-0.1958,-9.811300000000001,0.0008265456250034039,0.0018489329703951145,0.0,0.0,0.0,0.0,0.0,0.0,0.0,0.0,0.0,0.0,-0.800000011920929,0.0,3396.0,3676.0,0.0,0.0,0.0,,,,,
pylon_camera_1771860933030078913.png,1771860933030078913,1771860933.030079,42.30020361090909,-83.69861621846675,236.52333068847656,-0.6888883365501642,-0.7247550473553006,0.012677972218624697,-0.0015000395285475877,-0.00075,-0.00124,0.0014000000000000002,-0.1456,-0.17980000000000002,-9.8374,0.002177788652754608,0.004871582548892893,0.0,0.0,0.0,0.0,0.0,0.0,0.0,0.0,0.0,0.0,-0.800000011920929,0.0,3396.0,3592.0,0.0,0.0,0.0,,,,,
pylon_camera_1771860933077069139.png,1771860933077069139,1771860933.077069,42.30020361121119,-83.6986162186318,236.5233154296875,-0.6888842277865139,-0.7247593285012136,0.012648762607753352,-0.0015637333344386388,-0.0037300000000000002,-0.0014000000000000002,-0.00024,-0.16870000000000002,-0.152,-9.8475,0.002785324781022726,0.006230604415660978,0.0,0.0,0.0,0.0,0.0,0.0,0.0,0.0,0.0,0.0,-0.699999988079071,0.0,3396.0,3392.0,0.0,0.0,0.0,,,,,
pylon_camera_1771860933128169105.png,1771860933128169105,1771860933.1281693,42.300203611581956,-83.69861621837333,236.52334594726562,-0.688889933851446,-0.7247537706488377,0.012649926552073351,-0.0016156505405409886,-0.00096,-0.00109,0.00026000000000000003,-0.22260000000000002,-0.1405,-9.832500000000001,0.002181045921514982,0.004878868863673724,0.0,0.0,0.0,0.0,0.0,0.0,0.0,0.0,0.0,0.0,-0.30000001192092896,0.0,3396.0,3372.0,0.0,0.0,0.0,,,,,
pylon_camera_1771860933178269510.png,1771860933178269510,1771860933.1782694,42.30020361083587,-83.69861621700082,236.52337646484375,-0.6888845736889406,-0.724757832427697,0.0127120686660705,-0.001591156290840351,0.0033000000000000004,-9e-05,-0.0006100000000000001,-0.3059,-0.10940000000000001,-9.7979,-0.0012866939364939765,0.002878257134300836,0.0,0.0,0.0,0.0,0.0,0.0,0.0,0.0,0.0,0.0,0.0,0.0,3396.0,3352.0,0.0,0.0,0.0,,,,,
pylon_camera_1771860933237958220.png,1771860933237958220,1771860933.2379582,42.30020360749682,-83.6986162126201,236.52346801757812,-0.6888582130147779,-0.7247823401007529,0.012748465962414603,-0.001548694859772714,0.0003800000000000001,0.0019700000000000004,-0.0024000000000000002,-0.29650000000000004,-0.11620000000000001,-9.706800000000001,-0.008491191057680246,0.018994284924567253,0.0,0.0,0.0,0.0,0.0,0.0,0.0,0.0,0.0,0.0,0.10000000149011612,0.0,3396.0,3352.0,0.0,0.0,0.0,,,,,
pylon_camera_1771860933279465434.png,1771860933279465434,1771860933.2794654,42.30020360477897,-83.69861620944481,236.5233154296875,-0.688836471802081,-0.7248034782568517,0.012722485832204266,-0.0015399273619631862,-0.0011300000000000001,0.00237,-0.0016800000000000003,-0.1305,-0.2305,-9.6852,-0.008423946740805283,0.018843863422376973,0.0,0.0,0.0,0.0,0.0,0.0,0.0,0.0,0.0,0.0,0.10000000149011612,0.0,3164.0,3352.0,0.0,0.0,0.0,,,,,
pylon_camera_1771860933330666927.png,1771860933330666927,1771860933.330667,42.300203603291315,-83.69861620714667,236.52284240722656,-0.6888321578483491,-0.7248082429953722,0.012688258851138806,-0.0015090683468604387,-0.0006600000000000001,0.0025900000000000003,0.0017500000000000003,-0.0302,-0.2629,-9.7864,-0.0004162182082068287,0.0009310551586661835,0.0,0.0,0.0,0.0,0.0,0.0,0.0,0.0,0.0,0.0,0.10000000149011612,0.0,3040.0,3252.0,0.0,0.0,0.0,,,,,
pylon_camera_1771860933380659403.png,1771860933380659403,1771860933.3806593,42.300203604740915,-83.69861620772336,236.52256774902344,-0.6888676887678855,-0.7247742733035772,0.012700509852164152,-0.001502390880666821,0.0006300000000000001,-0.0011800000000000003,0.0016500000000000002,-0.0979,-0.19210000000000002,-9.877,0.007316470785100122,0.01636650615802187,0.0,0.0,0.0,0.0,0.0,0.0,0.0,0.0,0.0,0.0,0.10000000149011612,0.0,2768.0,3056.0,0.0,0.0,0.0,,,,,
pylon_camera_1771860933431663350.png,1771860933431663350,1771860933.4316633,42.30020360939119,-83.69861620955474,236.52235412597656,-0.6888958614446923,-0.7247474363913131,0.012697425751006521,-0.0015559266989389876,-0.0027,-0.0020000000000000005,0.0008900000000000001,-0.2619,-0.1153,-9.9138,0.007865822646501987,0.017595373310866157,0.0,0.0,0.0,0.0,0.0,0.0,0.0,0.0,0.0,0.0,0.10000000149011612,0.0,2100.0,2996.0,0.0,0.0,0.0,,,,,
pylon_camera_1771860933481893258.png,1771860933481893258,1771860933.4818933,42.30020361139517,-83.69861620962945,236.52235412597656,-0.6888699868986862,-0.7247717797385789,0.012701279931508526,-0.0016388815938043375,-0.0022,-0.0018700000000000004,-0.00256,-0.3491,-0.14020000000000002,-9.836400000000001,0.001984691796323376,0.0044396364668676126,0.0,0.0,0.0,0.0,0.0,0.0,0.0,0.0,0.0,0.0,0.10000000149011612,0.0,1368.0,2328.0,0.0,0.0,0.0,,,,,
pylon_camera_1771860933532531504.png,1771860933532531504,1771860933.5325315,42.3002036103836,-83.69861620963695,236.5223846435547,-0.6888462949140134,-0.7247945779227958,0.012676570888152293,-0.001704801299226561,-0.0018100000000000002,-0.0007000000000000001,-0.00136,-0.33640000000000003,-0.1995,-9.7422,-0.004458282446189097,0.009972910335178239,0.0,0.0,0.0,0.0,0.0,0.0,0.0,0.0,0.0,0.0,0.10000000149011612,0.0,744.0,1860.0,0.0,0.0,0.0,,,,,
pylon_camera_1771860933582547031.png,1771860933582547031,1771860933.582547,42.30020360779185,-83.69861621073046,236.52227783203125,-0.6888368470605687,-0.7248042053835209,0.0126389820584003,-0.0017082513119472018,-0.0019100000000000002,0.0018100000000000002,0.00013000000000000002,-0.21830000000000002,-0.1772,-9.703800000000001,-0.007769215495871273,0.017379268911334286,0.0,0.0,0.0,0.0,0.0,0.0,0.0,0.0,0.0,0.0,0.20000000298023224,0.0,0.0,1140.0,0.0,0.0,0.0,,,,,
pylon_camera_1771860933633165228.png,1771860933633165228,1771860933.6331654,42.300203603922064,-83.69861621211219,236.52182006835938,-0.6888462216188095,-0.7247965265559919,0.012567422765340787,-0.001714041684487246,-0.0016000000000000003,0.00143,0.0016000000000000003,-0.0978,-0.1227,-9.7825,-0.005473328754506704,0.012243508024106228,0.0,0.0,0.0,0.0,0.0,0.0,0.0,0.0,0.0,0.0,0.6000000238418579,0.0,0.0,748.0,0.0,0.0,0.0,,,,,
pylon_camera_1771860933683311256.png,1771860933683311256,1771860933.6833115,42.300203601896705,-83.69861621182906,236.521484375,-0.688859324344995,-0.7247841286468651,0.012568192408926659,-0.0016848335626119496,0.0012600000000000003,-0.00026000000000000003,-0.00068,-0.185,-0.0755,-9.8041,-0.0034709952925881964,0.007764408209802241,0.0,0.0,0.0,0.0,0.0,0.0,0.0,0.0,0.0,0.0,1.0,0.0,0.0,296.0,0.0,0.0,0.0,,,,,
pylon_camera_1771860933733972122.png,1771860933733972122,1771860933.7339723,42.30020360013888,-83.69861620824352,236.5208740234375,-0.6888511352418005,-0.7247910810488499,0.012624234367676814,-0.0016220403052707672,0.0028200000000000005,0.0015500000000000002,-0.0007000000000000001,-0.1874,-0.1131,-9.7956,-0.002542923625799943,0.005688367575496925,0.0,0.0,0.0,0.0,0.0,0.0,0.0,0.0,0.0,0.0,1.100000023841858,0.0,0.0,132.0,0.0,0.0,0.0,,,,,
pylon_camera_1771860933793086233.png,1771860933793086233,1771860933.7930863,42.300203599643666,-83.69861620355223,236.52024841308594,-0.688815463610821,-0.724824422355348,0.012669269171005745,-0.001517717535842912,0.0024100000000000002,0.0030600000000000007,-0.0012000000000000001,-0.2288,-0.1743,-9.869900000000001,-0.0011543091238333306,0.0025821202514677306,0.0,0.0,0.0,0.0,0.0,0.0,0.0,0.0,0.0,0.0,1.100000023841858,0.0,0.0,0.0,0.0,0.0,0.0,,,,,
pylon_camera_1771860933844011402.png,1771860933844011402,1771860933.8440115,42.300203599683115,-83.69861620139976,236.519775390625,-0.6888108604483152,-0.7248285144817567,0.012692342202503818,-0.0014586199079403112,0.00458,0.00072,-0.0008000000000000001,-0.159,-0.24630000000000002,-9.8538,-0.0007917168625073691,0.0017710231184172342,0.0,0.0,0.0,0.0,0.0,0.0,0.0,0.0,0.0,0.0,1.100000023841858,0.0,0.0,0.0,0.0,0.0,0.0,,,,,
pylon_camera_1771860933885742643.png,1771860933885742643,1771860933.8857427,42.300203599945895,-83.69861620104105,236.51956176757812,-0.6888232007391177,-0.7248169704852231,0.012683540194218468,-0.0014440319531983461,0.0012300000000000002,0.00131,0.00068,-0.1486,-0.2222,-9.824,0.0010617107663170257,0.0023749832816052077,0.0,0.0,0.0,0.0,0.0,0.0,0.0,0.0,0.0,0.0,1.100000023841858,0.0,0.0,0.0,0.0,0.0,0.0,,,,,
pylon_camera_1771860933936119420.png,1771860933936119420,1771860933.9361193,42.30020360259231,-83.69861620289244,236.5191650390625,-0.688832292904556,-0.7248091165688125,0.012642345022146177,-0.0014099301154849935,0.0002800000000000001,0.0032600000000000003,0.00016,-0.0341,-0.18530000000000002,-9.773200000000001,0.008643813885570369,0.019335693033187783,0.0,0.0,0.0,0.0,0.0,0.0,0.0,0.0,0.0,0.0,1.2000000476837158,0.0,0.0,0.0,0.0,0.0,0.0,,,,,
pylon_camera_1771860933995240265.png,1771860933995240265,1771860933.9952402,42.30020361177455,-83.69861620699031,236.5186309814453,-0.6888377355947781,-0.7248058882686342,0.012534814468757809,-0.001369955476790733,-0.0024900000000000005,0.0013900000000000002,-0.00035000000000000005,0.1877,-0.1492,-9.758700000000001,0.025892465107657546,0.05791989089792347,0.0,0.0,0.0,0.0,0.0,0.0,0.0,0.0,0.0,0.0,0.6000000238418579,6.950000286102295,0.0,0.0,0.0,0.0,0.0,,,,,
pylon_camera_1771860934047356610.png,1771860934047356610,1771860934.0473566,42.300203622899055,-83.69861621089251,236.518310546875,-0.6888289737177125,-0.7248158805268531,0.01243692143380195,-0.001381046101753123,-0.0027100000000000006,-0.0004300000000000001,-0.0016100000000000003,0.202,-0.11960000000000001,-9.8438,0.04009612731025811,0.0896926310254088,0.0,0.0,0.0,0.0,0.0,0.0,0.0,0.0,0.0,0.0,0.30000001192092896,11.27500057220459,0.0,0.0,0.0,0.0,0.0,,,,,
pylon_camera_1771860934099144616.png,1771860934099144616,1771860934.0991447,42.300203648922476,-83.69861621598257,236.517822265625,-0.6888158559568778,-0.7248293909462441,0.012372927498052515,-0.0014075752265910026,-0.00204,0.0008800000000000001,-0.0014100000000000002,0.1441,-0.1222,-9.8278,0.054833646075660346,0.12265957625248766,0.0,0.0,0.0,0.0,0.0,0.0,0.0,0.0,0.0,0.0,0.4000000059604645,15.5,0.0,0.0,0.0,0.0,0.0,,,,,
pylon_camera_1771860934140357330.png,1771860934140357330,1771860934.1403575,42.300203673292096,-83.69861621916988,236.5174560546875,-0.6888111980056105,-0.72483457575839,0.012333843070263549,-0.001359265370809302,0.00072,0.0034200000000000003,-0.0009700000000000002,0.3534,-0.15410000000000001,-9.706900000000001,0.07346675532814635,0.16434072366374372,0.0,0.0,0.0,0.0,0.0,0.0,0.0,0.0,0.0,0.0,0.30000001192092896,17.200000762939453,0.0,0.0,0.0,0.0,0.0,,,,,
pylon_camera_1771860934197300676.png,1771860934197300676,1771860934.1973007,42.30020372472746,-83.69861622453477,236.5167236328125,-0.6888360525404722,-0.7248133392921469,0.01221387910166421,-0.001156313935281239,0.00204,0.00935,0.00046000000000000007,0.7744000000000001,-0.18380000000000002,-9.6226,0.11632595226261415,0.26021417565433214,0.0,0.0,0.0,0.0,0.0,0.0,0.0,0.0,0.0,0.0,0.20000000298023224,16.67500114440918,0.0,0.0,0.0,0.0,0.0,,,,,
pylon_camera_1771860934238579395.png,1771860934238579395,1771860934.2385795,42.30020377551804,-83.69861622957686,236.51602172851562,-0.6888735478734845,-0.7247803323463662,0.012076498123749094,-0.0009290194594360238,0.003980000000000001,0.015640000000000005,0.00111,1.0044,-0.1865,-9.6913,0.15659925566309588,0.3503031389630057,0.0,0.0,0.0,0.0,0.0,0.0,0.0,0.0,0.0,0.0,0.20000000298023224,16.375,0.0,0.0,0.0,0.0,0.0,,,,,
pylon_camera_1771860934288975422.png,1771860934288975422,1771860934.2889755,42.300203883055026,-83.69861623983944,236.51451110839844,-0.6888979457700645,-0.7247612952728693,0.011847246893575442,-0.0005726510460988519,0.0036800000000000005,0.01699,-0.00048,1.2817,-0.1758,-9.8605,0.2247559743667016,0.5027656292998496,0.0,0.0,0.0,0.0,0.0,0.0,0.0,0.0,0.0,0.0,0.30000001192092896,16.399999618530273,0.0,0.0,0.0,0.0,0.0,,,,,
pylon_camera_1771860934348527456.png,1771860934348527456,1771860934.3485274,42.300204038409966,-83.69861625289239,236.51303100585938,-0.6889072818014185,-0.7247573436546841,0.011555107487840086,-0.000171436669086654,0.00205,0.013750000000000002,-0.0006900000000000001,1.2322,-0.0925,-10.189,0.31817959119420597,0.7117486547259672,0.0,0.0,0.0,0.0,0.0,0.0,0.0,0.0,0.0,0.0,0.30000001192092896,16.075000762939453,0.0,0.0,0.0,0.0,0.0,,,,,
pylon_camera_1771860934389891278.png,1771860934389891278,1771860934.3898914,42.30020416742697,-83.69861626333658,236.5125274658203,-0.6888897833357963,-0.7247760980893195,0.011422523315533475,-3.884209168571589e-06,0.00143,0.008220000000000002,-0.0015600000000000002,1.3721,-0.1768,-10.195400000000001,0.3798682481268038,0.8497424789647726,0.0,0.5600000023841858,0.0,0.0,0.0,0.4547251651359809,0.0,0.0,0.11368129128399522,0.0,0.4000000059604645,16.200000762939453,0.0,0.0,0.0,0.0,0.0,,,,,
pylon_camera_1771860934441141093.png,1771860934441141093,1771860934.441141,42.30020432186605,-83.69861627611449,236.51243591308594,-0.6888390108806902,-0.7248250415803383,0.011378697512628433,3.781387594101592e-05,-0.0005300000000000001,-0.00037000000000000005,-0.0023600000000000006,1.4032,-0.2462,-10.0381,0.45665213446925923,1.021503425679665,0.6599999666213989,0.5600000023841858,0.2199999988079071,0.0,0.5359260580962681,0.4547251651359809,0.17864202743200958,0.0,0.29232331266606465,0.7138303158684317,0.699999988079071,16.524999618530273,0.0,0.0,0.0,0.0,0.0,,,,,
pylon_camera_1771860934490957975.png,1771860934490957975,1771860934.490958,42.30020459219344,-83.69861630019746,236.51319885253906,-0.6888234711976479,-0.7248392314437675,0.011415475762706191,-3.162819058185925e-05,-0.0008300000000000001,-0.0038800000000000006,-0.0007000000000000001,1.2931000000000001,-0.2597,-9.9223,0.5292964189464557,1.1840043313980848,1.0199999809265137,0.9899999499320984,1.159999966621399,0.0,0.8282493889121533,0.8038890871444022,0.9419306680962682,0.0,0.6435172860382059,0.45649076699040964,0.9000000357627869,16.825000762939453,0.0,0.0,0.0,0.0,0.0,,,,,
pylon_camera_1771860934542066817.png,1771860934542066817,1771860934.542067,42.300204800943675,-83.69861632083652,236.51382446289062,-0.6888485168528682,-0.7248148099953952,0.011454322900524663,-0.00010260522931335713,0.0005400000000000001,-0.0011200000000000003,0.0015,1.1908,-0.24250000000000002,-9.797600000000001,0.6026160660203679,1.3480159827236018,1.25,1.2400000095367432,1.3899999856948853,1.4199999570846558,1.015011525,1.0068914405439235,1.1286928041841149,1.1530530575523448,1.075912206820096,0.20185500720379682,1.100000023841858,18.325000762939453,0.0,0.0,0.0,0.0,0.0,,,,,
pylon_camera_1771860934591950798.png,1771860934591950798,1771860934.591951,42.300205150722434,-83.69861635636177,236.5144805908203,-0.6888902093463315,-0.7247751488712406,0.011455701315819316,-0.00017306877686365543,-0.0008400000000000001,-0.0023500000000000005,0.00198,1.1758,-0.08610000000000001,-9.6523,0.6763450122681525,1.5129432117431212,1.6699999570846558,1.6299999952316284,1.5999999046325684,1.6100000143051147,1.3560553625523448,1.3235750247280382,1.2992146745607662,1.3073348558158853,1.3215449794142589,0.12650721510448823,1.2000000476837158,19.700000762939453,0.0,0.0,0.0,0.0,0.0,,,,,
pylon_camera_1771860934642898107.png,1771860934642898107,1771860934.642898,42.300205408283205,-83.69861638194932,236.51486206054688,-0.6889188110756002,-0.7247489137259665,0.011395502439976517,-0.00016224473374229,-0.0009100000000000001,0.0027700000000000003,0.00124,1.3395000000000001,-0.059500000000000004,-9.6836,0.7683821086741165,1.7188246741774782,1.8299999237060547,1.7999999523162842,1.7799999713897705,1.7899999618530273,1.485976810648613,1.4616165572803832,1.44537638836823,1.4534964728243065,1.4616165572803832,0.1496418574629659,1.2000000476837158,21.274999618530273,0.0,0.0,0.0,0.0,0.0,,,,,
pylon_camera_1771860934692726376.png,1771860934692726376,1771860934.6927264,42.300205841463224,-83.69861642251792,236.51498413085938,-0.6889220124827877,-0.72474752534101,0.011290592074042826,-8.80872584215558e-05,0.00012,0.0061400000000000005,0.0006700000000000001,1.5805,-0.1241,-9.7067,0.8517275843816031,1.9052635026065834,1.9900000095367432,2.129999876022339,2.0999999046325684,2.109999895095825,1.6158983555439235,1.7295795379289962,1.705219284560766,1.713339369016843,1.691009136762632,0.1124539285777693,1.2000000476837158,21.42500114440918,0.0,0.0,0.0,0.0,0.0,,,,,
pylon_camera_1771860934743590053.png,1771860934743590053,1771860934.74359,42.30020616235705,-83.69861645230365,236.5148162841797,-0.6888962179802257,-0.7247734308402998,0.011201553299452459,-2.0499452028013032e-06,-0.00035000000000000005,0.00461,-0.0005400000000000001,1.5968,-0.1816,-9.8718,0.9436103136170013,2.110799654942415,2.299999952316284,2.440000057220459,2.3999998569488525,2.4099998474121094,1.867621167280383,1.9813025432635405,1.9488220118411492,1.9569420962972262,1.9386719546705746,0.08154620447696456,1.2000000476837158,21.524999618530273,0.0,0.0,0.0,0.0,0.0,,,,,
pylon_camera_1771860934793509021.png,1771860934793509021,1771860934.793509,42.300206693265785,-83.69861649993146,236.5149688720703,-0.6889037519152138,-0.7247674734009266,0.011123007738927724,9.378709241366646e-05,0.0007600000000000002,0.0024300000000000007,0.0018100000000000002,1.7591,-0.2054,-9.9657,1.042319777021073,2.331606802009519,2.609999895095825,2.5899999141693115,2.669999837875366,2.690000057220459,2.119343979016843,2.1031038101046895,2.1680644857533027,2.1843048482635403,2.143704280784594,0.08058928334871023,1.5,21.375,0.0,0.0,0.0,0.0,0.0,,,,,
pylon_camera_1771860934844224193.png,1771860934844224193,1771860934.8442242,42.3002070848296,-83.69861653524511,236.51535034179688,-0.6889192925726494,-0.7247530273388307,0.01110111851489812,0.0001511691710026203,-3e-05,-0.0022,-4e-05,1.9755,-0.19590000000000002,-9.946900000000001,1.1416854993070653,2.553881960819947,3.009999990463257,3.0,2.929999828338623,2.950000047683716,2.444147744456077,2.43602766,2.3791868752093794,2.395427237719617,2.413697379346268,0.054890783373821674,2.0,21.42500114440918,0.0,0.0,0.0,0.0,0.0,,,,,
pylon_camera_1771860934894212403.png,1771860934894212403,1771860934.8942122,42.30020772127796,-83.69861659205829,236.51629638671875,-0.6889185849516836,-0.7247533278551963,0.011125551009502535,0.00013851253929598214,-3e-05,-0.0006300000000000001,-0.00035000000000000005,1.9991,-0.191,-9.9098,1.238106174537294,2.769569226069455,3.2300000190734863,3.179999828338623,3.179999828338623,3.18999981880188,2.622789796087847,2.582189180209379,2.582189180209379,2.590309264665456,2.594369355293015,0.06325888846803872,2.6000001430511475,21.325000762939453,0.0,0.0,0.0,0.0,0.0,,,,,
pylon_camera_1771860934945616874.png,1771860934945616874,1771860934.945617,42.300208177038186,-83.69861663243543,236.51718139648438,-0.688904163033896,-0.724765891442219,0.01120059855088312,5.786738678860056e-05,-0.0011900000000000003,-0.00234,-0.0018400000000000003,1.8197,-0.27140000000000003,-9.8459,1.3338574759741242,2.9837591423055576,3.4600000381469727,3.490000009536743,3.5299999713897705,3.429999828338623,2.809551932175694,2.833912185543923,2.86639252336823,2.7851914852093795,2.8237620315743066,0.05362266292299346,3.0,21.625,0.0,0.0,0.0,0.0,0.0,,,,,
pylon_camera_1771860934995161541.png,1771860934995161541,1771860934.9951615,42.300208918580445,-83.69861669861298,236.5186004638672,-0.6888890131656361,-0.7247792253410468,0.011269430686356479,-4.456134601854503e-05,-0.0024200000000000003,-0.0006500000000000001,-0.00026000000000000003,1.6976,-0.2652,-9.8047,1.4301048058882788,3.199058644483727,3.759999990463257,3.7699999809265137,3.740000009536743,3.759999990463257,3.0531546594560766,3.0612747439121537,3.0369144905439236,3.0531546594560766,3.0511246383420576,0.04624298038323183,3.200000047683716,21.875,0.0,0.0,0.0,0.0,0.0,,,,,
pylon_camera_1771860935055506152.png,1771860935055506152,1771860935.0555062,42.30020972189524,-83.69861677185314,236.51968383789062,-0.6888607806948469,-0.7248059006373364,0.011278579356778133,-0.00015770059754360185,-0.00455,-0.0005400000000000001,-0.0019500000000000003,1.846,-0.28450000000000003,-9.758700000000001,1.5463732694561414,3.459144221377221,4.059999942779541,4.059999942779541,4.130000114440918,4.150000095367432,3.29675738673646,3.29675738673646,3.3535981715270804,3.369838340439234,3.3292378213598086,0.037554490851986436,3.299999952316284,21.67500114440918,0.0,0.0,0.0,0.0,0.0,,,,,
pylon_camera_1771860935096721504.png,1771860935096721504,1771860935.0967214,42.30021029253175,-83.6986168242692,236.52003479003906,-0.6888401300387137,-0.7248256683838051,0.0112680911081813,-0.0002362689064687037,-0.0026600000000000005,0.0,-0.0019100000000000002,1.8776000000000002,-0.28800000000000003,-9.793700000000001,1.6214868076659346,3.6271686995402357,4.339999675750732,4.360000133514404,4.309999942779541,4.329999923706055,3.524119751506605,3.540360307614927,3.4997596917364597,3.5159998606486127,3.520059902876651,0.02952958782346167,3.299999952316284,21.700000762939453,0.0,0.0,0.0,0.0,0.0,,,,,
pylon_camera_1771860935147607285.png,1771860935147607285,1771860935.1476073,42.30021119830781,-83.69861690918027,236.52069091796875,-0.6888212716747354,-0.7248440786571264,0.011234059806349457,-0.00033648828954207393,-0.0033400000000000005,-0.00449,-0.0010600000000000002,1.8393000000000002,-0.3053,-9.7616,1.7173690864436295,3.841651604229213,4.599999904632568,4.589999675750732,4.569999694824219,4.579999923706055,3.735242334560766,3.727122056506605,3.710881887594452,3.719002165648613,3.723062111077609,0.03086940341520058,3.299999952316284,21.899999618530273,0.0,0.0,0.0,0.0,0.0,,,,,
pylon_camera_1771860935197011245.png,1771860935197011245,1771860935.1970112,42.30021183855622,-83.6986169689332,236.52125549316406,-0.6888042151166176,-0.7248608824574544,0.011193642350128194,-0.00039584279493735356,-0.0017400000000000002,0.0016400000000000002,-0.0007800000000000001,1.7221000000000002,-0.2107,-9.9754,1.8111012789794931,4.051324895000388,4.819999694824219,4.829999923706055,4.880000114440918,4.920000076293945,3.9138841925944523,3.922004470648613,3.962605086527081,3.995085424351387,3.948394793530383,0.025406528515406746,3.4000000953674316,22.05000114440918,0.0,0.0,0.0,0.0,0.0,,,,,
pylon_camera_1771860935248991570.png,1771860935248991570,1771860935.2489915,42.30021284657632,-83.69861706256825,236.52206420898438,-0.6887799046291976,-0.7248840347030553,0.011185894565305757,-0.0005049498856804504,-0.0030400000000000006,-0.0009500000000000001,-0.0018600000000000003,1.852,-0.3185,-9.8945,1.9066185489525518,4.264991296893921,5.150000095367432,5.130000114440918,5.089999675750732,5.130000114440918,4.181847560439234,4.165607391527081,4.133126666506605,4.165607391527081,4.1615472525,0.024254221683701113,3.6000001430511475,22.5,0.0,0.0,0.0,0.0,0.0,,,,,
pylon_camera_1771860935298742638.png,1771860935298742638,1771860935.2987425,42.30021354812975,-83.6986171278756,236.52281188964844,-0.6887341910199298,-0.7249270945816148,0.011203329410430035,-0.0006380217104616905,-0.00135,-0.005830000000000001,-0.0032300000000000002,1.8044,-0.2812,-9.8458,2.0010540875693335,4.476237930647345,5.440000057220459,5.409999847412109,5.380000114440918,5.409999847412109,4.41733020326354,4.392969756297226,4.368609696527081,4.392969756297226,4.392969853096268,0.018602245644934907,4.0,22.75,0.0,0.0,0.0,0.0,0.0,,,,,
pylon_camera_1771860935349696436.png,1771860935349696436,1771860935.3496964,42.300214655537204,-83.69861723090881,236.5238800048828,-0.6886808778252438,-0.7249770506403254,0.01124283581884763,-0.0007233294250122183,-0.0009800000000000002,-0.0032200000000000006,-0.0017400000000000002,1.6987,-0.24960000000000002,-9.8192,2.092657508457764,4.681149286969511,5.710000038146973,5.670000076293945,5.670000076293945,5.670000076293945,4.636572677175694,4.604092339351387,4.604092339351387,4.604092339351387,4.612212423807463,0.014726482522986561,4.700000286102295,23.125,0.0,0.0,0.0,0.0,0.0,,,,,
pylon_camera_1771860935399538828.png,1771860935399538828,1771860935.399539,42.30021542734101,-83.69861730303153,236.52447509765625,-0.6886163285956916,-0.7250376288822626,0.011285655488667477,-0.0007890984527589046,-0.0014800000000000002,-0.0013300000000000002,-0.0038500000000000006,1.6844000000000001,-0.2868,-9.774700000000001,2.1840036881156646,4.885485210093455,5.909999847412109,5.940000057220459,5.929999828338623,5.929999828338623,4.798974366297227,4.82333481326354,4.815214535209379,4.815214535209379,4.813184562494881,0.014799072044922042,5.800000190734863,22.950000762939453,0.0,0.0,0.0,0.0,0.0,,,,,
pylon_camera_1771860935450705932.png,1771860935450705932,1771860935.450706,42.300216632936056,-83.69861741553332,236.5255126953125,-0.6885612014263353,-0.7250896215510665,0.011305700224387465,-0.0008329175765413182,-0.0012000000000000001,-0.0008700000000000001,-0.00412,1.6308,-0.3375,-9.860800000000001,2.274372888928405,5.087635690159507,6.170000076293945,6.159999847412109,6.210000038146973,6.159999847412109,5.010096949351388,5.001976671297226,5.0425772871756935,5.001976671297226,5.014156894780383,0.014442621259467646,7.200000286102295,23.375,0.0,0.0,0.0,0.0,0.0,,,,,
pylon_camera_1771860935500374931.png,1771860935500374931,1771860935.500375,42.30021747198923,-83.69861749469447,236.5264129638672,-0.6884820547806395,-0.7251652443835597,0.011266695253482902,-0.0009434835588820877,-0.00446,-0.0032000000000000006,-0.005170000000000001,1.7252,-0.3779,-10.0549,2.365497787596835,5.291476620986864,6.46999979019165,6.449999809265137,6.449999809265137,6.449999809265137,5.253699483033686,5.237459314121533,5.237459314121533,5.237459314121533,5.2415193563495714,0.009441081991963047,8.699999809265137,23.100000381469727,0.0,0.0,0.0,0.0,0.0,,,,,
pylon_camera_1771860935551073434.png,1771860935551073434,1771860935.5510736,42.300218774372155,-83.69861761889409,236.52838134765625,-0.6883980684347691,-0.7252452156881761,0.011232363125055,-0.0011447774092498985,-0.0033600000000000006,-0.006170000000000001,-0.007610000000000001,1.6393,-0.34340000000000004,-9.9244,2.4553877067889918,5.492554976824567,6.649999618530273,6.659999847412109,6.710000038146973,6.71999979019165,5.399861003243066,5.407981281297226,5.4485818971756945,5.456701788033685,5.428281492437417,0.011701928275337658,10.199999809265137,23.125,0.0,0.0,0.0,0.0,0.0,,,,,
pylon_camera_1771860935600858986.png,1771860935600858986,1771860935.600859,42.300219671803006,-83.69861770438487,236.52976989746094,-0.6882697618077741,-0.7253667159110637,0.01122547604061685,-0.0013605576539319254,-0.004410000000000001,-0.00795,-0.007360000000000001,1.6122,-0.3649,-9.8549,2.5436489402465705,5.689990060395163,6.909999847412109,6.929999828338623,6.949999809265137,6.949999809265137,5.610983586297227,5.627223755209379,5.643463924121533,5.643463924121533,5.631283797437418,0.010317463182645384,11.699999809265137,23.350000381469727,0.0,0.0,0.0,0.0,0.0,,,,,
pylon_camera_1771860935652050060.png,1771860935652050060,1771860935.6520503,42.300221069146,-83.6986178381533,236.53187561035156,-0.6880910945777258,-0.7255357831173315,0.011235403994059813,-0.0014962206514866525,-0.0037600000000000008,-0.0032800000000000004,-0.011790000000000002,1.6225,-0.36200000000000004,-9.741900000000001,2.6297732849373165,5.882645052007681,7.170000076293945,7.190000057220459,7.21999979019165,7.199999809265137,5.822106169351388,5.83834633826354,5.862706398033686,5.846466229121533,5.842406283692537,0.006840250934638891,13.100000381469727,23.024999618530273,0.0,0.0,0.0,0.0,0.0,,,,,
pylon_camera_1771860935702039870.png,1771860935702039870,1771860935.7020397,42.30022203196732,-83.6986179306291,236.53318786621094,-0.6878765803114888,-0.7257393728991265,0.011215333078702688,-0.00154569948178119,-0.0018000000000000004,0.00036,-0.014060000000000001,1.6393,-0.3593,-9.6899,2.7151115214437804,6.0735415667784505,7.409999847412109,7.419999599456787,7.399999618530273,7.5,6.016988196297226,6.0251080871552185,6.008867918243065,6.090069150000001,6.035258337923878,0.006303279303129689,14.600000381469727,23.024999618530273,0.0,0.0,0.0,0.0,0.0,,,,,
pylon_camera_1771860935753224983.png,1771860935753224983,1771860935.7532248,42.3002235213374,-83.69861807321989,236.5347900390625,-0.6875962961773017,-0.7260063832553121,0.011116356294269741,-0.0015784734829809067,-0.00458,0.0006000000000000001,-0.013030000000000002,1.5572000000000001,-0.2792,-9.7355,2.817894514292268,6.303460954800946,7.739999771118164,7.75,7.730000019073486,7.779999732971191,6.28495117694584,6.293071455000001,6.276831286087847,6.317431514770146,6.293071358200958,0.0016482368455181696,15.90000057220459,23.024999618530273,0.0,0.0,0.0,0.0,0.0,,,,,
pylon_camera_1771860935803106108.png,1771860935803106108,1771860935.803106,42.3002245468246,-83.69861817119852,236.53549194335938,-0.6873555282355674,-0.7262357965793925,0.011019097862433493,-0.0015890415341678987,-0.004530000000000001,0.0019100000000000002,-0.014890000000000002,1.3673,-0.1211,-9.978200000000001,2.900965555680523,6.48928589012399,7.960000038146973,7.96999979019165,7.96999979019165,8.0,6.463593422175694,6.471713313033686,6.471713313033686,6.49607376,6.475773452060766,0.002082268880122671,17.100000381469727,23.225000381469727,0.0,0.0,0.0,0.0,0.0,,,,,
pylon_camera_1771860935854035903.png,1771860935854035903,1771860935.8540359,42.30022612488762,-83.6986183210403,236.53671264648438,-0.6870755554974413,-0.7265011613011326,0.01099106421468642,-0.0015621054435077607,0.00316,0.00021000000000000004,-0.018840000000000003,1.3739000000000001,-0.2369,-9.938500000000001,2.9813100787401803,6.669011767537059,8.15999984741211,8.239999771118164,8.149999618530273,8.229999542236328,6.625995111297226,6.690955786945839,6.617874833243065,6.682835508891679,6.654415310094452,0.002188698708504159,17.80000114440918,23.225000381469727,0.0,0.0,0.0,0.0,0.0,,,,,
pylon_camera_1771860935904049562.png,1771860935904049562,1771860935.9040496,42.30022720367212,-83.69861842284422,236.5378875732422,-0.6867528479778776,-0.7268057064986984,0.01104582982958105,-0.0014072805612406693,0.0066500000000000005,0.006050000000000001,-0.019400000000000004,1.3555000000000001,-0.2351,-9.8163,3.0600795616523553,6.84521437464262,8.420000076293945,8.460000038146973,8.380000114440918,8.460000038146973,6.837117694351387,6.869598032175693,6.804637356527081,6.869598032175693,6.845237778807464,3.419055059864177e-06,17.899999618530273,24.450000762939453,0.0,0.0,0.0,0.0,0.0,,,,,
pylon_camera_1771860935955409737.png,1771860935955409737,1771860935.9554098,42.30022886833036,-83.69861857702965,236.5401153564453,-0.6863478812294215,-0.7271867522917884,0.011159752248194686,-0.001213735129271826,0.0038000000000000004,0.00036,-0.021050000000000003,1.3217,-0.21280000000000002,-9.9295,3.1404565414310834,7.025012855788848,8.609999656677246,8.729999542236328,8.609999656677246,8.6899995803833,6.9913991054187585,7.088840118891678,6.9913991054187585,7.056359781067372,7.031999527699141,0.000994542224152069,17.899999618530273,25.024999618530273,0.0,0.0,0.0,0.0,0.0,,,,,
pylon_camera_1771860936014162427.png,1771860936014162427,1771860936.0141625,42.300230584235166,-83.69861873646398,236.5426025390625,-0.6858682328323968,-0.7276369008040885,0.011338631299249453,-0.0008621019928528721,0.013660000000000002,0.00505,-0.023520000000000003,1.3323,-0.0079,-9.6982,3.233177880166116,7.2324249272587915,8.869999885559082,9.039999961853027,8.90999984741211,8.979999542236328,7.2025216884729195,7.340563317824307,7.235002026297226,7.291842423891678,7.267482364121532,0.004847259005843302,17.700000762939453,25.67500114440918,0.0,0.0,0.0,0.0,0.0,,,,,
pylon_camera_1771860936065258724.png,1771860936065258724,1771860936.0652587,42.30023174947659,-83.69861884416369,236.5438995361328,-0.6854823518731537,-0.727998871153645,0.011459241879087673,-0.0005240658595785041,0.012220000000000002,0.006860000000000001,-0.02135,1.3638000000000001,-0.2409,-9.705400000000001,3.3120576564027577,7.408874253913585,9.069999694824219,9.179999351501465,9.130000114440918,9.119999885559082,7.364923377594453,7.45424411301321,7.413644271527081,7.4055239934729205,7.409583938901916,9.578850497505687e-05,17.30000114440918,26.075000762939453,0.0,0.0,0.0,0.0,0.0,,,,,
pylon_camera_1771860936126047280.png,1771860936126047280,1771860936.1260471,42.30023354310916,-83.69861901508877,236.5455322265625,-0.6850170377084261,-0.7284356355859495,0.011539881822035233,-0.0001182590367806093,0.011260000000000001,0.007810000000000001,-0.021660000000000002,1.1473,0.0511,-9.6464,3.403902813989262,7.614326360725141,9.329999923706055,9.469999313354492,9.369999885559082,9.479999542236328,7.576045960648614,7.689726755837517,7.60852629847292,7.697847033891678,7.6430365122126815,0.003770543857382913,15.699999809265137,26.149999618530273,0.0,0.0,0.0,0.0,0.0,,,,,
pylon_camera_1771860936157216917.png,1771860936157216917,1771860936.157217,42.30023477076798,-83.69861913397283,236.54629516601562,-0.6847721112991344,-0.7286648766771966,0.011602742374346874,0.00017161971387030832,0.014390000000000002,0.0048400000000000006,-0.023490000000000004,1.5658,-0.5904,-9.7909,3.4551729764014496,7.729014637831459,9.519999504089355,9.59999942779541,9.519999504089355,9.579999923706055,7.730327371715985,7.795288047364597,7.730327371715985,7.779048265648614,7.758747764111295,0.0038469491485111193,14.5,26.25,0.0,0.0,0.0,0.0,0.0,,,,,
pylon_camera_1771860936216338535.png,1771860936216338535,1771860936.2163384,42.30023665094624,-83.69861932067303,236.5471954345703,-0.6843299770751534,-0.7290779766760958,0.01172193725755093,0.0006185379056834302,0.00893,0.0065000000000000014,-0.017790000000000004,1.7049,-0.6919000000000001,-9.8816,3.556626664724159,7.95596045138806,9.779999732971191,9.809999465942383,9.800000190734863,9.84000015258789,7.941449954770146,7.965810014540291,7.957690510878468,7.990170848702774,7.96378033222292,0.0009828958907777653,11.40000057220459,26.375,0.0,0.0,0.0,0.0,0.0,,,,,
pylon_camera_1771860936258548510.png,1771860936258548510,1771860936.2585485,42.30023793229056,-83.69861945254245,236.54774475097656,-0.6840877445090325,-0.7293053283631542,0.011713074526934278,0.0007069079026732634,-0.0019000000000000002,0.006120000000000001,-0.01682,1.5287000000000002,-0.5898,-9.6652,3.6198442509351065,8.097374398686778,10.010000228881836,10.039999961853027,10.0,10.050000190734863,8.128212478054161,8.152572537824307,8.1200922,8.160692815878468,8.140392507939234,0.005312599755722373,8.90000057220459,26.274999618530273,0.0,0.0,0.0,0.0,0.0,,,,,
pylon_camera_1771860936317513613.png,1771860936317513613,1771860936.3175137,42.30023989514958,-83.69861965732036,236.54905700683594,-0.6839246849816873,-0.7294614020129616,0.011516898051052892,0.0006703023689422003,-0.006220000000000002,0.00455,-0.00787,1.5091,-0.43620000000000003,-9.7712,3.716113445183481,8.312722810068736,10.269999504089355,10.260000228881836,10.25,10.279999732971191,8.339334286715985,8.331214783054161,8.323094505,8.347454564770146,8.335274534885073,0.002712916733975668,6.800000190734863,26.274999618530273,0.0,0.0,0.0,0.0,0.0,,,,,
pylon_camera_1771860936368063139.png,1771860936368063139,1771860936.3680632,42.300241909776474,-83.6986198732914,236.55039978027344,-0.6838593233349486,-0.7295266836207156,0.011262287219844753,0.0006361287637693091,-0.005640000000000001,0.0014500000000000003,-0.00903,1.5205,-0.2235,-9.8032,3.7949804784863774,8.489143631545318,10.5,10.579999923706055,10.479999542236328,10.529999732971191,8.52609681,8.591057485648614,8.509856253891678,8.550456869770146,8.54436685482761,0.006505158315037188,5.099999904632568,26.375,0.0,0.0,0.0,0.0,0.0,,,,,
pylon_camera_1771860936409350743.png,1771860936409350743,1771860936.4093506,42.30024327973166,-83.69862001690552,236.55152893066406,-0.6838059461640293,-0.7295783446179324,0.011153518491068225,0.0006827009177751492,0.00018,0.006820000000000001,-0.006180000000000001,1.6127,-0.268,-9.965200000000001,3.8602635860928785,8.635178026274604,10.6899995803833,10.679999351501465,10.639999389648438,10.710000038146973,8.680378221067372,8.67225794301321,8.639777605188904,8.696618777175694,8.672258136611294,0.00429407595580141,4.200000286102295,26.575000762939453,0.0,0.0,0.0,0.0,0.0,,,,,
pylon_camera_1771860936460229275.png,1771860936460229275,1771860936.4602294,42.30024467998788,-83.69862016815858,236.55271911621094,-0.683784054971401,-0.7295994473227234,0.011115742394217198,0.0006729816266562207,0.00019000000000000004,0.00117,-0.00529,1.602,-0.2132,-10.067,3.941904019422545,8.817802777207069,10.899999618530273,10.880000114440918,10.899999618530273,10.899999618530273,8.850900188243065,8.83466040652708,8.850900188243065,8.850900188243065,8.84684024281407,0.0032930500194514414,3.299999952316284,26.375,0.0,0.0,0.0,0.0,0.0,,,,,
pylon_camera_1771860936509982103.png,1771860936509982103,1771860936.509982,42.30024681746035,-83.69862039678846,236.5550537109375,-0.6837786806790129,-0.7296052155862444,0.011072371796785573,0.0005897635219635761,-0.00395,0.0004900000000000001,-0.003940000000000001,1.5339,-0.25420000000000004,-10.0105,4.018514207333956,8.98917517095362,11.09000015258789,11.119999885559082,11.09000015258789,11.09999942779541,9.005182373702773,9.029542433472919,9.005182373702773,9.013301877364597,9.013302264560766,0.0026840164028737712,2.9000000953674316,26.524999618530273,0.0,0.0,0.0,0.0,0.0,,,,,
pylon_camera_1771860936561150956.png,1771860936561150956,1771860936.561151,42.30024826903004,-83.6986205500214,236.55715942382812,-0.6837734059633833,-0.7296110727860189,0.011020177865794316,0.0004092005316434433,-0.008150000000000001,-0.004390000000000001,-0.0027600000000000003,1.4264000000000001,-0.1332,-10.1333,4.094850430775186,9.159934722618246,11.34999942779541,11.179999351501465,11.319999694824219,11.309999465942383,9.216304182364599,9.07826255301321,9.191944122594451,9.18382384454029,9.167583675628139,0.0008350444890186429,2.700000047683716,26.325000762939453,0.0,0.0,0.0,0.0,0.0,,,,,
pylon_camera_1771860936619848694.png,1771860936619848694,1771860936.6198487,42.30025049080866,-83.6986207801524,236.56124877929688,-0.6837881487668255,-0.7295954761612236,0.011140326661367318,0.00031920681936202977,0.0041,-0.007790000000000001,-0.0025800000000000003,1.4535,-0.006200000000000001,-10.0032,4.186815538635234,9.365655150994701,11.559999465942383,11.50999927520752,11.59999942779541,11.619999885559082,9.38682614954029,9.346225533661823,9.419306487364599,9.435547043472921,9.39697630350991,0.0033442564359078704,2.5,26.5,0.0,0.0,0.0,0.0,0.0,,,,,
pylon_camera_1771860936661763978.png,1771860936661763978,1771860936.6617641,42.30025199773361,-83.69862093067772,236.5643310546875,-0.6838057635792324,-0.7295762016410763,0.011320465733877922,0.00030124802208908745,0.0054800000000000005,-0.005690000000000001,-0.00229,1.3032000000000001,-0.0911,-9.8276,4.245966204238163,9.497971640908517,11.710000038146973,11.769999504089355,11.75,11.729999542236328,9.508627997175694,9.557348116715985,9.541108335,9.524867778891679,9.53298805694584,0.0036867256885148034,2.200000047683716,26.725000381469727,0.0,0.0,0.0,0.0,0.0,,,,,
pylon_camera_1771860936712021808.png,1771860936712021808,1771860936.7120218,42.30025430266321,-83.69862116261461,236.56863403320312,-0.6837562614526421,-0.7296162632775112,0.011719010852207987,0.0003847985360881668,0.014260000000000002,-0.01182,-0.004470000000000001,1.2015,-0.0702,-9.8155,4.322341218164282,9.668817964560409,11.920000076293945,11.880000114440918,11.960000038146973,11.989999771118164,9.679149964351387,9.64666962652708,9.711630302175694,9.73599036194584,9.69336006375,0.0025382729594812434,1.8000000715255737,26.5,0.0,0.0,0.0,0.0,0.0,,,,,
pylon_camera_1771860936772143787.png,1771860936772143787,1771860936.7721438,42.300256654779,-83.6986213921124,236.5732421875,-0.6837370545434254,-0.729624598714567,0.012300806649535567,0.0005247386576358257,0.016770000000000004,-0.010790000000000003,-0.0019000000000000002,1.1756,-0.02,-9.880700000000001,4.4104173605606665,9.865839010532579,12.149999618530273,12.239999771118164,12.229999542236328,12.179999351501465,9.865911713243065,9.93899266694584,9.930872388891677,9.890271773013211,9.906512135523448,0.004122622003810049,1.8000000715255737,26.67500114440918,0.0,0.0,0.0,0.0,0.0,,,,,
pylon_camera_1771860936821978344.png,1771860936821978344,1771860936.8219783,42.30025825185159,-83.69862154770388,236.57640075683594,-0.6837678756199347,-0.7295854606161358,0.012890341063786732,0.0006221213719136051,0.019300000000000005,-0.01614,-0.0013900000000000002,1.2279,-0.10990000000000001,-9.894300000000001,4.484564484374309,10.031701677676269,12.40999984741211,12.369999885559082,12.429999351501465,12.40999984741211,10.077034296297228,10.04455395847292,10.09327407801321,10.077034296297228,10.072974157270146,0.0041142052385510245,1.8000000715255737,26.200000762939453,0.0,0.0,0.0,0.0,0.0,,,,,
pylon_camera_1771860936872976978.png,1771860936872976978,1771860936.8729768,42.30026068068964,-83.69862177929224,236.58131408691406,-0.68381545619481,-0.7295284870754336,0.013565941306384478,0.0007573975073637858,0.019430000000000003,-0.017190000000000004,-0.0022400000000000007,1.2673,-0.0176,-9.759,4.569524588966981,10.2217523340438,12.579999923706055,12.630000114440918,12.630000114440918,12.559999465942383,10.215075925648613,10.255676541527082,10.255676541527082,10.198835369540292,10.231316094560766,0.0009356282762901996,1.7000000476837158,26.42500114440918,0.0,0.0,0.0,0.0,0.0,,,,,
pylon_camera_1771860936914106105.png,1771860936914106105,1771860936.9141061,42.3002623245703,-83.69862193782102,236.58445739746094,-0.6838209296870119,-0.7295136781709229,0.014067538503431454,0.0009131505770305467,0.0234,-0.013200000000000002,-0.0021300000000000004,1.4516,-0.302,-9.4251,4.625596996403849,10.347182945135627,12.809999465942383,12.75,12.799999237060547,12.829999923706055,10.401837674540293,10.353117554999999,10.39371739648613,10.418078230648614,10.39168771416876,0.004301148367542524,1.5,26.700000762939453,0.0,0.0,0.0,0.0,0.0,,,,,
pylon_camera_1771860936965032734.png,1771860936965032734,1771860936.9650328,42.300263987361035,-83.69862209070521,236.5873565673828,-0.6838326794007085,-0.729491585489962,0.014610620229601603,0.001192920573891604,0.015680000000000003,-0.007560000000000001,-0.0025800000000000003,1.1271,-0.6062000000000001,-9.3351,4.693788619050523,10.499723513498878,13.00999927520752,13.029999732971191,13.00999927520752,13.00999927520752,10.564239363661825,10.580479919770147,10.564239363661825,10.564239363661825,10.568299502688905,0.006531218569885455,1.2000000476837158,26.450000762939453,0.0,0.0,0.0,0.0,0.0,,,,,
pylon_camera_1771860937014747444.png,1771860937014747444,1771860937.0147474,42.300266522095285,-83.6986223372079,236.59054565429688,-0.6838680807882466,-0.7294531370246884,0.014854127686319569,0.001387030828732864,0.005790000000000001,0.0033300000000000005,0.0006700000000000001,1.1288,-0.6288,-9.700000000000001,4.760961431301974,10.649985064136638,13.219999313354492,13.229999542236328,13.199999809265137,13.199999809265137,10.734761330837516,10.742881608891679,10.718521549121533,10.718521549121533,10.728671509493065,0.007388408986731807,0.800000011920929,26.375,0.0,0.0,0.0,0.0,0.0,,,,,
pylon_camera_1771860937074554300.png,1771860937074554300,1771860937.0745544,42.30026910430677,-83.69862259533167,236.5932159423828,-0.6839571962336376,-0.729367452084591,0.014960333618345083,0.0013645431034163351,-0.00022000000000000003,-0.006060000000000001,0.00267,1.3816000000000002,-0.46240000000000003,-9.843200000000001,4.847873774326579,10.844402760742097,13.460000038146973,13.569999694824219,13.460000038146973,13.429999351501465,10.929644132175694,11.018964867594454,10.929644132175694,10.905283298013211,10.945884107489762,0.009357947042970252,0.20000000298023224,26.274999618530273,0.0,0.0,0.0,0.0,0.0,,,,,
pylon_camera_1771860937124789861.png,1771860937124789861,1771860937.1247897,42.300270853033425,-83.698622776507,236.5950469970703,-0.6840415248353683,-0.729286012343205,0.015075190164925752,0.001357624006119476,-0.0011900000000000003,-0.0011500000000000002,0.00521,1.4545000000000001,-0.3357,-9.973600000000001,4.917271963448677,10.999642345916884,13.649999618530273,13.65999984741211,13.679999351501465,13.609999656677246,11.083925543243065,11.092045821297226,11.108285603013211,11.051445205418759,11.083925543243065,0.007662357981799979,-0.5,26.274999618530273,0.0,0.0,0.0,0.0,0.0,,,,,
pylon_camera_1771860937177185824.png,1771860937177185824,1771860937.1771858,42.300273510408886,-83.69862304941998,236.59800720214844,-0.6841469085111017,-0.7291851309429147,0.015182860437344417,0.0012381984521097756,-0.007070000000000001,-0.00795,0.0012100000000000001,1.4572,-0.30720000000000003,-9.7806,4.985922594663108,11.153209688905692,13.799999237060547,13.799999237060547,13.829999923706055,13.789999961853027,11.20572661648613,11.20572661648613,11.230087450648613,11.197607112824306,11.209786949111296,0.0050727334806483625,-1.2000000476837158,26.475000381469727,0.0,0.0,0.0,0.0,0.0,,,,,
pylon_camera_1771860937216860398.png,1771860937216860398,1771860937.2168605,42.30027530451976,-83.69862323626936,236.5999298095703,-0.6842013082012853,-0.7291343116752271,0.015186275733859965,0.0010499632745202274,-0.007580000000000002,-0.0021500000000000004,0.0017000000000000001,1.0318,-0.36060000000000003,-9.8924,5.036032979136624,11.26530361234988,14.09999942779541,13.949999809265137,14.00999927520752,13.989999771118164,11.449329537364598,11.327528464121533,11.376248583661823,11.36000880194584,11.378278846773448,0.010028600942429572,-1.5,26.42500114440918,0.0,0.0,0.0,0.0,0.0,,,,,
pylon_camera_1771860937267746328.png,1771860937267746328,1771860937.2677462,42.30027711737777,-83.69862341793105,236.60208129882812,-0.6842845632466436,-0.7290585998667383,0.01508659068269614,0.0007676224814039092,-0.01042,-0.00918,0.0016100000000000003,1.0203,-0.4218,-9.5998,5.103319191964522,11.41581883327312,14.149999618530273,14.15999984741211,14.170000076293945,14.199999809265137,11.489930153243066,11.498050431297225,11.506170709351387,11.530530769121533,11.506170515753302,0.007914603744134333,-1.600000023841858,26.450000762939453,0.0,0.0,0.0,0.0,0.0,,,,,
pylon_camera_1771860937317625855.png,1771860937317625855,1771860937.3176258,42.300279875330624,-83.69862370093551,236.60528564453125,-0.6844024560266787,-0.7289488131039783,0.015048787599557427,0.0006633631998662829,0.00288,0.0004700000000000001,0.00449,0.8778,-0.0634,-9.722900000000001,5.167910908243537,11.560306627086298,14.380000114440918,14.399999618530273,14.369999885559082,14.389999389648438,11.67669267652708,11.692932458243066,11.66857239847292,11.684812180188905,11.680752428357993,0.010418910601340344,-1.600000023841858,26.700000762939453,0.0,0.0,0.0,0.0,0.0,,,,,
pylon_camera_1771860937368350518.png,1771860937368350518,1771860937.3683505,42.300282676968756,-83.6986239799071,236.60833740234375,-0.6844927678148018,-0.7288592924589489,0.015269682329855507,0.0007870241530983302,0.013430000000000003,-0.00198,0.004110000000000001,0.9949,0.0002,-9.891,5.2345752880787835,11.709430844914955,14.569999694824219,14.609999656677246,14.50999927520752,14.549999237060547,11.830974087594452,11.863454425418759,11.782253193661825,11.81473353148613,11.822853809540291,0.009686462657968731,-1.600000023841858,26.5,0.0,0.0,0.0,0.0,0.0,,,,,
pylon_camera_1771860937419118002.png,1771860937419118002,1771860937.4191182,42.30028457111852,-83.69862416448882,236.61032104492188,-0.6845647678213609,-0.7287836914368288,0.01563466943237716,0.000983293006083337,0.017190000000000004,-0.006170000000000001,0.0009100000000000001,0.8624,-0.0757,-9.7193,5.2991267003283475,11.853828481032494,14.729999542236328,14.699999809265137,14.769999504089355,14.739999771118164,11.96089543889168,11.936535379121532,11.993375776715984,11.96901571694584,11.96495557791876,0.009374785291020718,-1.600000023841858,26.700000762939453,0.0,0.0,0.0,0.0,0.0,,,,,
pylon_camera_1771860937470018462.png,1771860937470018462,1771860937.4700186,42.30028744283089,-83.69862443741326,236.61326599121094,-0.6846052160564547,-0.7287384728351949,0.015950683991671887,0.0012296496739970342,0.019040000000000005,0.0005700000000000001,-0.0019400000000000003,1.0102,-0.40490000000000004,-10.0487,5.3615563957302745,11.993479963864882,14.859999656677246,14.90999984741211,14.880000114440918,14.880000114440918,12.066456730418759,12.107057346297227,12.082697286527083,12.082697286527083,12.084727162442537,0.0076080669540928274,-1.600000023841858,26.600000381469727,0.0,0.0,0.0,0.0,0.0,,,,,
pylon_camera_1771860937519885757.png,1771860937519885757,1771860937.5198858,42.30028937842357,-83.69862462069851,236.61532592773438,-0.68462486777584,-0.7287151103561788,0.016156667799038037,0.0014284422030508607,0.016870000000000003,0.00221,-0.0015700000000000002,1.2994,-0.5075000000000001,-9.896600000000001,5.424929416938742,12.13524160992695,15.089999198913574,15.239999771118164,15.079999923706055,15.079999923706055,12.253218479310437,12.375020326945839,12.245098975648615,12.245098975648615,12.279609189388378,0.011896555841404153,-1.600000023841858,26.600000381469727,0.0,0.0,0.0,0.0,0.0,,,,,
pylon_camera_1771860937570380889.png,1771860937570380889,1771860937.5703807,42.300292311819675,-83.69862489806262,236.61898803710938,-0.6846800594348278,-0.7286573780526717,0.016396751404996624,0.0016697799523170682,0.015830000000000004,-0.0009700000000000002,-0.00036,1.393,-0.4519,-9.7254,5.486895050348213,12.273855013925933,15.229999542236328,15.179999351501465,15.269999504089355,15.239999771118164,12.36690004889168,12.326299433013212,12.399380386715984,12.375020326945839,12.366900048891678,0.007580750698144559,-1.8000000715255737,26.80000114440918,0.0,0.0,0.0,0.0,0.0,,,,,
pylon_camera_1771860937629295977.png,1771860937629295977,1771860937.6292958,42.30029528506958,-83.69862518424524,236.62246704101562,-0.6847234668113664,-0.7286125010634313,0.016551818154289306,0.001906464712990902,0.007280000000000001,0.004560000000000001,0.00237,1.0186,-0.3997,-9.6396,5.55802455882519,12.432967456618421,15.479999542236328,15.519999504089355,15.449999809265137,15.489999771118164,12.56990235389168,12.602382691715986,12.545542294121534,12.578022631945839,12.57396249291876,0.011340417063931369,-2.299999952316284,26.774999618530273,0.0,0.0,0.0,0.0,0.0,,,,,
pylon_camera_1771860937680086559.png,1771860937680086559,1771860937.6800866,42.30029728621715,-83.69862537544388,236.62454223632812,-0.6847463754419845,-0.7285923283751895,0.016467480021441088,0.002107712890389618,0.0024000000000000002,0.00768,-0.0008800000000000001,1.1038000000000001,-0.2079,-9.6872,5.615561893140017,12.56167502124063,15.639999389648438,15.59999942779541,15.670000076293945,15.670000076293945,12.699823705188903,12.667343367364598,12.724184539351388,12.724184539351388,12.703884037814067,0.011320864162858442,-2.799999952316284,26.850000381469727,0.0,0.0,0.0,0.0,0.0,,,,,
pylon_camera_1771860937730026541.png,1771860937730026541,1771860937.7300265,42.30030032283249,-83.6986256758292,236.6267547607422,-0.6847817170015051,-0.7285642298789899,0.016206427682833882,0.0023483404919266092,-0.00521,0.01771,-0.00033000000000000005,1.1795,-0.6075,-9.9144,5.674311277558653,12.693093869222054,15.799999237060547,15.829999923706055,15.84999942779541,15.84999942779541,12.82974505648613,12.854105890648613,12.870345672364598,12.870345672364598,12.856135572965986,0.012844914362389796,-3.4000000953674316,26.725000381469727,0.0,0.0,0.0,0.0,0.0,,,,,
pylon_camera_1771860937780954076.png,1771860937780954076,1771860937.7809541,42.30030237217537,-83.69862588170174,236.62799072265625,-0.684872107669984,-0.7284844979941972,0.01593648332355117,0.0025614092008715973,-0.0017900000000000004,0.012,0.0034000000000000002,1.0151000000000001,-0.6551,-9.7955,5.736161663833512,12.831449472295736,16.010000228881836,16.029998779296875,15.960000038146973,15.989999771118164,13.00026779805416,13.016506805377809,12.959667182175693,12.98402724194584,12.990117256888375,0.012365538666166853,-4.0,26.600000381469727,0.0,0.0,0.0,0.0,0.0,,,,,
pylon_camera_1771860937821937837.png,1771860937821937837,1771860937.821938,42.30030443339798,-83.69862608781908,236.62925720214844,-0.6849744643059601,-0.7283898352709194,0.01583888255510984,0.0027131019463116873,0.0020700000000000002,0.007430000000000001,0.00613,1.0409000000000002,-0.543,-9.6926,5.785226381423079,12.941204301660543,16.1299991607666,16.09000015258789,16.1299991607666,16.139999389648438,13.097708037134742,13.065228473702776,13.097708037134742,13.105828315188905,13.091618215790291,0.011622868368629956,-4.400000095367432,26.92500114440918,0.0,0.0,0.0,0.0,0.0,,,,,
pylon_camera_1771860937873089605.png,1771860937873089605,1771860937.8730896,42.30030755822984,-83.69862640094509,236.6317596435547,-0.6851955746083662,-0.7281871245572203,0.015587304132478486,0.0027517478227394887,-0.006910000000000001,0.0060300000000000015,0.011070000000000002,0.9979,-0.47100000000000003,-10.149000000000001,5.854672042394104,13.096550078513069,16.31999969482422,16.279998779296875,16.350000381469727,16.270000457763672,13.251990222594452,13.219509110377807,13.276351056756935,13.211390381108323,13.23981019270938,0.010938767334715983,-5.300000190734863,26.899999618530273,0.0,0.0,0.0,0.0,0.0,,,,,
pylon_camera_1771860937922838789.png,1771860937922838789,1771860937.9228387,42.30030965976755,-83.6986266082773,236.6341094970703,-0.6853927673923704,-0.7280059335271374,0.015378705861268827,0.0027587246223443637,0.00034,0.008130000000000002,0.0103,1.1913,-0.2237,-10.06,5.912201278297613,13.225239527475063,16.479999542236328,16.5,16.44999885559082,16.420000076293945,13.381911573891678,13.39815213,13.357550739729195,13.333191454351388,13.367701474493066,0.0107719748078696,-6.800000190734863,26.875,0.0,0.0,0.0,0.0,0.0,,,,,
pylon_camera_1771860937974266942.png,1771860937974266942,1771860937.9742668,42.3003128487254,-83.698626923091,236.6381072998047,-0.6856009789593275,-0.7278101727998028,0.015364236146963039,0.0027550438750654524,0.0013700000000000001,0.00026000000000000003,0.010440000000000001,1.0032,-0.1111,-9.8934,5.968863495883719,13.351989508482127,16.6299991607666,16.579999923706055,16.690000534057617,16.5,13.503712647134742,13.463112805648613,13.55243431545971,13.39815213,13.479352974560765,0.009538912983546574,-8.5,27.075000762939453,0.0,0.0,0.0,0.0,0.0,,,,,
pylon_camera_1771860938032889273.png,1771860938032889273,1771860938.0328894,42.3003160721609,-83.69862724127616,236.64303588867188,-0.6858929026958345,-0.7275382773884905,0.015232496839606199,0.002636665716712242,-0.009900000000000003,-0.0011,0.012620000000000003,1.1567,-0.4033,-9.724,6.024975920527984,13.47750963566587,16.760000228881836,16.729999542236328,16.84000015258789,16.729999542236328,13.609274713054162,13.58491387889168,13.674235388702774,13.58491387889168,13.613334464885074,0.01007788774713751,-10.5,27.024999618530273,0.0,0.0,0.0,0.0,0.0,,,,,
pylon_camera_1771860938083971679.png,1771860938083971679,1771860938.0839715,42.300318243013564,-83.69862745835988,236.6463623046875,-0.686235673095487,-0.7272213080836418,0.014967357863522284,0.0023975485159050034,-0.011860000000000002,0.004390000000000001,0.019670000000000003,0.9049,-0.12240000000000001,-9.5984,6.0921726508494505,13.62782468959117,17.029998779296875,16.899999618530273,17.06999969482422,16.940000534057617,13.828516025377809,13.722955508243064,13.860997137594453,13.75543662045971,13.791976322918758,0.012045329101787306,-11.90000057220459,26.875,0.0,0.0,0.0,0.0,0.0,,,,,
pylon_camera_1771860938124931287.png,1771860938124931287,1771860938.1249313,42.30032042634287,-83.69862767699908,236.6496124267578,-0.6866111564807397,-0.7268717305282635,0.01475692266064002,0.0022000883201814645,-0.00979,0.003650000000000001,0.029050000000000006,1.034,0.098,-9.6248,6.136576689475027,13.727153859754267,17.06999969482422,17.100000381469727,17.219999313354492,17.03999900817871,13.860997137594453,13.885357971756937,13.982798210837517,13.83663630343197,13.891447405905218,0.011968507662220665,-12.699999809265137,26.950000762939453,0.0,0.0,0.0,0.0,0.0,,,,,
pylon_camera_1771860938185090526.png,1771860938185090526,1771860938.1850905,42.30032373415794,-83.6986280054371,236.6546630859375,-0.6872514044687562,-0.7262679614918368,0.014728072607998573,0.0018544658171628166,-0.00524,-0.01391,0.030440000000000005,1.1785,-0.0751,-9.7406,6.210236329419788,13.891926054732302,17.3799991607666,17.209999084472656,17.350000381469727,17.270000457763672,14.112719562134744,13.974677932783356,14.088360276756935,14.023399601108322,14.04978934319584,0.011363671807752095,-13.0,26.875,0.0,0.0,0.0,0.0,0.0,,,,,
pylon_camera_1771860938226010450.png,1771860938226010450,1771860938.2260103,42.300325956828736,-83.69862821899741,236.6583709716797,-0.6877275957582538,-0.7258154933342883,0.014826378391547324,0.0016739690158346727,-0.00044000000000000007,-0.006200000000000001,0.031210000000000005,0.8144,0.2716,-9.927,6.248165346444535,13.976770990075638,17.479999542236328,17.350000381469727,17.510000228881836,17.31999969482422,14.193920793891678,14.088360276756935,14.21828162805416,14.06399944259445,14.141140535324308,0.011760194494521117,-13.0,27.024999618530273,0.0,0.0,0.0,0.0,0.0,,,,,
pylon_camera_1771860938277544441.png,1771860938277544441,1771860938.2775445,42.300329322229906,-83.69862852852712,236.66368103027344,-0.6882829568114872,-0.7252854977266124,0.014998024443056885,0.0016054323722066632,0.010220000000000002,-0.0033100000000000004,0.027540000000000005,0.7041000000000001,0.2838,-9.799100000000001,6.296315477862049,14.084479945048734,17.68000030517578,17.239999771118164,17.6299991607666,17.44999885559082,14.356323257405549,13.999038766945839,14.315721867134743,14.169559959729195,14.21016096280383,0.008923369428295951,-12.800000190734863,27.024999618530273,0.0,0.0,0.0,0.0,0.0,,,,,
pylon_camera_1771860938327371296.png,1771860938327371296,1771860938.3273714,42.30033158612372,-83.69862872646279,236.6671905517578,-0.6887769314166059,-0.7248141298557095,0.015085477156935678,0.0018011909344486036,0.011500000000000002,0.00922,0.026000000000000006,0.6791,0.0079,-10.0199,6.344080459800621,14.191327343746401,17.78999900817871,17.670000076293945,17.779998779296875,17.6299991607666,14.445643218431968,14.348202979351388,14.437522940377809,14.315721867134743,14.386772751323976,0.013772172457405847,-12.600000381469727,26.67500114440918,0.0,0.0,0.0,0.0,0.0,,,,,
pylon_camera_1771860938377970191.png,1771860938377970191,1771860938.3779702,42.30033500388459,-83.69862901781792,236.67311096191406,-0.6892595758764766,-0.7243553877209487,0.015063154765077923,0.0019001870268805933,0.0019900000000000004,0.00543,0.025580000000000002,0.8483,-0.2938,-9.9228,6.397653046301927,14.311166005394632,18.010000228881836,17.75,17.93000030517578,17.78999900817871,14.624286238054161,14.413163655,14.559325562405549,14.445643218431968,14.510604668472919,0.013935877971306276,-12.40000057220459,27.05000114440918,0.0,0.0,0.0,0.0,0.0,,,,,
pylon_camera_1771860938428092938.png,1771860938428092938,1771860938.428093,42.30033845783709,-83.69862930909362,236.6793975830078,-0.6897605150129511,-0.7238802590898185,0.014981452290452307,0.001832625546770874,-0.005320000000000001,4e-05,0.028490000000000005,0.9618000000000001,-0.4748,-9.8309,6.45289744120547,14.434744402130164,18.06999969482422,17.8799991607666,18.06999969482422,17.969999313354492,14.673006357594453,14.518724172134743,14.673006357594453,14.591805125837517,14.61413550329029,0.012427729661333889,-12.199999809265137,26.5,0.0,0.0,0.0,0.0,0.0,,,,,
pylon_camera_1771860938478661347.png,1771860938478661347,1771860938.4786613,42.30034078027154,-83.69862950411859,236.683349609375,-0.6902755363503577,-0.7233901238428112,0.01495442213823628,0.001666703758781222,-0.008290000000000002,-0.00863,0.03072,0.6806,-0.4204,-9.7527,6.507002877070691,14.555775015834511,18.15999984741211,18.010000228881836,18.209999084472656,18.06999969482422,14.746087311297225,14.624286238054161,14.786687152783356,14.673006357594453,14.707516764932299,0.010424848483348728,-12.100000381469727,26.375,0.0,0.0,0.0,0.0,0.0,,,,,
pylon_camera_1771860938528697453.png,1771860938528697453,1771860938.5286973,42.300344292408745,-83.69862979931189,236.6890106201172,-0.6908145544836602,-0.7228782202457107,0.014842992453191466,0.0014197122844540721,-0.010980000000000002,-0.008020000000000001,0.031610000000000006,0.7845000000000001,-0.21730000000000002,-9.599,6.558694177706139,14.67140535387797,18.350000381469727,18.170000076293945,18.420000076293945,18.239999771118164,14.900369496756936,14.754207589351388,14.957209894351388,14.811047986945841,14.855708741851387,0.012562081377207771,-12.0,26.125,0.0,0.0,0.0,0.0,0.0,,,,,
pylon_camera_1771860938581465612.png,1771860938581465612,1771860938.5814655,42.30034664339312,-83.6986299882946,236.69244384765625,-0.6913657681533874,-0.7223522522266975,0.014792701394216744,0.001332033841808607,-0.00151,-0.00434,0.029040000000000003,0.6485000000000001,0.12710000000000002,-9.7608,6.607054891331178,14.779585368614367,18.479999542236328,18.34000015258789,18.549999237060547,18.350000381469727,15.005930013891678,14.892249218702775,15.06277041148613,14.900369496756936,14.965329785209379,0.012567633797728558,-11.699999809265137,26.075000762939453,0.0,0.0,0.0,0.0,0.0,,,,,
pylon_camera_1771860938630218397.png,1771860938630218397,1771860938.6302185,42.30035020389077,-83.69863026989457,236.69656372070312,-0.6919169564040354,-0.7218279593508257,0.014610093755013868,0.0013666383826009204,-0.00143,0.006950000000000001,0.027640000000000005,0.7992,0.19890000000000002,-9.6392,6.653810812976274,14.884175559979147,18.649999618530273,18.510000228881836,18.649999618530273,18.510000228881836,15.143971643243065,15.030290848054163,15.143971643243065,15.030290848054163,15.087131245648614,0.013635668623472723,-11.300000190734863,26.200000762939453,0.0,0.0,0.0,0.0,0.0,,,,,
pylon_camera_1771860938681117958.png,1771860938681117958,1771860938.681118,42.300352601777796,-83.69863045081905,236.69898986816406,-0.6924281825895968,-0.7213385323046398,0.014547346944541486,0.0015193633967359099,0.006530000000000001,-0.00048,0.025650000000000006,0.9368000000000001,-0.5191,-10.1532,6.7083233279485,15.006116785221119,18.760000228881836,18.690000534057617,18.770000457763672,18.719999313354492,15.233293153054163,15.17645275545971,15.241413431108322,15.200812040837517,15.212992845114929,0.013786115545732228,-10.90000057220459,25.524999618530273,0.0,0.0,0.0,0.0,0.0,,,,,
pylon_camera_1771860938731158838.png,1771860938731158838,1771860938.7311587,42.30035622086794,-83.69863071332347,236.70346069335938,-0.6928933414649188,-0.7208921277787753,0.014542767148822938,0.0013657905492488933,0.004750000000000001,-0.011320000000000002,0.020180000000000003,0.9702000000000001,-0.2106,-10.3393,6.76069126385937,15.123260715777581,18.969999313354492,18.779998779296875,18.899999618530273,18.760000228881836,15.403814345837517,15.249532160377807,15.346973948243065,15.233293153054163,15.308403401878138,0.01224224653532579,-10.699999809265137,25.375,0.0,0.0,0.0,0.0,0.0,,,,,
pylon_camera_1771860938782262416.png,1771860938782262416,1771860938.7822626,42.300358654151296,-83.69863088360032,236.706787109375,-0.6932832439307793,-0.7205144215934236,0.014703214457023057,0.0010618122906124496,0.011840000000000002,-0.01922,0.017380000000000003,1.0149000000000001,-0.0869,-10.0858,6.810528714179801,15.234744101897366,18.989999771118164,18.85999870300293,19.059999465942383,18.899999618530273,15.42005490194584,15.314492836026421,15.476895299540292,15.346973948243065,15.389604246438903,0.010164932440332265,-10.600000381469727,24.950000762939453,0.0,0.0,0.0,0.0,0.0,,,,,
pylon_camera_1771860938832027272.png,1771860938832027272,1771860938.8320274,42.30036232583987,-83.69863113312985,236.71253967285156,-0.693734102258085,-0.7200774276906309,0.014853665697460595,0.0009284987674528434,0.009430000000000001,-0.007250000000000001,0.02338,1.1525,0.36050000000000004,-10.0602,6.852724162720846,15.32913278855677,19.139999389648438,18.84000015258789,19.189998626708984,19.059999465942383,15.541855975188904,15.298253828702775,15.582455816675035,15.476895299540292,15.47486523002675,0.009506894061141592,-10.600000381469727,23.975000381469727,0.0,0.0,0.0,0.0,0.0,,,,,
pylon_camera_1771860938882999780.png,1771860938882999780,1771860938.883,42.30036478518957,-83.69863129659943,236.71661376953125,-0.6943029576642701,-0.7195269608818645,0.01495530114403094,0.0008333729331951573,0.00234,-0.00642,0.025610000000000004,0.9084000000000001,0.6441,-9.8233,6.904463751510177,15.444871144303177,19.34000015258789,19.139999389648438,19.309999465942383,19.260000228881836,15.704258438702775,15.541855975188904,15.679897604540292,15.639297763054161,15.641327445371532,0.012719840731129585,-10.699999809265137,23.05000114440918,0.0,0.0,0.0,0.0,0.0,,,,,
pylon_camera_1771860938932735859.png,1771860938932735859,1771860938.9327357,42.30036850505315,-83.69863154493795,236.7223663330078,-0.6948328160390624,-0.7190162566240791,0.014913255617083867,0.0007584671532581438,-0.0015600000000000002,-0.0037100000000000006,0.031540000000000006,1.4313,0.5058,-10.026200000000001,6.9510905193095285,15.549172426264258,19.479999542236328,19.270000457763672,19.420000076293945,19.309999465942383,15.817939233891678,15.647418041108322,15.769219114351388,15.679897604540292,15.72861849847292,0.011540554525304414,-10.699999809265137,22.200000762939453,0.0,0.0,0.0,0.0,0.0,,,,,
pylon_camera_1771860938983923282.png,1771860938983923282,1771860938.9839232,42.30037100533934,-83.69863170958118,236.72634887695312,-0.6953416976137599,-0.7185180311249534,0.015212849572594372,0.0005759477551230539,0.00269,-0.016040000000000002,0.029110000000000004,1.1812,0.5806,-9.7082,6.998565154791939,15.655370337360281,19.510000228881836,19.399999618530273,19.579999923706055,19.479999542236328,15.842300068054161,15.752978558243067,15.899140465648614,15.817939233891678,15.82808958145938,0.011032587564340042,-10.699999809265137,21.075000762939453,0.0,0.0,0.0,0.0,0.0,,,,,
pylon_camera_1771860939033786578.png,1771860939033786578,1771860939.0337865,42.300374777522634,-83.69863193944892,236.73219299316406,-0.6957898622526526,-0.7180743506594648,0.015668380854436594,0.0004431171661027253,0.00839,-0.009080000000000001,0.023590000000000003,0.9971000000000001,0.3124,-9.5578,7.036052599511878,15.7392275019521,19.6299991607666,19.549999237060547,19.689998626708984,19.59000015258789,15.939740307134743,15.874779631486131,15.988460426675033,15.907260743702773,15.92756027724967,0.011965820766883935,-10.699999809265137,20.975000381469727,0.0,0.0,0.0,0.0,0.0,,,,,
pylon_camera_1771860939084299372.png,1771860939084299372,1771860939.0842993,42.3003773071223,-83.69863208884958,236.73565673828125,-0.696208913197442,-0.7176597256983933,0.016047003817370977,0.0004012024784897678,0.005770000000000001,-0.0021200000000000004,0.021990000000000003,0.6504,-0.027600000000000003,-8.9435,7.06959387926621,15.814257332285758,19.809999465942383,19.69999885559082,19.85999870300293,19.69999885559082,16.08590221454029,15.996580704729196,16.12650205602642,15.996580704729196,16.051391420006276,0.01499495567435814,-10.699999809265137,21.05000114440918,0.0,0.0,0.0,0.0,0.0,,,,,
pylon_camera_1771860939134138075.png,1771860939134138075,1771860939.134138,42.3003811197321,-83.69863230251458,236.73907470703125,-0.6966486436154306,-0.7172313029308715,0.016114496588818743,0.0004984421273486665,0.0023300000000000005,0.010440000000000001,0.028040000000000006,0.4544,0.1804,-9.6297,7.103657241569666,15.890455029956849,19.8799991607666,19.78999900817871,19.959999084472656,19.779998779296875,16.142742612134743,16.06966165843197,16.207703287783357,16.061541380377808,16.120412234681968,0.014471404644587054,-10.699999809265137,20.875,0.0,0.0,0.0,0.0,0.0,,,,,
pylon_camera_1771860939194018259.png,1771860939194018259,1771860939.1940184,42.30038495654832,-83.69863251694582,236.74134826660156,-0.6972472168258559,-0.7166519983763991,0.015997903699632565,0.000546743933271291,0.0021200000000000004,0.0023000000000000004,0.027630000000000005,0.6738000000000001,0.1978,-9.8244,7.149049157558024,15.991994022507848,20.049999237060547,19.93000030517578,20.029998779296875,19.8799991607666,16.28078424148613,16.183344002405548,16.26454368537781,16.142742612134743,16.21785363535106,0.014123292725430345,-10.699999809265137,20.55000114440918,0.0,0.0,0.0,0.0,0.0,,,,,
pylon_camera_1771860939235073810.png,1771860939235073810,1771860939.2350738,42.30038752407903,-83.69863265500348,236.74319458007812,-0.697681744743382,-0.7162304463908844,0.015932567942827318,0.0005329102098160591,0.0015400000000000001,-0.0006300000000000001,0.03386,0.7563000000000001,0.6208,-10.46,7.1777775649358695,16.056257746107644,20.1299991607666,20.010000228881836,20.049999237060547,20.010000228881836,16.34574491713474,16.24830467805416,16.28078424148613,16.24830467805416,16.280784628682298,0.013983761728606034,-10.699999809265137,20.75,0.0,0.0,0.0,0.0,0.0,,,,,
pylon_camera_1771860939286501582.png,1771860939286501582,1771860939.2865016,42.30039010925403,-83.69863279927468,236.74569702148438,-0.6981776990918003,-0.7157445826540313,0.016043658435023096,0.0004403592925665516,-0.021500000000000002,-0.023460000000000005,0.032970000000000006,0.368,0.5264,-10.8621,7.215176974563495,16.139917981480068,20.209999084472656,20.15999984741211,20.189998626708984,20.079999923706055,16.410705592783355,16.370105751297224,16.394465036675037,16.305145075648614,16.370105364101057,0.01426199209222259,-10.699999809265137,20.625,0.0,0.0,0.0,0.0,0.0,,,,,
pylon_camera_1771860939337653495.png,1771860939337653495,1771860939.3376534,42.30039400164867,-83.6986329935162,236.7508544921875,-0.6987041223870082,-0.7152224216142042,0.016410806400176052,0.0003498757063018233,-0.00801,-0.009040000000000001,0.034710000000000005,0.21960000000000002,0.013900000000000001,-9.8594,7.247840414454076,16.2129841367089,20.270000457763672,20.119998931884766,20.34000015258789,20.139999389648438,16.459427261108324,16.337624639080584,16.516267658702777,16.353865195188906,16.416796188520145,0.012570915390571424,-10.699999809265137,20.875,0.0,0.0,0.0,0.0,0.0,,,,,
pylon_camera_1771860939387282992.png,1771860939387282992,1771860939.3872828,42.30039661003413,-83.69863311544708,236.75466918945312,-0.6991883332374689,-0.7147404169653976,0.016785198931129487,0.00026099345235615134,-0.00099,-0.005880000000000001,0.02782,0.5291,-0.6408,-9.3244,7.277975757653376,16.280395091325143,20.350000381469727,20.18000030517578,20.5,20.299999237060547,16.524387936756934,16.38634630740555,16.64618901,16.48378654648613,16.510177450162153,0.014114052978938295,-10.600000381469727,19.950000762939453,0.0,0.0,0.0,0.0,0.0,,,,,
pylon_camera_1771860939446064424.png,1771860939446064424,1771860939.4460645,42.30040053519053,-83.69863329358934,236.75946044921875,-0.6997405763580118,-0.7141955043507945,0.016963304935304943,0.00039198079503144486,0.0020700000000000002,0.003790000000000001,0.028390000000000006,0.1776,-0.6419,-9.6715,7.306543983455883,16.344300498351807,20.489999771118164,20.420000076293945,20.53999900817871,20.420000076293945,16.63806873194584,16.581228334351387,16.67866857343197,16.581228334351387,16.619798493520147,0.016855906142702288,-10.5,19.375,0.0,0.0,0.0,0.0,0.0,,,,,
pylon_camera_1771860939488721798.png,1771860939488721798,1771860939.4887218,42.30040447896922,-83.69863346611432,236.7629852294922,-0.7001263358601848,-0.7138188557303456,0.016895016745653857,0.0005598642475600573,0.010320000000000001,0.008650000000000001,0.025250000000000005,0.5452,-0.3987,-9.7295,7.333565817993125,16.404746720901542,20.579999923706055,20.469999313354492,20.600000381469727,20.510000228881836,16.711149685648614,16.621828175837518,16.727390241756936,16.65430928805416,16.678669347824307,0.016697766297955455,-10.300000190734863,18.350000381469727,0.0,0.0,0.0,0.0,0.0,,,,,
pylon_camera_1771860939547155185.png,1771860939547155185,1771860939.5471551,42.30040711681802,-83.69863357301752,236.76480102539062,-0.7007268787615676,-0.7132276729921263,0.016955873508248235,0.0007913361360206354,0.016390000000000002,-0.0012500000000000002,0.026330000000000003,0.3584,-0.4767,-9.9274,7.370080279573305,16.486427380588708,20.68000030517578,20.559999465942383,20.68000030517578,20.56999969482422,16.79235091740555,16.694909129540292,16.79235091740555,16.703029407594453,16.745660092986462,0.015724007780058967,-10.100000381469727,17.5,0.0,0.0,0.0,0.0,0.0,,,,,
pylon_camera_1771860939589100152.png,1771860939589100152,1771860939.5891001,42.30041109403832,-83.69863373368425,236.76734924316406,-0.7011316912520119,-0.7128278791485707,0.017025879552370057,0.0009410930413173108,0.016040000000000002,-0.0008500000000000001,0.0238,0.657,0.050100000000000006,-9.556700000000001,7.3942216124282885,16.540430093705336,20.770000457763672,20.59000015258789,20.75,20.639999389648438,16.86543187110832,16.719269963702775,16.849191315,16.759869805188906,16.798440738750003,0.015598786947073173,-10.0,17.524999618530273,0.0,0.0,0.0,0.0,0.0,,,,,
pylon_camera_1771860939639286814.png,1771860939639286814,1771860939.6392868,42.30041375905864,-83.69863383610432,236.76931762695312,-0.7016069772137933,-0.7123545751361673,0.017252084645084098,0.0009871083492042471,0.006910000000000001,-0.00909,0.024840000000000004,0.5606,-0.4368,-10.145900000000001,7.424289696190299,16.60769059299593,20.78999900817871,20.68000030517578,20.770000457763672,20.670000076293945,16.88167087843197,16.79235091740555,16.86543187110832,16.78423063935139,16.830921076574306,0.013441392247066607,-9.90000057220459,17.200000762939453,0.0,0.0,0.0,0.0,0.0,,,,,
pylon_camera_1771860939689865528.png,1771860939689865528,1771860939.6898656,42.30041776841495,-83.6986339862191,236.77267456054688,-0.7020692134030152,-0.7118943707593117,0.01745587555075681,0.0007189448041976222,-0.012310000000000001,-0.019060000000000004,0.02492,0.256,-0.6323000000000001,-9.9879,7.450752812488915,16.666886996368955,20.81999969482422,20.68000030517578,20.90999984741211,20.78999900817871,16.90603171259445,16.79235091740555,16.979112666297226,16.88167087843197,16.8897915436823,0.013374096036164797,-9.699999809265137,17.17500114440918,0.0,0.0,0.0,0.0,0.0,,,,,
pylon_camera_1771860939739745475.png,1771860939739745475,1771860939.7397456,42.30042045054492,-83.6986340856036,236.77491760253906,-0.7025274919259856,-0.7114465598836902,0.017285468313490975,0.00035791483609542437,-0.017470000000000003,0.007440000000000001,0.023840000000000004,-0.0085,-0.2672,-9.6094,7.465626799927576,16.700159213829995,20.920000076293945,20.829999923706055,20.979999542236328,20.850000381469727,16.987232944351387,16.914151990648616,17.03595306389168,16.930392546756934,16.966932636412153,0.01597430414682716,-9.600000381469727,17.5,0.0,0.0,0.0,0.0,0.0,,,,,
pylon_camera_1771860939790693998.png,1771860939790693998,1771860939.790694,42.30042448289697,-83.69863422749077,236.77798461914062,-0.7029656076778421,-0.7110203376204937,0.01700991864772722,0.0003107728415721285,0.005800000000000001,0.0073100000000000005,0.024170000000000004,0.0099,0.543,-9.841000000000001,7.48248059838354,16.737860149748077,21.10999870300293,20.85999870300293,21.0,20.94999885559082,17.141513581026423,16.93851127602642,17.05219362,17.011592229729196,17.03595267669551,0.017809476497025134,-9.5,17.0,0.0,0.0,0.0,0.0,0.0,,,,,
pylon_camera_1771860939840883643.png,1771860939840883643,1771860939.8408837,42.300427177492544,-83.69863430799636,236.7801513671875,-0.7034188819856949,-0.7105695906375364,0.017085557856405836,0.0009039026133355486,0.03286000000000001,0.020020000000000003,0.023580000000000004,0.14250000000000002,0.5414,-10.140600000000001,7.502124196370291,16.78180169982856,21.170000076293945,20.899999618530273,21.1299991607666,21.0,17.190235249351385,16.970992388243065,17.157754137134745,17.05219362,17.092793848682298,0.018531511360720933,-9.199999809265137,17.274999618530273,0.0,0.0,0.0,0.0,0.0,,,,,
pylon_camera_1771860939891857688.png,1771860939891857688,1771860939.8918576,42.300431238527665,-83.69863442920978,236.7847137451172,-0.7039014696560706,-0.710085147304354,0.017330828014275025,0.0012029106853982897,0.015750000000000004,0.0012300000000000002,0.024690000000000004,0.31320000000000003,0.3224,-9.7476,7.533060948648821,16.851005358470495,21.189998626708984,20.979999542236328,21.18000030517578,21.059999465942383,17.206474256675033,17.03595306389168,17.19835552740555,17.100913739540292,17.135424146878137,0.016878446262238774,-8.199999809265137,17.024999618530273,0.0,0.0,0.0,0.0,0.0,,,,,
pylon_camera_1771860939941683945.png,1771860939941683945,1771860939.941684,42.300433956947856,-83.69863450207157,236.7881317138672,-0.7043442765792532,-0.7096339513395873,0.017819591702001966,0.0011212973677853595,0.008310000000000001,-0.012580000000000001,0.02329,0.229,-0.46780000000000005,-9.5974,7.560542996924192,16.912481051539604,21.18000030517578,21.09000015258789,21.189998626708984,21.09000015258789,17.19835552740555,17.125274573702775,17.206474256675033,17.125274573702775,17.16384473287153,0.014862614217625083,-7.400000095367432,17.200000762939453,0.0,0.0,0.0,0.0,0.0,,,,,
pylon_camera_1771860939992923648.png,1771860939992923648,1771860939.9929237,42.300438045190695,-83.6986346053527,236.79244995117188,-0.7047562677327894,-0.7092157181529314,0.018194575505798075,0.0007909730302052743,-0.00305,-0.0038300000000000005,0.014780000000000003,-0.0734,-0.4732,-8.8649,7.579623560270242,16.955163126910918,21.219999313354492,21.100000381469727,21.299999237060547,21.189998626708984,17.230835090837516,17.133394851756936,17.29579576648613,17.206474256675033,17.216624991438902,0.01542078142043922,-7.200000286102295,17.0,0.0,0.0,0.0,0.0,0.0,,,,,
pylon_camera_1771860940051570977.png,1771860940051570977,1771860940.051571,42.300442145026075,-83.69863470409862,236.7945098876953,-0.7050547640572382,-0.708918188176615,0.01822398473585131,0.0008176386273871377,0.00079,0.007600000000000001,0.015920000000000004,-0.17900000000000002,-0.8913000000000001,-9.2768,7.593068504090042,16.98523865953918,21.279998779296875,21.239999771118164,21.35999870300293,21.25,17.279555210377808,17.247075646945838,17.34451588602642,17.255195925000002,17.28158566708752,0.017447326675148287,-7.300000190734863,17.350000381469727,0.0,0.0,0.0,0.0,0.0,,,,,
pylon_camera_1771860940093644975.png,1771860940093644975,1771860940.093645,42.30044488276609,-83.6986347691127,236.79478454589844,-0.7053896009242787,-0.7085922256532717,0.0179266571527957,0.0010970938682824966,0.0016500000000000002,0.025480000000000003,0.020760000000000004,-0.1577,-0.5007,-9.6179,7.606530680089046,17.01535273951839,21.420000076293945,21.28999900817871,21.489999771118164,21.279998779296875,17.393237554351387,17.28767548843197,17.45007795194584,17.279555210377808,17.352636551276753,0.01982232263542882,-7.300000190734863,17.30000114440918,0.0,0.0,0.0,0.0,0.0,,,,,
pylon_camera_1771860940152445893.png,1771860940152445893,1771860940.152446,42.30044899884592,-83.69863487203898,236.7953643798828,-0.7058915235744226,-0.7081054569372127,0.017384314752659183,0.0012666499523532552,-0.009320000000000002,0.011500000000000002,0.026370000000000005,0.0964,-0.32730000000000004,-10.6007,7.632101926558418,17.072554083595588,21.44999885559082,21.35999870300293,21.369998931884766,21.350000381469727,17.417596839729196,17.34451588602642,17.352636164080582,17.336397156756938,17.36278651164828,0.01699994193203742,-7.200000286102295,17.024999618530273,0.0,0.0,0.0,0.0,0.0,,,,,
pylon_camera_1771860940194946868.png,1771860940194946868,1771860940.1949468,42.30045175201415,-83.6986349358844,236.7973175048828,-0.7062267751517907,-0.7077723616704108,0.017333846765572262,0.0012505480794289415,0.0029900000000000005,-0.0014100000000000002,0.019100000000000002,0.19,-0.44430000000000003,-11.058900000000001,7.652977650688085,17.119251825930206,21.459999084472656,21.420000076293945,21.389999389648438,21.469999313354492,17.425717117783357,17.393237554351387,17.368876720188904,17.433837395837518,17.40541719704029,0.0167159975225456,-7.200000286102295,16.899999618530273,0.0,0.0,0.0,0.0,0.0,,,,,
pylon_camera_1771860940244265313.png,1771860940244265313,1771860940.2442653,42.3004545129103,-83.69863499223486,236.80084228515625,-0.706562482690295,-0.7074285995180408,0.017693629937405475,0.0010817107322004683,-0.010030000000000002,-0.01208,0.018150000000000003,-0.0826,-0.26330000000000003,-9.706900000000001,7.672097097433585,17.162020881133085,21.479999542236328,21.369998931884766,21.510000228881836,21.520000457763672,17.44195767389168,17.352636164080582,17.46631850805416,17.474438786108323,17.433837783033685,0.01583828057215682,-7.200000286102295,17.100000381469727,0.0,0.0,0.0,0.0,0.0,,,,,
pylon_camera_1771860940295429322.png,1771860940295429322,1771860940.2954295,42.300458664637404,-83.69863506553378,236.8065643310547,-0.7068205257339445,-0.7071641285178678,0.017966026333129846,0.0009282437999146419,-0.006240000000000001,-0.01063,0.011760000000000001,0.030100000000000002,-0.7977000000000001,-9.2322,7.687964216051383,17.19751467345398,21.520000457763672,21.389999389648438,21.59000015258789,21.520000457763672,17.474438786108323,17.368876720188904,17.531279183702775,17.474438786108323,17.462258369027083,0.015394299734586636,-7.099999904632568,17.200000762939453,0.0,0.0,0.0,0.0,0.0,,,,,
pylon_camera_1771860940345466986.png,1771860940345466986,1771860940.3454669,42.30046143886596,-83.69863510965024,236.8098602294922,-0.7070823954401508,-0.7069035256474835,0.017927502349610228,0.000704375809376663,-0.01872,-0.009600000000000001,0.018120000000000004,-0.1633,-0.6626000000000001,-9.407300000000001,7.704491158855861,17.23448445289103,21.53999900817871,21.510000228881836,21.639999389648438,21.549999237060547,17.49067779343197,17.46631850805416,17.571879025188903,17.49879807148613,17.506918349540292,0.01580748744727093,-7.0,17.149999618530273,0.0,0.0,0.0,0.0,0.0,,,,,
pylon_camera_1771860940405007839.png,1771860940405007839,1771860940.4050078,42.30046561014386,-83.69863518271013,236.81321716308594,0.7074663195567136,0.7065274361935443,-0.017610538569965573,-0.0005074740689246272,-0.01289,0.0024000000000000002,0.020180000000000003,-0.21780000000000002,-0.28950000000000004,-9.522400000000001,7.723166669479596,17.27626044962569,21.68000030517578,21.559999465942383,21.719999313354492,21.65999984741211,17.60436013740555,17.506918349540292,17.63683970083752,17.588119581297228,17.584059442270146,0.01781629731398997,-6.900000095367432,17.075000762939453,0.0,0.0,0.0,0.0,0.0,,,,,
pylon_camera_1771860940455140539.png,1771860940455140539,1771860940.4551406,42.30046979223308,-83.69863525501897,236.81533813476562,0.7078371843498201,0.706159173629953,-0.017479191218441915,-0.00046885427361150796,-0.00941,-0.004670000000000001,0.023320000000000004,0.0766,-0.1865,-9.9887,7.741877278326961,17.318114958980715,21.760000228881836,21.60999870300293,21.69999885559082,21.619998931884766,17.66932081305416,17.54751819102642,17.620599144729194,17.55563846908058,17.59826915447259,0.016176945132622196,-6.900000095367432,17.17500114440918,0.0,0.0,0.0,0.0,0.0,,,,,
pylon_camera_1771860940507747702.png,1771860940507747702,1771860940.5077477,42.30047398544315,-83.69863532077554,236.81776428222656,0.7081845813654688,0.7058111467213545,-0.017466372523674452,-0.0003869250140652748,-0.00062,-0.006680000000000001,0.016800000000000002,0.1091,0.07050000000000001,-10.044,7.761325008380424,17.361618364246507,21.760000228881836,21.619998931884766,21.760000228881836,21.689998626708984,17.66932081305416,17.55563846908058,17.66932081305416,17.612478866675033,17.626689740465984,0.01526766518295034,-6.900000095367432,17.225000381469727,0.0,0.0,0.0,0.0,0.0,,,,,
pylon_camera_1771860940547146932.png,1771860940547146932,1771860940.547147,42.30047538986698,-83.69863533505044,236.81886291503906,0.7084072299050032,0.7055807247603576,-0.01774551916796946,-0.0003660798107651791,0.016280000000000003,-0.014700000000000003,0.01208,0.3347,0.20350000000000001,-10.110700000000001,7.779133663620264,17.401455257498714,21.829999923706055,21.689998626708984,21.809999465942383,21.689998626708984,17.726161210648613,17.612478866675033,17.70992065454029,17.612478866675033,17.66525989963474,0.015159918422474845,-6.800000190734863,17.17500114440918,0.0,0.0,0.0,0.0,0.0,,,,,
pylon_camera_1771860940598289613.png,1771860940598289613,1771860940.5982897,42.30047960757653,-83.69863536928715,236.82264709472656,0.7086313819466672,0.7053284526024323,-0.01878829165027862,-0.0005818648291621137,0.04703000000000001,-0.029810000000000007,0.013110000000000002,0.4223,-0.065,-10.1454,7.805192903942515,17.459748214545172,21.770000457763672,21.65999984741211,21.8799991607666,21.729999542236328,17.677441091108324,17.588119581297228,17.766761052134743,17.644959978891677,17.669320425857993,0.01200316343269103,-6.0,16.875,0.0,0.0,0.0,0.0,0.0,,,,,
pylon_camera_1771860940648233144.png,1771860940648233144,1771860940.6482332,42.30048383702492,-83.69863537765313,236.82713317871094,0.7088679151898215,0.7050415477199397,-0.02052727105714336,-0.0011514973098270423,0.06384000000000001,-0.03504000000000001,0.01769,-0.1527,-0.3543,-9.8195,7.819882744662221,17.49260850684471,21.829999923706055,21.719999313354492,21.93000030517578,21.739999771118164,17.726161210648613,17.63683970083752,17.807362442405548,17.653080256945838,17.70586090270938,0.012191000317718427,-4.700000286102295,17.200000762939453,0.0,0.0,0.0,0.0,0.0,,,,,
pylon_camera_1771860940699086389.png,1771860940699086389,1771860940.6990864,42.300486658340844,-83.69863537963342,236.82986450195312,0.7091152216783998,0.704757683387896,-0.02166250824953712,-0.0017163408924137093,0.028710000000000003,-0.00572,0.014780000000000003,-0.4061,-1.1018000000000001,-9.357800000000001,7.817874285647906,17.48811570453723,21.90999984741211,21.809999465942383,22.079999923706055,21.899999618530273,17.791121886297226,17.70992065454029,17.929163515648614,17.783001608243065,17.8033019161823,0.018022880050095745,-3.9000000953674316,17.375,0.0,0.0,0.0,0.0,0.0,,,,,
pylon_camera_1771860940749168518.png,1771860940749168518,1771860940.7491686,42.300490887477935,-83.69863539990807,236.83258056640625,0.7094031520632198,0.7044791681933497,-0.021256277383931713,-0.002107153566264267,-0.020780000000000003,0.03871000000000001,0.016210000000000002,-0.11330000000000001,-1.2007,-9.659600000000001,7.808816922562057,17.46785492675597,22.020000457763672,21.979999542236328,22.020000457763672,21.93000030517578,17.880443396108323,17.84796228389168,17.880443396108323,17.807362442405548,17.85405287962847,0.02210906573771406,-4.200000286102295,17.399999618530273,0.0,0.0,0.0,0.0,0.0,,,,,
pylon_camera_1771860940799502992.png,1771860940799502992,1771860940.799503,42.300493708230086,-83.69863543024148,236.8339385986328,0.7096740125882742,0.7042558238657208,-0.019528488026218784,-0.0022734474884019834,-0.05241000000000001,0.055900000000000005,0.0085,0.3234,-1.4987000000000001,-9.8698,7.812292067217366,17.475628616841217,22.079999923706055,22.10999870300293,22.06999969482422,22.029998779296875,17.929163515648614,17.953522801026423,17.921043237594454,17.88856212537781,17.923072919911824,0.025603903177446034,-5.300000190734863,17.350000381469727,0.0,0.0,0.0,0.0,0.0,,,,,
pylon_camera_1771860940849688877.png,1771860940849688877,1771860940.8496888,42.30049794007907,-83.69863550047712,236.83615112304688,0.7099864441800546,0.7040013440074517,-0.017221705794162125,-0.0021839335619683615,-0.05797000000000001,0.056970000000000014,0.013150000000000002,0.2192,-0.5391,-10.1795,7.827826006303251,17.510377106539995,22.219999313354492,22.03999900817871,22.119998931884766,22.119998931884766,18.042844310837516,17.896682403431967,17.961643079080584,17.961643079080584,17.965703218107663,0.026003215624500024,-6.300000190734863,17.125,0.0,0.0,0.0,0.0,0.0,,,,,
pylon_camera_1771860940900790285.png,1771860940900790285,1771860940.9007902,42.3005007700658,-83.69863554813567,236.8382110595703,0.7103475067094319,0.7036809452541206,-0.015346672583949913,-0.0020066485895177243,-0.038540000000000005,0.04429000000000001,0.02009,0.3902,0.5326000000000001,-9.9953,7.8534144449015315,17.56761690837803,22.06999969482422,22.03999900817871,22.149999618530273,22.18000030517578,17.921043237594454,17.896682403431967,17.986003913243067,18.010364747405546,17.953523575418757,0.021966933196083387,-6.300000190734863,17.05000114440918,0.0,0.0,0.0,0.0,0.0,,,,,
pylon_camera_1771860940950752588.png,1771860940950752588,1771860940.9507525,42.30050502961318,-83.69863560533487,236.84085083007812,0.710684704787267,0.7033577868453289,-0.014515707283958075,-0.0020900496459370856,-0.003790000000000001,0.019250000000000003,0.015690000000000003,0.2479,0.9399000000000001,-8.962,7.878554319273727,17.62385329895617,22.15999984741211,22.029998779296875,22.1299991607666,22.260000228881836,17.994124191297228,17.88856212537781,17.96976335713474,18.075325423054164,17.981943774215985,0.020318512029433623,-5.0,17.149999618530273,0.0,0.0,0.0,0.0,0.0,,,,,
pylon_camera_1771860941001876425.png,1771860941001876425,1771860941.0018766,42.3005078741929,-83.69863562107068,236.84164428710938,0.7109194207491593,0.7031157885102202,-0.014595891328386946,-0.0029538289830987777,0.04288000000000001,0.024860000000000004,0.012020000000000001,-0.061900000000000004,1.0964,-9.217500000000001,7.8959472832921,17.662760315887432,22.209999084472656,22.139999389648438,22.18000030517578,22.260000228881836,18.03472403278336,17.977883635188903,18.010364747405546,18.075325423054164,18.024574459607994,0.0204845753013539,-2.9000000953674316,16.92500114440918,0.0,0.0,0.0,0.0,0.0,,,,,
pylon_camera_1771860941051711747.png,1771860941051711747,1771860941.0517118,42.300512152548926,-83.6986356028827,236.8414306640625,0.710951222549694,0.7030649233599202,-0.015182100436968458,-0.004192436323520709,0.05355000000000001,0.01233,-0.0009500000000000001,0.33480000000000004,0.4077,-10.6068,7.918456014375722,17.713110996797628,22.18000030517578,22.1299991607666,22.209999084472656,22.10999870300293,18.010364747405546,17.96976335713474,18.03472403278336,17.953522801026423,17.992093734587517,0.015750069981514053,-0.5,16.55000114440918,0.0,0.0,0.0,0.0,0.0,,,,,
pylon_camera_1771860941111489931.png,1771860941111489931,1771860941.11149,42.30051644482443,-83.69863556972065,236.84432983398438,0.7108176452791742,0.7031746776971068,-0.016097871394177465,-0.004950388057133849,0.021690000000000004,-0.016560000000000002,-0.00837,0.13340000000000002,-0.8487,-11.595500000000001,7.9437934886454284,17.769789406490506,22.149999618530273,22.219999313354492,22.19999885559082,22.079999923706055,17.986003913243067,18.042844310837516,18.026603754729194,17.929163515648614,17.9961538736146,0.012738725369554,0.800000011920929,16.950000762939453,0.0,0.0,0.0,0.0,0.0,,,,,
pylon_camera_1771860941152311272.png,1771860941152311272,1771860941.1523113,42.3005193165391,-83.69863556143228,236.8496856689453,0.7107166207503015,0.7032671099802706,-0.016635182059825032,-0.004530753481077435,-0.0074600000000000005,-0.04175000000000001,-0.007380000000000001,0.25780000000000003,-1.4566000000000001,-11.266200000000001,7.959803001938101,17.805601727155416,22.139999389648438,22.15999984741211,22.219999313354492,22.139999389648438,17.977883635188903,17.994124191297228,18.042844310837516,17.977883635188903,17.99818394312814,0.010815821836507542,0.20000000298023224,17.149999618530273,0.0,0.0,0.0,0.0,0.0,,,,,
pylon_camera_1771860941202872620.png,1771860941202872620,1771860941.2028725,42.30052219121418,-83.69863557021566,236.85751342773438,0.7106681542042105,0.7033150808252948,-0.01707476605999009,-0.0026690911722957703,-0.05412,-0.05748000000000001,0.005330000000000001,0.29100000000000004,-0.9770000000000001,-10.187100000000001,7.981356765675725,17.85381620341066,22.1299991607666,22.239999771118164,22.239999771118164,22.219999313354492,17.96976335713474,18.059084866945838,18.059084866945838,18.042844310837516,18.03269435046598,0.010019042708703938,-2.1000001430511475,17.05000114440918,0.0,0.0,0.0,0.0,0.0,,,,,
pylon_camera_1771860941253086775.png,1771860941253086775,1771860941.2530868,42.30052651019318,-83.69863560329502,236.87017822265625,0.7107487420703238,0.7032290656471974,-0.017431728740781534,-0.0011143193123309971,-0.023540000000000002,-0.040330000000000005,0.008040000000000002,0.2487,-0.4781,-8.719100000000001,7.984234956276186,17.860254543092452,22.19999885559082,22.079999923706055,22.35999870300293,22.40999984741211,18.026603754729194,17.929163515648614,18.15652510602642,18.197126496297226,18.077354718175364,0.012155491656577574,-4.900000095367432,16.92500114440918,0.0,0.0,0.0,0.0,0.0,,,,,
pylon_camera_1771860941304458799.png,1771860941304458799,1771860941.3044589,42.30052939237403,-83.69863563047024,236.87786865234375,0.7109800335773782,0.7029867888819749,-0.017801495229592918,-0.00027070151584154156,-0.007320000000000001,-0.020050000000000005,0.01635,0.2879,-0.3037,-8.7433,7.986435637585495,17.865177335140498,22.3799991607666,22.239999771118164,22.40999984741211,22.329999923706055,18.172765662134744,18.059084866945838,18.197126496297226,18.132165820648613,18.140285711506603,0.015399140529379032,-5.900000095367432,16.950000762939453,0.0,0.0,0.0,0.0,0.0,,,,,
pylon_camera_1771860941354360998.png,1771860941354360998,1771860941.354361,42.30053371936408,-83.6986356714442,236.88555908203125,0.7113296514000621,0.702635120787805,-0.01771937259302389,0.00019470357640109418,-0.020380000000000002,-0.0032500000000000007,0.01881,0.061000000000000006,0.0863,-8.4524,7.991213062804127,17.875864148709066,22.40999984741211,22.299999237060547,22.469999313354492,22.389999389648438,18.197126496297226,18.107804986486133,18.245846615837518,18.180885940188904,18.182916009702446,0.017176896089555114,-4.700000286102295,16.524999618530273,0.0,0.0,0.0,0.0,0.0,,,,,
pylon_camera_1771860941405460486.png,1771860941405460486,1771860941.4054606,42.300536607899595,-83.69863569363156,236.8881072998047,0.7116558928868563,0.7023195662462176,-0.017114941192422937,0.00044246481881118357,-0.021550000000000003,0.021410000000000002,0.012620000000000003,-0.28290000000000004,0.1326,-8.724300000000001,7.9942412025039005,17.882637915529077,22.399999618530273,22.40999984741211,22.5,22.439998626708984,18.18900621824307,18.197126496297226,18.27020745,18.22148578167503,18.21945648655383,0.018834948882584284,-2.6000001430511475,16.600000381469727,0.0,0.0,0.0,0.0,0.0,,,,,
pylon_camera_1771860941455450103.png,1771860941455450103,1771860941.45545,42.30054093755726,-83.69863570910607,236.88914489746094,0.7118535223755763,0.7021355151070598,-0.016440157253432855,4.833540000343984e-05,0.018220000000000004,0.04166000000000001,0.007720000000000001,-0.55,0.9461,-9.2802,7.996143109582418,17.886892367549294,22.559999465942383,22.469999313354492,22.53999900817871,22.479999542236328,18.318927569540293,18.245846615837518,18.302687013431967,18.25396689389168,18.280357023175362,0.02199737369359359,-1.100000023841858,16.774999618530273,0.0,0.0,0.0,0.0,0.0,,,,,
pylon_camera_1771860941506086509.png,1771860941506086509,1771860941.5060863,42.300543825367036,-83.69863570161175,236.888916015625,0.7118582795539169,0.7021358927603609,-0.016168427834912284,-0.0012489473550221944,0.03452,0.04191,-0.00521,0.304,-0.18730000000000002,-9.8511,8.013319799012482,17.92531559120298,22.639999389648438,22.559999465942383,22.600000381469727,22.510000228881836,18.383888245188903,18.318927569540293,18.351408681756936,18.278327728054162,18.333138056135073,0.022751201386503623,-0.9000000357627869,15.600000381469727,0.0,0.0,0.0,0.0,0.0,,,,,
pylon_camera_1771860941556404631.png,1771860941556404631,1771860941.5564048,42.30054817133614,-83.69863568757066,236.88943481445312,0.7117692468637625,0.7022319701438131,-0.015834771690074276,-0.002014778512507914,-0.0032300000000000002,0.024310000000000002,-0.00559,0.06330000000000001,-0.5244,-10.398200000000001,8.035896865925213,17.97581913526275,22.6299991607666,22.579999923706055,22.60999870300293,22.559999465942383,18.375767967134742,18.33516812564861,18.359527411026423,18.318927569540293,18.347347768337517,0.02066824495057075,-1.399999976158142,10.449999809265137,0.0,0.0,0.0,0.0,0.0,,,,,
pylon_camera_1771860941608373464.png,1771860941608373464,1771860941.6083734,42.30055253604611,-83.69863568440181,236.89256286621094,0.7117402629186259,0.7022731338850967,-0.015324865301764435,-0.0018417565565122574,-0.013930000000000001,0.0031700000000000005,-0.004980000000000001,-0.3235,-0.3512,-10.9929,8.0589702978971,18.027433018177938,22.65999984741211,22.5,22.579999923706055,22.619998931884766,18.400128801297228,18.27020745,18.33516812564861,18.36764768908058,18.343288016506605,0.017520797221111606,-1.899999976158142,2.5,0.0,0.0,0.0,0.0,0.0,,,,,
pylon_camera_1771860941657598749.png,1771860941657598749,1771860941.6575987,42.300555450054695,-83.69863568651753,236.8956756591797,0.7117972169436998,0.7022188147647583,-0.01520539616035435,-0.0015013557833271146,-0.0010700000000000002,0.0014600000000000004,0.00079,-0.07,-0.4776,-9.753400000000001,8.074650060678671,18.062507706734547,22.6299991607666,22.619998931884766,22.56999969482422,22.670000076293945,18.375767967134742,18.36764768908058,18.327047847594454,18.40824907935139,18.369678145790292,0.017005968608734115,-1.899999976158142,0.0,0.0,0.0,0.0,0.0,0.0,,,,,
pylon_camera_1771860941709120214.png,1771860941709120214,1771860941.7091203,42.30055982802132,-83.6986356908285,236.90151977539062,0.7118827834348792,0.7021290061220198,-0.015359608853304452,-0.0013578759101896597,0.0007100000000000001,-0.007210000000000001,0.00408,-0.337,-0.1757,-9.4825,8.080969546461965,18.07664401726263,22.689998626708984,22.60999870300293,22.649999618530273,22.600000381469727,18.424488086675034,18.359527411026423,18.392008523243067,18.351408681756936,18.381858175675365,0.016884448137677813,-1.8000000715255737,0.0,0.0,0.0,0.0,0.0,0.0,,,,,
pylon_camera_1771860941758790211.png,1771860941758790211,1771860941.7587903,42.300562751764346,-83.6986356941358,236.90567016601562,0.7119892009576597,0.7020194603291923,-0.015437068244240177,-0.00132361731839887,-0.0023500000000000005,-0.009720000000000003,0.00544,-0.1865,-0.432,-9.9487,8.086939290840188,18.089997977252054,22.6299991607666,22.59000015258789,22.65999984741211,22.579999923706055,18.375767967134742,18.343288403702772,18.400128801297228,18.33516812564861,18.36358832444584,0.015123846201520958,-1.8000000715255737,0.0,0.0,0.0,0.0,0.0,0.0,,,,,
pylon_camera_1771860941810221552.png,1771860941810221552,1771860941.8102217,42.30056713673763,-83.6986356984546,236.9124755859375,0.7121019703592608,0.7019049423735703,-0.015465885601073186,-0.001020815648283491,-0.0019000000000000002,-0.01322,0.007470000000000001,-0.1642,0.0932,-10.119900000000001,8.091312508933852,18.09978060373449,22.69999885559082,22.6299991607666,22.6299991607666,22.639999389648438,18.432608364729198,18.375767967134742,18.375767967134742,18.383888245188903,18.392008136046897,0.01614536323451962,-1.8000000715255737,0.0,0.0,0.0,0.0,0.0,0.0,,,,,
pylon_camera_1771860941860439668.png,1771860941860439668,1771860941.8604395,42.30057005733039,-83.69863569336619,236.9180145263672,0.7121705782462413,0.7018212715306963,-0.016104864375051695,-0.0007769497487865711,0.01682,-0.020150000000000005,0.0029400000000000003,0.012,-0.5522,-10.3854,8.089382318362459,18.09546288323772,22.600000381469727,22.68000030517578,22.6299991607666,22.56999969482422,18.351408681756936,18.416369357405546,18.375767967134742,18.327047847594454,18.367648463472918,0.015041647842417518,-1.600000023841858,0.0,0.0,0.0,0.0,0.0,0.0,,,,,
pylon_camera_1771860941910665957.png,1771860941910665957,1771860941.910666,42.30057443846208,-83.69863568520836,236.92623901367188,0.7122927163294259,0.701677662509043,-0.016947971005981867,-0.000557206132591918,0.009900000000000003,-0.027350000000000003,0.00642,-0.1398,-0.9363,-9.5988,8.079778980238853,18.0739807920555,22.559999465942383,22.619998931884766,22.670000076293945,22.559999465942383,18.318927569540293,18.36764768908058,18.40824907935139,18.318927569540293,18.35343797687814,0.015461850271827022,-1.399999976158142,0.0,0.0,0.0,0.0,0.0,0.0,,,,,
pylon_camera_1771860941960418903.png,1771860941960418903,1771860941.9604187,42.30057735166318,-83.69863567959885,236.93101501464844,0.7124524297147637,0.7015121924400736,-0.01709179117989132,-0.00022344062669949307,-0.008830000000000003,-0.0004500000000000001,0.006,-0.7296,0.2987,-9.0031,8.059329899317447,18.02823742497917,22.559999465942383,22.579999923706055,22.649999618530273,22.579999923706055,18.318927569540293,18.33516812564861,18.392008523243067,18.33516812564861,18.345318086020143,0.017588001176512037,-1.5,0.0,0.0,0.0,0.0,0.0,0.0,,,,,
pylon_camera_1771860942021704100.png,1771860942021704100,1771860942.0217042,42.300581714665924,-83.69863567907164,236.93624877929688,0.712608909441919,0.701360867813266,-0.01677716240274973,-4.5890446991124835e-05,-0.007320000000000001,0.008430000000000002,0.00525,0.0376,0.4909,-9.1556,8.049116327544507,18.005390277737412,22.5,22.529998779296875,22.6299991607666,22.51999855041504,18.27020745,18.294566735377806,18.375767967134742,18.28644645732365,18.30674715245905,0.01673703652479265,-1.600000023841858,2.075000047683716,0.0,0.0,0.0,0.0,0.0,,,,,
pylon_camera_1771860942070975729.png,1771860942070975729,1771860942.0709758,42.3005860722652,-83.6986356745282,236.93984985351562,0.7127144363711139,0.7012584232883803,-0.016574921787399055,0.0001671018904704724,-0.0158,0.0033300000000000005,0.009760000000000001,-0.1052,0.25220000000000004,-9.755700000000001,8.038559988750663,17.98177638123591,22.53999900817871,22.459999084472656,22.619998931884766,22.53999900817871,18.302687013431967,18.237726337783357,18.36764768908058,18.302687013431967,18.302687013431967,0.017846436602944802,-1.8000000715255737,6.5,0.0,0.0,0.0,0.0,0.0,,,,,
pylon_camera_1771860942112653375.png,1771860942112653375,1771860942.1126533,42.300588976461874,-83.69863567020295,236.94200134277344,0.7127662572505458,0.7012077637271777,-0.01648716751408443,0.0003285135337191786,-0.007940000000000001,-0.0008900000000000001,0.00875,-0.8384,-0.1985,-9.8222,8.02900310431618,17.96039820416904,22.510000228881836,22.44999885559082,22.53999900817871,22.549999237060547,18.278327728054162,18.229606059729196,18.302687013431967,18.31080729148613,18.280357023175362,0.01781468402699745,-1.8000000715255737,9.52500057220459,0.0,0.0,0.0,0.0,0.0,,,,,
pylon_camera_1771860942173058838.png,1771860942173058838,1771860942.1730587,42.30059331986783,-83.69863566041872,236.94528198242188,0.7128812169245724,0.701095619799981,-0.016282642984497376,0.0004218896305756711,0.00020000000000000004,0.004510000000000001,0.007580000000000002,-0.4364,-0.1464,-9.9312,8.009889753161419,17.917642784436904,22.510000228881836,22.65999984741211,22.459999084472656,22.489999771118164,18.278327728054162,18.400128801297228,18.237726337783357,18.262087171945836,18.294567509770147,0.021036512998274325,-1.7000000476837158,13.100000381469727,0.0,0.0,0.0,0.0,0.0,,,,,
pylon_camera_1771860942213955552.png,1771860942213955552,1771860942.2139556,42.300596209094145,-83.69863564561327,236.94761657714844,0.7128999135980347,0.7010721413472546,-0.016478460411097226,0.0001617441487421399,0.018680000000000006,0.0025400000000000006,-0.0010500000000000002,-0.8077000000000001,-1.122,-10.667,8.001889177145928,17.899745975924816,22.479999542236328,22.489999771118164,22.44999885559082,22.40999984741211,18.25396689389168,18.262087171945836,18.229606059729196,18.197126496297226,18.235696655465986,0.018768460736427465,-1.7000000476837158,13.199999809265137,0.0,0.0,0.0,0.0,0.0,,,,,
pylon_camera_1771860942263538276.png,1771860942263538276,1771860942.2635381,42.30059909818215,-83.69863562531964,236.94985961914062,0.7129136067582673,0.7010534147034703,-0.016681537608471048,-0.00015916827418073696,0.0016300000000000002,-0.008280000000000001,-0.0022400000000000007,-0.6256,-1.3927,-10.116900000000001,8.004733218114918,17.906107924929987,22.40999984741211,22.369998931884766,22.489999771118164,22.5,18.197126496297226,18.164645384080583,18.262087171945836,18.27020745,18.223516625580913,0.017726280997614793,-1.600000023841858,13.050000190734863,0.0,0.0,0.0,0.0,0.0,,,,,
pylon_camera_1771860942314797605.png,1771860942314797605,1771860942.3147976,42.3006034325936,-83.6986355912234,236.95394897460938,0.7129517640974713,0.701010687676195,-0.016843703538483357,-0.000295778902976045,0.0015900000000000003,-0.0035700000000000007,0.004410000000000001,-0.3719,-0.3597,-9.7208,8.009193656111867,17.91608565710288,22.43000030517578,22.44999885559082,22.420000076293945,22.44999885559082,18.213367052405548,18.229606059729196,18.205246774351387,18.229606059729196,18.21945648655383,0.016932874471421132,-1.600000023841858,13.074999809265137,0.0,0.0,0.0,0.0,0.0,,,,,
pylon_camera_1771860942364496142.png,1771860942364496142,1771860942.3644962,42.30060632474495,-83.69863557156513,236.95736694335938,0.7129870991257169,0.7009665672173382,-0.017180975414769088,-0.0002867187348656757,0.011980000000000001,-0.00786,0.009960000000000002,-0.18480000000000002,0.2028,-9.7172,8.015994361406129,17.931298426803828,22.479999542236328,22.420000076293945,22.479999542236328,22.489999771118164,18.25396689389168,18.205246774351387,18.25396689389168,18.262087171945836,18.243816933520144,0.01742866017160035,-1.600000023841858,12.875,0.0,0.0,0.0,0.0,0.0,,,,,
pylon_camera_1771860942415500771.png,1771860942415500771,1771860942.4155009,42.300610662372144,-83.69863553897504,236.9622039794922,0.7130090751644603,0.7009353584429296,-0.017536309235832603,-0.0003998449549070131,0.012960000000000001,0.00177,0.0032800000000000004,0.19920000000000002,-0.9326000000000001,-9.935,8.017494178580284,17.934653427833382,22.479999542236328,22.479999542236328,22.51999855041504,22.439998626708984,18.25396689389168,18.25396689389168,18.28644645732365,18.22148578167503,18.25396650669551,0.017804251425710533,-1.600000023841858,12.90000057220459,0.0,0.0,0.0,0.0,0.0,,,,,
pylon_camera_1771860942474716826.png,1771860942474716826,1771860942.474717,42.30061499941529,-83.69863551403425,236.96652221679688,0.7130913767687502,0.7008519962407194,-0.01751821522125837,-0.0005290358294151018,-0.0017600000000000003,0.005750000000000001,0.004030000000000001,-0.22060000000000002,0.0161,-9.2597,8.017320362342955,17.93426461133945,22.489999771118164,22.389999389648438,22.489999771118164,22.44999885559082,18.262087171945836,18.180885940188904,18.262087171945836,18.229606059729196,18.23366658595244,0.016694410454035864,-1.600000023841858,12.800000190734863,0.0,0.0,0.0,0.0,0.0,,,,,
pylon_camera_1771860942525747943.png,1771860942525747943,1771860942.525748,42.30061789037567,-83.69863549846112,236.9696044921875,0.713167972519898,0.7007760945857203,-0.017427807845393387,-0.0007614083974497018,0.009440000000000002,0.0041600000000000005,0.00604,-0.1231,-0.0315,-9.8534,8.021381540310221,17.94334922278155,22.600000381469727,22.420000076293945,22.59000015258789,22.529998779296875,18.351408681756936,18.205246774351387,18.343288403702772,18.294566735377806,18.298627648797225,0.01980000620868491,-1.600000023841858,12.800000190734863,0.0,0.0,0.0,0.0,0.0,,,,,
pylon_camera_1771860942568621599.png,1771860942568621599,1771860942.5686216,42.300622228915465,-83.69863547226002,236.9742889404297,0.713217982485793,0.7007276659786463,-0.017322431392200948,-0.0008837203607699171,0.010850000000000002,0.00892,0.0025900000000000003,0.1438,0.1509,-9.9877,8.02647661135958,17.9547465910147,22.51999855041504,22.459999084472656,22.600000381469727,22.51999855041504,18.28644645732365,18.237726337783357,18.351408681756936,18.28644645732365,18.290506983546898,0.018700369332988853,-1.600000023841858,11.550000190734863,0.0,0.0,0.0,0.0,0.0,,,,,
pylon_camera_1771860942617907362.png,1771860942617907362,1771860942.6179075,42.30062512399994,-83.69863545630791,236.97747802734375,0.7132447085134639,0.7007026196047507,-0.017239001974944462,-0.0008009166570978371,0.0039900000000000005,-0.0021100000000000003,-0.005070000000000001,0.5505,-0.0303,-9.603100000000001,8.039272682651138,17.98337063472964,22.549999237060547,22.5,22.60999870300293,22.51999855041504,18.31080729148613,18.27020745,18.359527411026423,18.28644645732365,18.30674715245905,0.017981974808710416,-1.600000023841858,10.02500057220459,0.0,0.0,0.0,0.0,0.0,,,,,
pylon_camera_1771860942668034544.png,1771860942668034544,1771860942.6680346,42.3006294724799,-83.69863543035702,236.98194885253906,0.7132977121348459,0.7006510541950062,-0.017145779899658257,-0.0007045212937682268,-0.0012500000000000002,0.007570000000000001,0.00434,-0.1439,0.1531,-9.6015,8.040943935703709,17.987109127533056,22.549999237060547,22.479999542236328,22.579999923706055,22.6299991607666,18.31080729148613,18.25396689389168,18.33516812564861,18.375767967134742,18.318927569540293,0.018447569292795268,-1.600000023841858,5.400000095367432,0.0,0.0,0.0,0.0,0.0,,,,,
pylon_camera_1771860942727186907.png,1771860942727186907,1771860942.727187,42.300632372671046,-83.69863541296934,236.9843292236328,0.7133702049366358,0.700579678346396,-0.01704380818838647,-0.0007573632944751466,0.00792,0.00445,-0.0005700000000000001,-0.4597,-0.3059,-9.4167,8.042587916764584,17.99078661452737,22.600000381469727,22.619998931884766,22.60999870300293,22.559999465942383,18.351408681756936,18.36764768908058,18.359527411026423,18.318927569540293,18.34937783785106,0.01993193688563514,-1.600000023841858,2.174999952316284,0.0,0.0,0.0,0.0,0.0,,,,,
pylon_camera_1771860942768619193.png,1771860942768619193,1771860942.7686193,42.30063672379708,-83.69863538652064,236.9872283935547,0.7134389222594149,0.7005103557768985,-0.017001985419798384,-0.0010383383035823643,0.019750000000000004,0.007380000000000001,0.0032500000000000007,-0.2451,-0.0551,-10.3535,8.0465291985868,17.999603025486756,22.6299991607666,22.600000381469727,22.549999237060547,22.549999237060547,18.375767967134742,18.351408681756936,18.31080729148613,18.31080729148613,18.337197807965985,0.018755679333661287,-1.5,0.0,0.0,0.0,0.0,0.0,0.0,,,,,
pylon_camera_1771860942819212468.png,1771860942819212468,1771860942.8192124,42.300639625239306,-83.69863536103004,236.9893341064453,0.7134916053169875,0.7004523502931893,-0.017139129212788755,-0.001576185510314835,0.019270000000000002,0.006840000000000001,-0.0005200000000000001,-0.1388,-0.5574,-10.4474,8.047831539839388,18.002516284728323,22.600000381469727,22.59000015258789,22.60999870300293,22.56999969482422,18.351408681756936,18.343288403702772,18.359527411026423,18.327047847594454,18.345318086020146,0.019041882582971202,-1.399999976158142,0.0,0.0,0.0,0.0,0.0,0.0,,,,,
pylon_camera_1771860942869257471.png,1771860942869257471,1771860942.8692575,42.300643979009315,-83.69863531634147,236.9934844970703,0.7135032181801971,0.7004306499203334,-0.017497032600779262,-0.0019789261857153548,0.013090000000000001,-0.004540000000000001,-0.0017400000000000002,-0.4903,-0.9942000000000001,-10.4212,8.050766143170677,18.009080816304213,22.559999465942383,22.53999900817871,22.579999923706055,22.579999923706055,18.318927569540293,18.302687013431967,18.33516812564861,18.33516812564861,18.322987708567368,0.01743047829398183,-1.399999976158142,0.0,0.0,0.0,0.0,0.0,0.0,,,,,
pylon_camera_1771860942920024449.png,1771860942920024449,1771860942.9200246,42.30064688273414,-83.69863528477293,236.99708557128906,0.7135399389051729,0.7003813956867883,-0.01796683714919462,-0.0019618679574963543,0.00064,-0.01964,0.00661,-0.5254,-1.0846,-10.0794,8.050160322156348,18.007725631044423,22.600000381469727,22.59000015258789,22.559999465942383,22.56999969482422,18.351408681756936,18.343288403702772,18.318927569540293,18.327047847594454,18.335168125648615,0.01818344533413466,-1.399999976158142,0.0,0.0,0.0,0.0,0.0,0.0,,,,,
pylon_camera_1771860942978845757.png,1771860942978845757,1771860942.9788456,42.30065123456344,-83.6986352462289,237.00302124023438,0.7136185328306646,0.7002916764147714,-0.01837875799668766,-0.001542335663187296,-0.005230000000000001,-0.022510000000000002,0.0068000000000000005,-0.7787000000000001,-0.22130000000000002,-9.8945,8.03895030629875,17.982649498171927,22.51999855041504,22.5,22.51999855041504,22.439998626708984,18.28644645732365,18.27020745,18.28644645732365,18.22148578167503,18.26614653658058,0.015765031645502196,-1.399999976158142,0.0,0.0,0.0,0.0,0.0,0.0,,,,,
pylon_camera_1771860943030059539.png,1771860943030059539,1771860943.0300596,42.30065557747447,-83.69863521404358,237.00863647460938,0.7137157219855119,0.7001889360673171,-0.01854442514573311,-0.0011942761959752184,0.0017900000000000004,-0.017900000000000003,0.005460000000000001,-1.1829,0.2901,-9.4504,8.021050333356198,17.942608332697816,22.670000076293945,22.479999542236328,22.53999900817871,22.5,18.40824907935139,18.25396689389168,18.302687013431967,18.27020745,18.308777609168757,0.02040780636133325,-1.399999976158142,0.0,0.0,0.0,0.0,0.0,0.0,,,,,
pylon_camera_1771860943071040873.png,1771860943071040873,1771860943.0710409,42.30065846849874,-83.69863519158744,237.01161193847656,0.7137606003317852,0.7001438218053495,-0.01852320832545943,-0.0011510669572510385,-0.02035,-0.010610000000000003,0.00256,-0.7576,-0.5361,-9.6956,8.013651705106982,17.926058045222014,22.559999465942383,22.479999542236328,22.51999855041504,22.479999542236328,18.318927569540293,18.25396689389168,18.28644645732365,18.25396689389168,18.278326953661825,0.019651219891799035,-1.5,0.0,0.0,0.0,0.0,0.0,0.0,,,,,
pylon_camera_1771860943122198514.png,1771860943122198514,1771860943.1221986,42.30066135568229,-83.69863517761019,237.01422119140625,0.713848636963294,0.7000634072733452,-0.018170619251804836,-0.0010853103186262672,-0.03146,-0.0019300000000000003,0.013750000000000002,-0.3758,0.336,-10.0899,8.002644114585765,17.901434725681483,22.3799991607666,22.51999855041504,22.489999771118164,22.420000076293945,18.172765662134744,18.28644645732365,18.262087171945836,18.205246774351387,18.231636516438904,0.018445548963944885,-1.600000023841858,0.0,0.0,0.0,0.0,0.0,0.0,,,,,
pylon_camera_1771860943180757422.png,1771860943180757422,1771860943.1807575,42.30066567934191,-83.69863514451445,237.01808166503906,0.7138904749493877,0.700022019840972,-0.018129569419976475,-0.0009382041086094983,-0.00941,-0.015780000000000002,0.0017200000000000004,-1.0393000000000001,0.2008,-9.7733,7.9908547103662455,17.87506253580667,22.479999542236328,22.350000381469727,22.420000076293945,22.35999870300293,18.25396689389168,18.148406376756938,18.205246774351387,18.15652510602642,18.191036287756607,0.0176767914135679,-1.5,0.0,0.0,0.0,0.0,0.0,0.0,,,,,
pylon_camera_1771860943232046908.png,1771860943232046908,1771860943.2320468,42.30067000124259,-83.69863510418197,237.02227783203125,0.7139322106550051,0.6999701709045965,-0.01849286821911115,-0.0007564774140437287,-0.0028400000000000005,-0.02187,0.00841,-0.756,0.0258,-9.618400000000001,7.986561925020702,17.86545983255581,22.31999969482422,22.34000015258789,22.34000015258789,22.369998931884766,18.12404554259445,18.140286098702774,18.140286098702774,18.164645384080583,18.142315781020145,0.015496715509097947,-1.399999976158142,0.0,0.0,0.0,0.0,0.0,0.0,,,,,
pylon_camera_1771860943273477651.png,1771860943273477651,1771860943.2734776,42.300672878368964,-83.69863507493861,237.02499389648438,0.713955519263716,0.699933872075378,-0.01895982703752784,-0.0007849797151795062,0.018290000000000004,-0.004210000000000001,0.003790000000000001,-0.6679,-0.2538,-9.5131,7.969499848822322,17.827292991824606,22.3799991607666,22.389999389648438,22.35999870300293,22.299999237060547,18.172765662134744,18.180885940188904,18.15652510602642,18.107804986486133,18.15449542370905,0.018354016621283765,-1.399999976158142,0.0,0.0,0.0,0.0,0.0,0.0,,,,,
pylon_camera_1771860943333047712.png,1771860943333047712,1771860943.3330479,42.3006771860599,-83.69863502323633,237.02830505371094,0.714010050399093,0.6998706755560067,-0.019221347731038535,-0.0011068953274790982,0.0012700000000000003,0.0036200000000000004,0.0029000000000000007,-0.7497,-0.2038,-9.529300000000001,7.949322844486271,17.78215824374512,22.299999237060547,22.35999870300293,22.299999237060547,22.239999771118164,18.107804986486133,18.15652510602642,18.107804986486133,18.059084866945838,18.10780498648613,0.018313116905005453,-1.399999976158142,0.0,0.0,0.0,0.0,0.0,0.0,,,,,
pylon_camera_1771860943373836755.png,1771860943373836755,1771860943.3738368,42.30068005480126,-83.6986349910782,237.0302276611328,0.7140404811134101,0.6998403283140842,-0.019179578630231384,-0.0013601323947450652,-0.00446,0.0012500000000000002,0.0033700000000000006,0.0888,-1.191,-9.892800000000001,7.945549337106688,17.773717134147436,22.219999313354492,22.26999855041504,22.229999542236328,22.239999771118164,18.042844310837516,18.083444152323647,18.050964588891677,18.059084866945838,18.059084479749668,0.01605558046459371,-1.399999976158142,0.0,0.0,0.0,0.0,0.0,0.0,,,,,
pylon_camera_1771860943434127014.png,1771860943434127014,1771860943.434127,42.300684347776745,-83.69863494378397,237.03402709960938,0.7141426578597097,0.6997392286306227,-0.019078029150205136,-0.001142341557971088,-0.020060000000000005,-0.015050000000000001,0.01675,-1.1623,0.9493,-9.8803,7.930177728727082,17.739331768498758,22.239999771118164,22.219999313354492,22.260000228881836,22.260000228881836,18.059084866945838,18.042844310837516,18.075325423054164,18.075325423054164,18.06314500597292,0.01825397042571723,-1.5,0.0,0.0,0.0,0.0,0.0,0.0,,,,,
pylon_camera_1771860943475527847.png,1771860943475527847,1771860943.475528,42.30068720661599,-83.69863492248395,237.0372772216797,0.7141902060537756,0.6996927343993653,-0.019016938336731133,-0.0008849078492457843,-0.036160000000000005,-0.006770000000000001,0.01699,-1.212,-0.2876,-9.9825,7.916782819270526,17.70936815973901,22.28999900817871,22.18000030517578,22.170000076293945,22.279998779296875,18.09968470843197,18.010364747405546,18.00224446935139,18.091564430377808,18.050964588891677,0.01928902409569086,-1.5,0.0,0.0,0.0,0.0,0.0,0.0,,,,,
