image_filename,timestamp_ns,timestamp_sec,latitude,longitude,altitude,orientation_x,orientation_y,orientation_z,orientation_w,angular_velocity_x,angular_velocity_y,angular_velocity_z,linear_acceleration_x,linear_acceleration_y,linear_acceleration_z,vehicle_speed_mps,vehicle_speed_mph,wheel_speed_fl_rads,wheel_speed_fr_rads,wheel_speed_rl_rads,wheel_speed_rr_rads,wheel_speed_fl_mph,wheel_speed_fr_mph,wheel_speed_rl_mph,wheel_speed_rr_mph,avg_wheel_speed_mph,wheel_slip,steering_angle_deg,throttle_pedal,brake_pedal,brake_torque_actual,abs_active,esc_active,trac_active,marwis_road_condition,marwis_friction,marwis_surface_temp_c,marwis_ice_percent,marwis_water_film_height
pylon_camera_1771858102728911765.png,1771858102728911765,1771858102.7289119,42.30086533342849,-83.6973112886576,238.58363342285156,-0.015278469715379994,-0.9997172810237756,-0.012188870173509428,-0.013540968557639638,0.02238,0.022560000000000004,-0.00406,2.6601,0.2404,-10.0398,2.141646913165117,4.790735645935577,5.940000057220459,5.87999963760376,5.829999923706055,5.809999942779541,4.82333481326354,4.774613919330911,4.734013690648613,4.7177735217364605,4.762433986244881,0.005907581169649106,-4.599999904632568,23.05000114440918,0.0,0.0,0.0,0.0,0.0,,,,,
pylon_camera_1771858102767700844.png,1771858102767700844,1771858102.7677007,42.30086534703152,-83.69731234271866,238.58348083496094,-0.015254461270223618,-0.9997253044911405,-0.011589436845346458,-0.013501923013395895,0.04417000000000001,0.0037600000000000008,-0.0033200000000000005,1.8785,0.5716,-10.484,2.2367308618907833,5.003432734197969,6.049999713897705,6.049999713897705,6.109999656677246,6.089999675750732,4.912655548682299,4.912655548682299,4.961376055418759,4.9451358865066055,4.932955759822491,0.014085724365549099,-4.599999904632568,23.125,0.0,0.0,0.0,0.0,0.0,,,,,
pylon_camera_1771858102815756911.png,1771858102815756911,1771858102.8157568,42.30086536477729,-83.69731344865073,238.58457946777344,-0.015313847261819113,-0.999728116543037,-0.01098568543745767,-0.01372930409099369,0.023970000000000005,-0.016180000000000003,0.004260000000000001,2.1564,0.4924,-10.7788,2.3493658698382127,5.255390488875892,6.429999828338623,6.259999752044678,6.409999847412109,6.389999866485596,5.221219145209379,5.083177515857992,5.204978976297226,5.188738807385073,5.174528611187418,0.015386464214150235,-4.5,22.75,0.0,0.0,0.0,0.0,0.0,,,,,
pylon_camera_1771858102866489850.png,1771858102866489850,1771858102.86649,42.300865385367885,-83.69731519308621,238.5871124267578,-0.015573392028336575,-0.9997103556130872,-0.011385478959995284,-0.014389065624211897,-0.022450000000000005,-0.021940000000000005,0.013800000000000002,1.8811,1.4732,-9.5724,2.4689163230590987,5.52281767970382,6.659999847412109,6.699999809265137,6.71999979019165,6.659999847412109,5.407981281297226,5.440461619121533,5.456701788033685,5.407981281297226,5.428281492437417,0.017117383326598033,-4.5,22.80000114440918,0.0,0.0,0.0,0.0,0.0,,,,,
pylon_camera_1771858102917005739.png,1771858102917005739,1771858102.9170058,42.30086539334297,-83.69731641841304,238.58932495117188,-0.015748744006506554,-0.9996842229885873,-0.012108001680871465,-0.015389206126959319,-0.018890000000000004,-0.038930000000000006,0.004480000000000001,2.3661000000000003,0.5900000000000001,-9.331900000000001,2.5858953104653253,5.784492655792305,6.989999771118164,6.899999618530273,6.889999866485596,7.039999961853027,5.675944261945839,5.602863308243065,5.5947434173850725,5.716544877824306,5.647523966349571,0.023678600284085548,-4.400000095367432,22.67500114440918,0.0,0.0,0.0,0.0,0.0,,,,,
pylon_camera_1771858102967571485.png,1771858102967571485,1771858102.9675715,42.30086541173078,-83.69731832712745,238.5915069580078,-0.015833580318143137,-0.9996688093229302,-0.012061058071323613,-0.016312580402383918,0.009290000000000001,-0.026590000000000003,0.00585,1.9320000000000002,0.8743000000000001,-9.3442,2.680296514318397,5.995662484739396,7.21999979019165,7.259999752044678,7.299999713897705,7.369999885559082,5.862706398033686,5.895186735857992,5.927667073682299,5.98450785847292,5.917517016511725,0.013033666992859025,-4.400000095367432,23.42500114440918,0.0,0.0,0.0,0.0,0.0,,,,,
pylon_camera_1771858103017553338.png,1771858103017553338,1771858103.0175533,42.30086542647575,-83.6973196399545,238.59144592285156,-0.015782192391196714,-0.999668806642247,-0.01168172473340241,-0.016635406128064613,0.013610000000000002,0.00909,0.0036300000000000004,1.2919,1.0205,-8.9124,2.7683716709541657,6.1926813256242115,7.549999713897705,7.549999713897705,7.690000057220459,7.599999904632568,6.130669378682298,6.130669378682298,6.24435094826354,6.171269994560767,6.169239925047226,0.0037853393940988876,-4.400000095367432,23.375,0.0,0.0,0.0,0.0,0.0,,,,,
pylon_camera_1771858103068588669.png,1771858103068588669,1771858103.0685885,42.300865444408366,-83.69732168549464,238.58811950683594,-0.015762073704127355,-0.9996702896524435,-0.011817235837085154,-0.016468817684219827,-0.018430000000000005,0.011970000000000001,-0.00018,1.8725,-0.5258,-9.9106,2.8707073850299736,6.4216001778689495,7.989999771118164,7.919999599456787,7.889999866485596,7.839999675750732,6.487953481945839,6.431112697155218,6.406752637385073,6.366152021506606,6.422992709498184,0.0002168511882806365,-4.400000095367432,23.42500114440918,0.0,0.0,0.0,0.0,0.0,,,,,
pylon_camera_1771858103118311991.png,1771858103118311991,1771858103.118312,42.30086545080014,-83.69732309659474,238.58506774902344,-0.015919530607525045,-0.9996556582414298,-0.012974510678961462,-0.016333877793445268,-0.05226000000000001,-0.007930000000000001,0.0015600000000000002,1.4111,-0.5767,-9.6965,2.964961427490515,6.632440815610633,8.119999885559082,8.15999984741211,8.239999771118164,8.269999504089355,6.59351477347292,6.625995111297226,6.690955786945839,6.715315846715985,6.656445379607993,0.0036192654657182305,-4.0,23.125,0.0,0.0,0.0,0.0,0.0,,,,,
pylon_camera_1771858103169337789.png,1771858103169337789,1771858103.1693377,42.30086545197361,-83.69732527998077,238.58154296875,-0.01613581471696096,-0.999638101373938,-0.014112500200198583,-0.016252356845319407,-0.023170000000000003,-0.01157,0.0038600000000000006,1.1934,-0.3508,-10.5951,3.0639837833694217,6.8539478843703945,8.489999771118164,8.40999984741211,8.369999885559082,8.449999809265137,6.89395809194584,6.828997416297226,6.796517078472919,6.861477754121532,6.845237585209379,0.0012708440898534588,-3.700000047683716,23.625,0.0,0.0,0.0,0.0,0.0,,,,,
pylon_camera_1771858103219193651.png,1771858103219193651,1771858103.2191937,42.30086546341249,-83.69732678953096,238.5801239013672,-0.016213657925340963,-0.9996364913950099,-0.014215879021277604,-0.01618366929366019,0.029740000000000003,-0.01131,-0.011990000000000002,3.2184000000000004,-0.16590000000000002,-10.870000000000001,3.186261471180684,7.1274757353429194,8.859999656677246,8.800000190734863,8.65999984741211,8.769999504089355,7.1944014104187595,7.145681290878468,7.031999721297225,7.121320456715984,7.123350719827609,0.0005787484473437661,-3.1000001430511475,23.42500114440918,0.0,0.0,0.0,0.0,0.0,,,,,
pylon_camera_1771858103270691583.png,1771858103270691583,1771858103.2706916,42.30086548320813,-83.69732912536188,238.57861328125,-0.016267359296849693,-0.9996299541744444,-0.013969688544376163,-0.016738444989854544,0.026350000000000005,-0.021830000000000006,-0.012730000000000002,2.355,0.7618,-10.0205,3.2765336155123106,7.329409105884109,8.90999984741211,8.989999771118164,8.90999984741211,8.90999984741211,7.235002026297226,7.299962701945839,7.235002026297226,7.235002026297226,7.25124219520938,0.01066483116790082,-3.0,23.42500114440918,0.0,0.0,0.0,0.0,0.0,,,,,
pylon_camera_1771858103329026138.png,1771858103329026138,1771858103.329026,42.30086550330944,-83.69733153932262,238.57830810546875,-0.01611695531268914,-0.9996171894592525,-0.014229686290945346,-0.017413624467506862,-0.004130000000000001,-0.0051600000000000005,-0.008230000000000001,2.6557,-0.7225,-9.973600000000001,3.372131064824724,7.543254864149018,9.460000038146973,9.309999465942383,9.269999504089355,9.389999389648438,7.681607252175693,7.559805404540291,7.527325066715985,7.624766080188904,7.5983759509052184,0.007307334532494099,-3.200000047683716,23.149999618530273,0.0,0.0,0.0,0.0,0.0,,,,,
pylon_camera_1771858103371279813.png,1771858103371279813,1771858103.37128,42.30086552643951,-83.69733318538847,238.5780792236328,-0.016162468773085747,-0.999609210303962,-0.014186376548440384,-0.01785911529371882,0.010290000000000002,-0.0009000000000000002,-0.0037800000000000004,0.42050000000000004,1.0669,-8.311,3.437605782874954,7.6897178799443004,9.429999351501465,9.489999771118164,9.529999732971191,9.569999694824219,7.6572464180132105,7.705967311945839,7.738447649770146,7.770927987594452,7.718147341830911,0.003697074760149289,-3.299999952316284,22.575000762939453,0.0,0.0,0.0,0.0,0.0,,,,,
pylon_camera_1771858103421611813.png,1771858103421611813,1771858103.4216118,42.30086556473835,-83.69733573224605,238.57568359375,-0.016076719706494658,-0.9996100404299438,-0.013912381422004138,-0.018103916656167417,-0.00931,-0.017640000000000003,0.0017100000000000001,0.8685,0.28,-9.3871,3.539196034983618,7.916969178496254,9.6899995803833,9.769999504089355,9.719999313354492,9.649999618530273,7.8683690010673715,7.933329676715984,7.892729060837517,7.8358886632430655,7.882579100465985,0.004343843869403763,-3.299999952316284,22.80000114440918,0.0,0.0,0.0,0.0,0.0,,,,,
pylon_camera_1771858103472040663.png,1771858103472040663,1771858103.4720407,42.30086558440891,-83.69733747480736,238.57388305664062,-0.016118749923783204,-0.9996045250839035,-0.01377445642914176,-0.01847278221491949,-0.009930000000000001,-0.024640000000000002,0.007910000000000002,1.1075000000000002,0.5901000000000001,-9.959800000000001,3.6229326212253747,8.10428289772389,9.979999542236328,9.960000038146973,9.960000038146973,10.09000015258789,8.103851643891678,8.087611862175693,8.087611862175693,8.193173153702775,8.118062130486459,0.001700240840116722,-3.4000000953674316,22.80000114440918,0.0,0.0,0.0,0.0,0.0,,,,,
pylon_camera_1771858103522050244.png,1771858103522050244,1771858103.5220504,42.30086561080961,-83.69734015367361,238.57119750976562,-0.016168873226229286,-0.9995977868299639,-0.013796913765351327,-0.018774378119760574,-0.0017600000000000003,-0.011710000000000002,0.0016100000000000003,1.262,-0.5271,-8.6945,3.711979082570332,8.303474488964879,10.219999313354492,10.279999732971191,10.219999313354492,10.289999961853027,8.298733670837517,8.347454564770146,8.298733670837517,8.355574842824307,8.325124187317371,0.0026073059393708314,-3.4000000953674316,22.625,0.0,0.0,0.0,0.0,0.0,,,,,
pylon_camera_1771858103573340317.png,1771858103573340317,1771858103.5733404,42.300865628214666,-83.69734198155794,238.56922912597656,-0.016069074572282682,-0.9995941999133412,-0.013961581320449048,-0.01892867108463165,0.00834,-0.014620000000000001,-0.013850000000000001,1.1228,-1.0010000000000001,-10.589400000000001,3.7881370806230414,8.473835361128907,10.489999771118164,10.510000228881836,10.369999885559082,10.529999732971191,8.51797653194584,8.534217088054161,8.42053551847292,8.550456869770146,8.505796502060766,0.0037717443837144635,-3.4000000953674316,22.825000762939453,0.0,0.0,0.0,0.0,0.0,,,,,
pylon_camera_1771858103623263474.png,1771858103623263474,1771858103.6232636,42.300865654490934,-83.69734478175188,238.56707763671875,-0.01586196765136716,-0.9995985301471935,-0.013836891858707012,-0.018966205036525897,0.028040000000000006,-0.0037500000000000003,-0.01958,1.7536,-1.3129,-11.144400000000001,3.881390597549763,8.682437883282967,10.760000228881836,10.670000076293945,10.65999984741211,10.710000038146973,8.737219393054161,8.664138439351387,8.656018161297226,8.696618777175694,8.688498692719616,0.0006980538781991616,-3.299999952316284,22.5,0.0,0.0,0.0,0.0,0.0,,,,,
pylon_camera_1771858103675283517.png,1771858103675283517,1771858103.6752834,42.300865681154285,-83.69734668700764,238.5666961669922,-0.01577383411692751,-0.9995880350897299,-0.01342075347643969,-0.01987032055174821,0.01043,-0.05457000000000001,0.004520000000000001,0.8941,-0.2556,-10.8678,3.9803811796412814,8.903873875986768,10.969999313354492,10.889999389648438,10.800000190734863,11.079999923706055,8.907740585837518,8.842779910188904,8.769699730878468,8.997062095648614,8.879320580638376,0.0027575969393064774,-2.799999952316284,21.325000762939453,0.0,0.0,0.0,0.0,0.0,,,,,
pylon_camera_1771858103736320505.png,1771858103736320505,1771858103.7363205,42.30086571645061,-83.69734961849812,238.5688018798828,-0.015714116897773855,-0.9995686481464581,-0.012789777210771975,-0.021260427363630742,0.028050000000000005,-0.05585000000000001,-0.0021900000000000005,-0.252,0.3991,-9.9544,4.069240514426901,9.102646876342112,11.15999984741211,11.15999984741211,11.229999542236328,11.139999389648438,9.062022771297226,9.062022771297226,9.118863168891679,9.045782215188904,9.072172731668758,0.0033478333376368518,-1.899999976158142,17.42500114440918,0.0,0.0,0.0,0.0,0.0,,,,,
pylon_camera_1771858103777656893.png,1771858103777656893,1771858103.7776568,42.30086574714006,-83.69735160838029,238.57000732421875,-0.015606374789572497,-0.9995742099019366,-0.011814936384831186,-0.021639021305710337,0.04181,-0.031990000000000005,-0.0035000000000000005,2.5156,-1.199,-8.5708,4.143236642521159,9.268171775121282,11.449999809265137,11.25,11.34999942779541,11.5,9.297505414121533,9.135103725,9.216304182364599,9.33810603,9.246754837871533,0.0023108049537059966,-1.5,6.125,0.0,0.0,0.0,0.0,0.0,,,,,
pylon_camera_1771858103825215461.png,1771858103825215461,1771858103.8252156,42.300865797406736,-83.69735464099554,238.56817626953125,-0.015606669429508224,-0.9995690572362586,-0.01192848688540559,-0.021813823272414785,0.00079,-0.00544,-0.018690000000000002,2.1242,0.301,-8.6243,4.207527967295589,9.411987611162196,11.649999618530273,11.619999885559082,11.5,11.710000038146973,9.459907103243065,9.435547043472921,9.33810603,9.508627997175694,9.43554704347292,0.0025031303996599454,-1.399999976158142,0.0,0.0,0.0,0.0,0.0,0.0,,,,,
pylon_camera_1771858103876587676.png,1771858103876587676,1771858103.8765879,42.30086583380418,-83.69735669408223,238.56492614746094,-0.015476104234790677,-0.9995754180763445,-0.01153585975313625,-0.021826536944078212,0.03968,3e-05,-0.018020000000000005,0.542,-0.0804,-9.3759,4.265395387275015,9.541433557610974,11.880000114440918,11.800000190734863,11.800000190734863,11.899999618530273,9.64666962652708,9.581708950878468,9.581708950878468,9.662909408243065,9.61824923413177,0.00805074793603971,-1.5,0.0,0.0,0.0,0.0,0.0,0.0,,,,,
pylon_camera_1771858103926151525.png,1771858103926151525,1771858103.9261515,42.30086587911893,-83.69735981994548,238.5591278076172,-0.015478727057550434,-0.9995824199019063,-0.011066901644537372,-0.021746689856549723,0.0008600000000000002,0.007070000000000001,0.00192,0.8085,0.3098,-10.360100000000001,4.330063634641699,9.686092546875404,11.989999771118164,12.079999923706055,11.920000076293945,11.9399995803833,9.73599036194584,9.809071315648612,9.679149964351387,9.695389746067372,9.729900347003303,0.004522752587371362,-1.600000023841858,0.0,0.0,0.0,0.0,0.0,0.0,,,,,
pylon_camera_1771858103977296162.png,1771858103977296162,1771858103.977296,42.30086590321575,-83.69736193287623,238.55560302734375,-0.015595433430276306,-0.9995678308252821,-0.011077978900415779,-0.0223206724550095,-0.00693,-0.04354,0.007060000000000001,1.1779,1.2702,-10.372,4.392858299763302,9.82656044507252,12.139999389648438,12.059999465942383,11.989999771118164,12.279999732971191,9.857791435188904,9.79283075954029,9.73599036194584,9.971473004770145,9.839521390361295,0.0013189706979591313,-1.399999976158142,0.0,0.0,0.0,0.0,0.0,0.0,,,,,
pylon_camera_1771858104027174777.png,1771858104027174777,1771858104.0271747,42.300865938489125,-83.6973651413775,238.55247497558594,-0.015645507357310406,-0.9995466389710104,-0.01090390569462954,-0.023298915465995648,0.004720000000000001,-0.040330000000000005,-0.00321,-0.4117,0.8360000000000001,-9.3298,4.424366759060568,9.897042978012948,12.25999927520752,12.219999313354492,12.139999389648438,12.109999656677246,9.955232448661823,9.922752110837518,9.857791435188904,9.833431375418758,9.89230184252675,0.00047904566007546704,-1.2000000476837158,0.0,0.0,0.0,0.0,0.0,0.0,,,,,
pylon_camera_1771858104078512865.png,1771858104078512865,1771858104.078513,42.30086597504638,-83.69736729172848,238.54989624023438,-0.015778770144933396,-0.9995308477917573,-0.010558889615598472,-0.024033821491597274,0.020010000000000003,-0.024790000000000003,-0.006300000000000001,-1.4963,0.0748,-10.3931,4.428445638441116,9.906167186454471,12.279999732971191,12.269999504089355,12.369999885559082,12.369999885559082,9.971473004770145,9.963352726715986,10.04455395847292,10.04455395847292,10.005983412107991,0.010076170104418044,-1.3000000715255737,2.200000047683716,0.0,0.0,0.0,0.0,0.0,,,,,
pylon_camera_1771858104128350020.png,1771858104128350020,1771858104.12835,42.300866020174254,-83.69737051998025,238.54702758789062,-0.015857551384616364,-0.9995278254521897,-0.010653901546834797,-0.024065714049901772,-0.018890000000000004,0.01251,-0.0048200000000000005,-1.4089,-0.0005,-9.3427,4.443723474320521,9.940342788646547,12.369999885559082,12.239999771118164,12.389999389648438,12.479999542236328,10.04455395847292,9.93899266694584,10.060793740188904,10.133874693891677,10.044553764874836,0.010483640096125757,-1.3000000715255737,4.025000095367432,0.0,0.0,0.0,0.0,0.0,,,,,
pylon_camera_1771858104179489991.png,1771858104179489991,1771858104.17949,42.30086604254715,-83.69737267923847,238.54391479492188,-0.015894486114209183,-0.9995299603618761,-0.011601626488267527,-0.023507996787865644,-0.04531000000000001,0.020980000000000002,-0.0032300000000000002,-0.2474,1.0031,-9.2123,4.455916686844539,9.967618273470023,12.449999809265137,12.279999732971191,12.40999984741211,12.469999313354492,10.109514634121533,9.971473004770145,10.077034296297228,10.125754415837518,10.070944087756606,0.01036614880824606,-1.3000000715255737,5.400000095367432,0.0,0.0,0.0,0.0,0.0,,,,,
pylon_camera_1771858104229256529.png,1771858104229256529,1771858104.2292564,42.3008660783821,-83.69737592202996,238.5388641357422,-0.015974659012572,-0.9995335421921838,-0.012211088448491149,-0.022986901076074668,-0.01711,0.0035700000000000007,-0.0007000000000000001,0.5771000000000001,0.9918,-9.370700000000001,4.475913745619971,10.012350494127139,12.40999984741211,12.380000114440918,12.479999542236328,12.489999771118164,10.077034296297228,10.05267423652708,10.133874693891677,10.14199497194584,10.101394549665457,0.008893421738536633,-1.5,8.574999809265137,0.0,0.0,0.0,0.0,0.0,,,,,
pylon_camera_1771858104281005580.png,1771858104281005580,1771858104.2810056,42.300866110485764,-83.69737917870236,238.5342559814453,-0.01604586488214249,-0.9995326762402365,-0.012300410314953616,-0.022927260069585485,0.0020000000000000005,-0.0091,0.00135,0.0095,0.49100000000000005,-10.4708,4.490775478579291,10.04559529905316,12.4399995803833,12.4399995803833,12.529999732971191,12.5,10.101394356067372,10.101394356067372,10.174475309770145,10.15011525,10.131844817976223,0.008585804659201491,-1.600000023841858,9.90000057220459,0.0,0.0,0.0,0.0,0.0,,,,,
pylon_camera_1771858104330449047.png,1771858104330449047,1771858104.330449,42.30086613510489,-83.6973813608238,238.53170776367188,-0.016130590313796378,-0.9995258592368312,-0.012238946553580887,-0.023196313505837292,0.009330000000000001,-0.036180000000000004,-0.00543,0.6229,-0.2716,-9.3863,4.51450595957199,10.098678961204968,12.309999465942383,12.309999465942383,12.609999656677246,12.539999961853027,9.99583306454029,9.99583306454029,10.23943598541876,10.182595587824308,10.103424425580913,0.00046990942024948264,-1.5,12.050000190734863,0.0,0.0,0.0,0.0,0.0,,,,,
pylon_camera_1771858104381769696.png,1771858104381769696,1771858104.3817697,42.30086618409619,-83.69738464056535,238.52664184570312,-0.016217969064335258,-0.9995210067343374,-0.012274197709286437,-0.02332549349527187,0.0017400000000000002,-0.025820000000000003,-0.0028300000000000005,0.1784,0.1252,-9.6843,4.524510791108423,10.121059169062075,12.420000076293945,12.50999927520752,12.569999694824219,12.59000015258789,10.085154574351387,10.158234753661825,10.206955647594452,10.223196203702775,10.16838529482761,0.004676005245597294,-1.5,12.074999809265137,0.0,0.0,0.0,0.0,0.0,,,,,
pylon_camera_1771858104431774092.png,1771858104431774092,1771858104.4317741,42.30086622699481,-83.69738683191122,238.52244567871094,-0.01623362849593013,-0.99952388834908,-0.012314481659396158,-0.023169364834893846,0.013600000000000001,-0.037630000000000004,-0.007240000000000001,0.4783,1.0616,-10.4771,4.53881001921723,10.153045684387791,12.6899995803833,12.639999389648438,12.449999809265137,12.59000015258789,10.304396661067372,10.263796045188904,10.109514634121533,10.223196203702775,10.225225886020146,0.007109216670160886,-1.5,12.125,0.0,0.0,0.0,0.0,0.0,,,,,
pylon_camera_1771858104482510463.png,1771858104482510463,1771858104.4825103,42.30086628944939,-83.69739013111776,238.5171356201172,-0.016203857816261713,-0.9995266822868434,-0.01229168360158079,-0.023081613954928446,-0.024930000000000004,-0.02959,0.013570000000000002,-0.28850000000000003,1.7473,-9.4312,4.553376627141459,10.185630312317816,12.5,12.899999618530273,12.579999923706055,12.859999656677246,10.15011525,10.474918628243065,10.215075925648613,10.442438290418758,10.320637023577609,0.01325462510616795,-1.399999976158142,12.199999809265137,0.0,0.0,0.0,0.0,0.0,,,,,
pylon_camera_1771858104532223090.png,1771858104532223090,1771858104.532223,42.30086632372998,-83.69739234364096,238.51316833496094,-0.01622921923772125,-0.9995429315730238,-0.011607921125611601,-0.022711154802890175,0.0036600000000000005,0.052980000000000006,0.00436,-0.0091,-1.3246,-9.5663,4.566032572359194,10.213940902413176,12.799999237060547,12.889999389648438,12.679999351501465,12.90999984741211,10.39371739648613,10.466798350188904,10.29627638301321,10.483038906297226,10.409957758996367,0.019191109333409086,-1.3000000715255737,11.625,0.0,0.0,0.0,0.0,0.0,,,,,
pylon_camera_1771858104583582903.png,1771858104583582903,1771858104.5835829,42.30086639040608,-83.69739567716069,238.5077362060547,-0.016260075639536964,-0.9995519524331491,-0.010893832625462962,-0.02264572228931087,0.020670000000000004,0.022310000000000003,-0.006110000000000001,-0.6704,-2.6009,-10.616800000000001,4.58748315951113,10.261924578836828,12.880000114440918,13.119999885559082,12.859999656677246,12.889999389648438,10.458678846527082,10.65356087347292,10.442438290418758,10.466798350188904,10.505369090151916,0.023723085220987105,-1.399999976158142,11.449999809265137,0.0,0.0,0.0,0.0,0.0,,,,,
pylon_camera_1771858104634803588.png,1771858104634803588,1771858104.6348038,42.30086643769558,-83.69739791354735,238.5038604736328,-0.016353719541148948,-0.9995579563826986,-0.010373085969094208,-0.02255763233786686,0.012500000000000002,0.030030000000000005,0.00135,-1.0983,-1.4084,-9.9985,4.62111847750186,10.337164767063012,12.899999618530273,13.029999732971191,13.039999961853027,12.960000038146973,10.474918628243065,10.580479919770147,10.588600197824306,10.523639522175694,10.541909567003303,0.01980666890332092,-1.5,6.450000286102295,0.0,0.0,0.0,0.0,0.0,,,,,
pylon_camera_1771858104694951792.png,1771858104694951792,1771858104.6949518,42.30086650312815,-83.69740129220378,238.49746704101562,-0.016411645535298836,-0.9995567352462686,-0.010221498232515572,-0.022638725417461796,-0.016530000000000003,-0.0019700000000000004,0.006270000000000001,-0.7882,-0.3141,-10.1806,4.671371875299196,10.449578602731785,12.84000015258789,12.769999504089355,13.029999732971191,12.819999694824219,10.426198508702774,10.369357336715984,10.580479919770147,10.409957952594452,10.446498429445839,0.0002947653109323466,-1.600000023841858,0.0,0.0,0.0,0.0,0.0,0.0,,,,,
pylon_camera_1771858104743973238.png,1771858104743973238,1771858104.743973,42.30086655432724,-83.69740469346982,238.4917449951172,-0.0164142358727149,-0.9995486678490717,-0.010558799991421355,-0.022837364221869404,-0.028920000000000005,-0.03363000000000001,0.005580000000000001,-0.3165,0.2389,-10.5249,4.691426218994203,10.494438966316894,13.09999942779541,13.019999504089355,13.079999923706055,13.119999885559082,10.637320317364598,10.572359641715984,10.621080535648614,10.65356087347292,10.62108034205053,0.012067474606322985,-1.7000000476837158,0.0,0.0,0.0,0.0,0.0,0.0,,,,,
pylon_camera_1771858104787592329.png,1771858104787592329,1771858104.7875924,42.300866584596825,-83.6974069689413,238.48939514160156,-0.016512688120939367,-0.9995269847635397,-0.011282950026361573,-0.02336306699107531,-0.014460000000000002,-0.025590000000000005,-0.007390000000000002,-0.4016,-0.5066,-10.5906,4.717468232910482,10.552693388926775,13.079999923706055,13.119999885559082,13.119999885559082,13.079999923706055,10.621080535648614,10.65356087347292,10.65356087347292,10.621080535648614,10.637320704560768,0.008019499147278805,-1.600000023841858,0.0,0.0,0.0,0.0,0.0,0.0,,,,,
pylon_camera_1771858104835152422.png,1771858104835152422,1771858104.8351524,42.30086660853766,-83.69740925939675,238.4885711669922,-0.016618387999213557,-0.9994981855529064,-0.011642918457157982,-0.02432383001411723,0.029030000000000004,-0.05007000000000001,-0.008360000000000001,-0.5419,0.47900000000000004,-10.139800000000001,4.736083510797983,10.594334648644441,13.34000015258789,12.889999389648438,13.219999313354492,13.079999923706055,10.832203118702774,10.466798350188904,10.734761330837516,10.621080535648614,10.663710833844453,0.006548423048812098,-1.7000000476837158,0.0,0.0,0.0,0.0,0.0,0.0,,,,,
pylon_camera_1771858104886110565.png,1771858104886110565,1771858104.8861105,42.30086664460225,-83.69741269768838,238.4876251220703,-0.01682591350827134,-0.9994789546435183,-0.011484900885770487,-0.025036072195053376,0.01759,-0.023670000000000004,0.00017,-0.9678,1.4574,-9.9724,4.741011360822428,10.605357953478123,13.149999618530273,13.09000015258789,13.25,13.139999389648438,10.677920933243065,10.629200813702774,10.759122165,10.669800655188904,10.684011141783685,0.007416363375058672,-1.600000023841858,0.0,0.0,0.0,0.0,0.0,0.0,,,,,
pylon_camera_1771858104935890051.png,1771858104935890051,1771858104.9358902,42.30086666630491,-83.69741499488858,238.48638916015625,-0.01694367946081221,-0.9994595245317359,-0.011859411156560392,-0.025552395506980057,-0.021040000000000003,-0.04256000000000001,0.0026300000000000004,-0.9962000000000001,1.8659000000000001,-10.063500000000001,4.747456082261502,10.619774408654045,13.119999885559082,13.199999809265137,13.219999313354492,13.239999771118164,10.65356087347292,10.718521549121533,10.734761330837516,10.751001886945838,10.71446141009445,0.008916102903583826,-1.600000023841858,0.0,0.0,0.0,0.0,0.0,0.0,,,,,
pylon_camera_1771858104986479812.png,1771858104986479812,1771858104.9864798,42.30086670973141,-83.69741844418029,238.4834442138672,-0.01691918795539299,-0.999444820431519,-0.012438381186369238,-0.025866554950382977,-0.027390000000000005,-0.025880000000000004,0.0029000000000000007,-0.11120000000000001,0.7657,-9.372,4.755129156590947,10.636938615544553,13.15999984741211,13.34999942779541,13.34999942779541,13.149999618530273,10.686041211297226,10.840322622364598,10.840322622364598,10.677920933243065,10.761151847317372,0.011677535827018573,-1.8000000715255737,0.0,0.0,0.0,0.0,0.0,0.0,,,,,
pylon_camera_1771858105036958337.png,1771858105036958337,1771858105.0369585,42.300866742442196,-83.69742074225539,238.48052978515625,-0.0169245597351122,-0.9994254687534017,-0.012871360061390398,-0.026393555557858567,-0.010540000000000002,-0.016280000000000003,0.012670000000000002,-0.2349,1.6234000000000002,-9.5088,4.755911966929157,10.63868971530251,13.199999809265137,13.199999809265137,13.25999927520752,13.219999313354492,10.718521549121533,10.718521549121533,10.767241668661823,10.734761330837516,10.734761524435601,0.009030417438991889,-2.1000001430511475,0.0,0.0,0.0,0.0,0.0,0.0,,,,,
pylon_camera_1771858105088180536.png,1771858105088180536,1771858105.0881805,42.300866793879585,-83.69742419459138,238.47564697265625,-0.016873835963712835,-0.9994130738218714,-0.012705505878317327,-0.02696945780257123,-0.003980000000000001,-0.00058,0.00033000000000000005,-0.49460000000000004,0.5255000000000001,-8.2894,4.755038102583928,10.636734933194093,13.059999465942383,13.229999542236328,13.239999771118164,13.049999237060547,10.60483997954029,10.742881608891679,10.751001886945838,10.59671970148613,10.673860794215985,0.003490343724372866,-2.299999952316284,0.0,0.0,0.0,0.0,0.0,0.0,,,,,
pylon_camera_1771858105146802421.png,1771858105146802421,1771858105.1468024,42.300866846810706,-83.69742764001725,238.46852111816406,-0.016897110008056215,-0.9994066907727444,-0.012538682652106819,-0.02726784827223527,0.0014000000000000002,-0.012740000000000001,8e-05,-0.5618000000000001,0.2323,-10.9482,4.757138481552208,10.641433354923397,13.219999313354492,13.1899995803833,13.1899995803833,13.00999927520752,10.734761330837516,10.710401271067372,10.710401271067372,10.564239363661825,10.679950809158523,0.0036195738816806986,-2.4000000953674316,0.0,0.0,0.0,0.0,0.0,0.0,,,,,
pylon_camera_1771858105188577073.png,1771858105188577073,1771858105.188577,42.30086687641714,-83.69742993771871,238.4633331298828,-0.01699215954522998,-0.9994040169239322,-0.012896060216234174,-0.027139806579951867,-0.011230000000000002,0.013790000000000002,0.009330000000000001,-0.23190000000000002,1.1786,-9.3114,4.756230750809277,10.639402815715306,13.269999504089355,13.289999961853027,13.229999542236328,12.9399995803833,10.775361946715984,10.791602502824306,10.742881608891679,10.507398966067372,10.704311256124836,0.006100759745054003,-2.5,0.0,0.0,0.0,0.0,0.0,0.0,,,,,
pylon_camera_1771858105238476334.png,1771858105238476334,1771858105.2384763,42.300866900333,-83.69743223131186,238.4585723876953,-0.01708930473575826,-0.999402004036068,-0.013614917907471092,-0.02679970154147284,-0.026220000000000004,-0.019050000000000004,0.010180000000000002,0.8134,2.5565,-9.7066,4.764514938768267,10.657934047128288,13.1899995803833,13.199999809265137,13.219999313354492,13.25,10.710401271067372,10.718521549121533,10.734761330837516,10.759122165,10.730701579006606,0.006827545709754587,-2.5,0.0,0.0,0.0,0.0,0.0,0.0,,,,,
pylon_camera_1771858105289546115.png,1771858105289546115,1771858105.2895463,42.30086694372358,-83.69743567747227,238.4518280029297,-0.017094393095882066,-0.9993993666203743,-0.013692692428078433,-0.026855127956277484,-0.01898,-0.017020000000000004,0.012790000000000001,-0.47900000000000004,2.8841,-9.8582,4.756655173771725,10.640352224416924,13.309999465942383,13.25,13.420000076293945,12.989999771118164,10.80784228454029,10.759122165,10.897163794351389,10.54799958194584,10.75303195645938,0.010589849815674665,-2.6000001430511475,0.0,0.0,0.0,0.0,0.0,0.0,,,,,
pylon_camera_1771858105339235702.png,1771858105339235702,1771858105.3392355,42.30086697872164,-83.6974379732056,238.44790649414062,-0.01726075130910515,-0.9993836807238426,-0.013605318256349122,-0.02737189219351863,-0.024330000000000004,-0.006910000000000001,0.021530000000000004,-0.9833000000000001,1.1835,-8.6959,4.775867655247668,10.68332939272972,13.199999809265137,13.210000038146973,13.269999504089355,12.979999542236328,10.718521549121533,10.726641827175694,10.775361946715984,10.539879303891679,10.690101156726223,0.0006338626983749355,-2.5,0.0,0.0,0.0,0.0,0.0,0.0,,,,,
pylon_camera_1771858105390424246.png,1771858105390424246,1771858105.3904243,42.30086702577527,-83.69744143691186,238.44186401367188,-0.017385085800095956,-0.9993568624158861,-0.01405306457432828,-0.028038040410641854,-0.0024000000000000002,-0.013300000000000001,-0.0011300000000000001,0.8916000000000001,-0.6784,-8.494,4.789584014309924,10.714012064970444,13.239999771118164,13.219999313354492,13.269999504089355,13.139999389648438,10.751001886945838,10.734761330837516,10.775361946715984,10.669800655188904,10.73273145492206,0.001747187686377535,-2.5,0.0,0.0,0.0,0.0,0.0,0.0,,,,,
pylon_camera_1771858105440617969.png,1771858105440617969,1771858105.440618,42.30086707256096,-83.69744488930317,238.43496704101562,-0.017452740155884994,-0.9993367864912893,-0.014486777778741338,-0.02848723040072534,0.01683,-0.00817,-0.00557,-0.3889,0.39530000000000004,-11.0858,4.766711151507973,10.662846843254247,13.229999542236328,13.279999732971191,13.039999961853027,13.359999656677246,10.742881608891679,10.783482224770147,10.588600197824306,10.848442900418759,10.740851732976223,0.007315578181761575,-2.4000000953674316,0.0,0.0,0.0,0.0,0.0,0.0,,,,,
pylon_camera_1771858105491399272.png,1771858105491399272,1771858105.491399,42.300867114396894,-83.69744719024962,238.43035888671875,-0.017390026383227453,-0.9993472791959971,-0.01394628729015146,-0.028427163361282832,0.031060000000000004,-0.0009700000000000002,-0.024230000000000005,-0.3184,-0.8646,-9.5889,4.761478959925847,10.651142744616525,13.309999465942383,13.34999942779541,13.149999618530273,13.269999504089355,10.80784228454029,10.840322622364598,10.677920933243065,10.775361946715984,10.775361946715984,0.011662523456672659,-2.200000047683716,2.0250000953674316,0.0,0.0,0.0,0.0,0.0,,,,,
pylon_camera_1771858105541700628.png,1771858105541700628,1771858105.5417006,42.3008671814754,-83.69745063216487,238.42478942871094,-0.017331385448723646,-0.9993616209942469,-0.013314733563034125,-0.02826112935331071,0.006660000000000001,0.007630000000000001,-0.005270000000000001,-1.4009,-0.4854,-9.101700000000001,4.751805300676521,10.629503349295337,13.309999465942383,13.289999961853027,13.269999504089355,13.279999732971191,10.80784228454029,10.791602502824306,10.775361946715984,10.783482224770147,10.789572239712681,0.015058924688890158,-2.0,2.0,0.0,0.0,0.0,0.0,0.0,,,,,
pylon_camera_1771858105592695613.png,1771858105592695613,1771858105.5926955,42.30086722575258,-83.69745292801164,238.42111206054688,-0.01736281087607139,-0.9993761717615308,-0.01329167365230026,-0.027733220607607804,0.00033000000000000005,0.04009,0.004320000000000001,-1.2655,0.2906,-9.576600000000001,4.743576628599197,10.611096303578687,13.25,12.84999942779541,13.34000015258789,13.119999885559082,10.759122165,10.434318012364598,10.832203118702774,10.65356087347292,10.669801042385073,0.0055323914821682274,-1.7000000476837158,2.5250000953674316,0.0,0.0,0.0,0.0,0.0,,,,,
pylon_camera_1771858105642656571.png,1771858105642656571,1771858105.6426566,42.30086727477605,-83.69745635709029,238.41458129882812,-0.01750729774458054,-0.9993922999781073,-0.014245607519896418,-0.026562905272961925,-0.03567000000000001,0.05612,0.00949,1.8018,1.6306,-8.6217,4.755746807391788,10.638320263326987,13.239999771118164,13.359999656677246,13.420000076293945,13.199999809265137,10.751001886945838,10.848442900418759,10.897163794351389,10.718521549121533,10.80378253270938,0.015553420585840444,-1.399999976158142,3.924999952316284,0.0,0.0,0.0,0.0,0.0,,,,,
pylon_camera_1771858105702279934.png,1771858105702279934,1771858105.70228,42.30086731630932,-83.69745980044685,238.40660095214844,-0.017492534109866176,-0.999401003585362,-0.015039577026376604,-0.02579644172853917,0.004810000000000001,-0.006490000000000001,-0.013970000000000002,1.0818,-0.1628,-9.0919,4.77188170773988,10.674413067311647,13.229999542236328,13.239999771118164,13.25,13.299999237060547,10.742881608891679,10.751001886945838,10.759122165,10.799722006486132,10.763181916830913,0.008316040325542883,-1.5,6.075000286102295,0.0,0.0,0.0,0.0,0.0,,,,,
pylon_camera_1771858105752058817.png,1771858105752058817,1771858105.752059,42.30086734509934,-83.69746210322656,238.40164184570312,-0.01750077530419919,-0.9993992162381271,-0.015083615156146427,-0.025834356972658155,0.011430000000000003,-0.018220000000000004,-0.01088,1.0230000000000001,-0.6397,-9.065100000000001,4.779631919231567,10.69174982540586,13.199999809265137,13.229999542236328,13.289999961853027,13.269999504089355,10.718521549121533,10.742881608891679,10.791602502824306,10.775361946715984,10.757091901888375,0.006111448317584769,-1.600000023841858,7.550000190734863,0.0,0.0,0.0,0.0,0.0,,,,,
pylon_camera_1771858105795842955.png,1771858105795842955,1771858105.7958431,42.30086737426926,-83.69746441369833,238.3966522216797,-0.01750815568892644,-0.9993799365847594,-0.015295796941692637,-0.026443249273358838,-0.00623,-0.013090000000000001,-0.009200000000000002,-0.458,-0.4174,-10.132100000000001,4.784760156399023,10.703221384255231,13.25,13.269999504089355,13.229999542236328,13.170000076293945,10.759122165,10.775361946715984,10.742881608891679,10.694161489351387,10.742881802489762,0.003705465561319019,-1.399999976158142,7.400000095367432,0.0,0.0,0.0,0.0,0.0,,,,,
pylon_camera_1771858105846390089.png,1771858105846390089,1771858105.84639,42.3008674145213,-83.6974678795064,238.3900146484375,-0.01761740094201103,-0.9993446374607938,-0.015949953940780363,-0.027304243840287512,-0.028230000000000005,-0.028660000000000005,0.00205,-1.3503,0.3195,-9.3435,4.7928349494850435,10.721284211901073,13.25,13.269999504089355,13.219999313354492,13.449999809265137,10.759122165,10.775361946715984,10.734761330837516,10.921523854121533,10.797692324168757,0.007126768655462715,-1.2000000476837158,7.5,0.0,0.0,0.0,0.0,0.0,,,,,
pylon_camera_1771858105896066191.png,1771858105896066191,1771858105.8960662,42.30086744559056,-83.69747019467209,238.38528442382812,-0.017634625809263393,-0.9993321673995872,-0.016333433151461435,-0.027521957315877404,-0.017130000000000003,0.013260000000000003,0.0035600000000000002,-1.1494,0.2449,-9.8442,4.790825278559242,10.716788698620313,13.369999885559082,13.359999656677246,13.269999504089355,13.40999984741211,10.85656317847292,10.848442900418759,10.775361946715984,10.889043516297226,10.842352885476222,0.011716586972744403,-1.0,7.625,0.0,0.0,0.0,0.0,0.0,,,,,
pylon_camera_1771858105947023976.png,1771858105947023976,1771858105.9470239,42.30086750609361,-83.69747366047741,238.37596130371094,-0.01754123152648157,-0.9993528258834377,-0.015958866975048128,-0.027047165474309815,0.010640000000000002,0.030430000000000006,-0.0032000000000000006,0.0204,0.1048,-8.9556,4.7984935821026635,10.733942233548733,13.460000038146973,13.529999732971191,13.40999984741211,13.4399995803833,10.929644132175694,10.986484529770147,10.889043516297226,10.91340357606737,10.929643938577609,0.018232043807466552,-0.9000000357627869,7.575000286102295,0.0,0.0,0.0,0.0,0.0,,,,,
pylon_camera_1771858105996203558.png,1771858105996203558,1771858105.9962034,42.30086755032262,-83.69747596856008,238.36911010742188,-0.017422486339978116,-0.9993853577701546,-0.015341778614383766,-0.02626772683923564,0.016550000000000002,0.028800000000000006,-0.004540000000000001,-0.3062,0.2753,-10.3815,4.806405231749883,10.751640119110585,13.5,13.429999351501465,13.4399995803833,13.460000038146973,10.962124470000001,10.905283298013211,10.91340357606737,10.929644132175694,10.92761386906407,0.016367154034545774,-0.9000000357627869,6.925000190734863,0.0,0.0,0.0,0.0,0.0,,,,,
pylon_camera_1771858106046354166.png,1771858106046354166,1771858106.0463543,42.30086761585246,-83.69747945069616,238.3600311279297,-0.017327191923313334,-0.9994058760312812,-0.01499428825953953,-0.02574557619844339,0.010650000000000001,0.020070000000000005,-0.00384,-0.1761,0.0363,-10.6485,4.828381080586604,10.800798774407399,13.460000038146973,13.5,13.429999351501465,13.469999313354492,10.929644132175694,10.962124470000001,10.905283298013211,10.937763635837516,10.933703884006604,0.012305118572723095,-0.9000000357627869,6.849999904632568,0.0,0.0,0.0,0.0,0.0,,,,,
pylon_camera_1771858106097290183.png,1771858106097290183,1771858106.0972903,42.30086765663066,-83.69748178755255,238.3553466796875,-0.017259706910648265,-0.9994103307000604,-0.014754025973410113,-0.025756787938914404,0.014990000000000002,-0.005700000000000001,-0.005710000000000001,-0.1948,-0.2924,-10.624600000000001,4.85176850322858,10.853115035612142,13.469999313354492,13.469999313354492,13.489999771118164,13.460000038146973,10.937763635837516,10.937763635837516,10.954004191945838,10.929644132175694,10.93979389894914,0.007986542393827152,-0.9000000357627869,6.900000095367432,0.0,0.0,0.0,0.0,0.0,,,,,
pylon_camera_1771858106147171264.png,1771858106147171264,1771858106.1471713,42.30086771324179,-83.69748530004391,238.35035705566406,-0.017252863777710015,-0.9994098521031773,-0.01436308426408307,-0.02599976963352057,0.019490000000000004,-0.020170000000000004,-0.00502,-0.3909,-0.15560000000000002,-10.529900000000001,4.864456319156939,10.881496918574923,13.609999656677246,13.50999927520752,13.519999504089355,13.519999504089355,11.051445205418759,10.970243973661823,10.978364251715986,10.978364251715986,10.99460442062814,0.01039447999660226,-0.9000000357627869,7.075000286102295,0.0,0.0,0.0,0.0,0.0,,,,,
pylon_camera_1771858106198414925.png,1771858106198414925,1771858106.1984148,42.30086774927211,-83.69748765143633,238.348388671875,-0.017284515896264452,-0.9994022593148071,-0.014056028451974971,-0.0264347810819071,0.011460000000000001,-0.02363,-0.0008700000000000001,-0.3613,-0.048600000000000004,-10.5288,4.874470623401344,10.903898316311404,13.529999732971191,13.559999465942383,13.59999942779541,13.569999694824219,10.986484529770147,11.01084458954029,11.043324927364598,11.018964867594454,11.014904728567371,0.010180433550990712,-0.9000000357627869,6.775000095367432,0.0,0.0,0.0,0.0,0.0,,,,,
pylon_camera_1771858106248301808.png,1771858106248301808,1771858106.2483017,42.30086779358227,-83.6974911896429,238.348876953125,-0.017312370565374824,-0.9993716620978856,-0.014466674153463054,-0.027336388935886153,-0.03713,-0.06338,0.0008900000000000001,0.5663,0.0888,-10.6478,4.891561836744604,10.942130335087475,13.489999771118164,13.5,13.649999618530273,13.50999927520752,10.954004191945838,10.962124470000001,11.083925543243065,10.970243973661823,10.992574544712681,0.0046100903645289485,-0.9000000357627869,6.950000286102295,0.0,0.0,0.0,0.0,0.0,,,,,
pylon_camera_1771858106299231970.png,1771858106299231970,1771858106.299232,42.3008678152863,-83.69749354687428,238.34979248046875,-0.017445487025128048,-0.9993401673783098,-0.01503085756900216,-0.028088399162078195,-0.05063000000000001,-0.04594000000000001,0.009120000000000001,-0.5735,-0.48410000000000003,-7.4747,4.8955188605871545,10.95098196000183,13.59999942779541,13.579999923706055,13.649999618530273,13.699999809265137,11.043324927364598,11.027085145648613,11.083925543243065,11.124526159121533,11.069715443844451,0.010842268234601483,-1.0,4.575000286102295,0.0,0.0,0.0,0.0,0.0,,,,,
pylon_camera_1771858106349206423.png,1771858106349206423,1771858106.3492064,42.30086784856609,-83.69749708660208,238.3446807861328,-0.017517634906341784,-0.9993377612277597,-0.015356044355909957,-0.027952877370968944,0.0016300000000000002,0.009390000000000003,0.0027800000000000004,-1.0547,0.45890000000000003,-7.7456000000000005,4.895611856665351,10.951189986648991,13.739999771118164,13.719999313354492,13.719999313354492,13.739999771118164,11.157006496945838,11.140765940837518,11.140765940837518,11.157006496945838,11.148886218891679,0.018052488586510394,-1.100000023841858,0.0,0.0,0.0,0.0,0.0,0.0,,,,,
pylon_camera_1771858106400618629.png,1771858106400618629,1771858106.4006188,42.300867888027184,-83.69750063137016,238.33428955078125,-0.017428119346999116,-0.9993653579619559,-0.015331556441984123,-0.027020091388900054,0.019960000000000002,0.04435,-0.007060000000000001,0.3674,0.542,-9.155700000000001,4.913536170795166,10.99128560189854,13.75,13.699999809265137,13.75999927520752,13.719999313354492,11.165126775000001,11.124526159121533,11.173246278661823,11.140765940837518,11.150916288405218,0.014523386279681949,-1.100000023841858,0.0,0.0,0.0,0.0,0.0,0.0,,,,,
pylon_camera_1771858106450787795.png,1771858106450787795,1771858106.4507878,42.30086792161562,-83.69750300564537,238.325927734375,-0.017330548666230572,-0.9993908826889526,-0.015282367791466252,-0.02615272291387642,0.0027,0.03311000000000001,-0.008690000000000002,0.6436000000000001,0.2538,-9.452200000000001,4.9298022119504585,11.027671760000459,13.799999237060547,13.90999984741211,13.789999961853027,13.75999927520752,11.20572661648613,11.295048126297226,11.197607112824306,11.173246278661823,11.217907033567371,0.017250719617619877,-1.100000023841858,0.0,0.0,0.0,0.0,0.0,0.0,,,,,
pylon_camera_1771858106510459573.png,1771858106510459573,1771858106.5104597,42.30086797400115,-83.69750657313709,238.31394958496094,-0.017235957179408734,-0.999405782117618,-0.015264602219339504,-0.025651439902413416,0.007440000000000001,0.012340000000000002,-0.006450000000000001,0.0287,0.2926,-10.730400000000001,4.945509679443677,11.062808422334738,13.84999942779541,13.859999656677246,13.699999809265137,13.809999465942383,11.246327232364598,11.254447510418759,11.124526159121533,11.213846894540291,11.209786949111296,0.013285824102297741,-1.100000023841858,0.0,0.0,0.0,0.0,0.0,0.0,,,,,
pylon_camera_1771858106560407740.png,1771858106560407740,1771858106.5604079,42.300868033629236,-83.6975101539204,238.30435180664062,-0.017202595047145275,-0.9994119842742961,-0.014852413458996277,-0.02567415484492315,0.024700000000000003,-0.003650000000000001,-0.004810000000000001,-0.3247,0.3795,-10.6204,4.9541368438625675,11.082106871509932,13.799999237060547,13.799999237060547,13.769999504089355,13.779999732971191,11.20572661648613,11.20572661648613,11.181366556715986,11.189486834770145,11.195576656114598,0.010239008333007145,-1.0,0.0,0.0,0.0,0.0,0.0,0.0,,,,,
pylon_camera_1771858106611174813.png,1771858106611174813,1771858106.6111748,42.30086807537307,-83.69751254817811,238.29954528808594,-0.017186243565185944,-0.9994162386884915,-0.014120791243842298,-0.025931026445443844,0.028260000000000004,-0.00987,-0.0009300000000000002,-0.7751,0.5119,-10.5135,4.959646068660029,11.094430676828367,13.880000114440918,13.789999961853027,13.84999942779541,13.809999465942383,11.27068806652708,11.197607112824306,11.246327232364598,11.213846894540291,11.232117326564069,0.012410429498042835,-1.0,0.0,0.0,0.0,0.0,0.0,0.0,,,,,
pylon_camera_1771858106661223914.png,1771858106661223914,1771858106.661224,42.30086813472523,-83.69751613862259,238.29437255859375,-0.01724832139088389,-0.9994158804694488,-0.013600091268573894,-0.026180733224257572,0.011920000000000002,-0.009800000000000001,0.0036100000000000004,-0.7589,0.5924,-9.8514,4.961158995133741,11.097815002574471,13.84000015258789,13.799999237060547,13.899999618530273,13.869999885559082,11.238207728702776,11.20572661648613,11.286927848243065,11.26256778847292,11.248357495476224,0.013565056983453958,-1.0,0.0,0.0,0.0,0.0,0.0,0.0,,,,,
pylon_camera_1771858106703569979.png,1771858106703569979,1771858106.70357,42.30086817177314,-83.69751852665476,238.29168701171875,-0.01723143813170136,-0.9994144544556818,-0.013459633414522795,-0.02631851122902566,-0.0049900000000000005,-0.012440000000000003,-0.0004700000000000001,-0.5696,-0.06960000000000001,-9.9372,4.958915517795991,11.092796478378565,13.84999942779541,13.859999656677246,13.989999771118164,13.920000076293945,11.246327232364598,11.254447510418759,11.36000880194584,11.303168404351387,11.290987987270146,0.017866685761149973,-1.0,0.0,0.0,0.0,0.0,0.0,0.0,,,,,
pylon_camera_1771858106762351112.png,1771858106762351112,1771858106.762351,42.30086822831729,-83.69752212502303,238.28846740722656,-0.017211305311720104,-0.999409592983754,-0.013129843186558656,-0.026680398036950867,0.00525,-0.012230000000000001,0.00034,-0.18030000000000002,-0.1495,-10.014800000000001,4.966531638099038,11.109833282529264,13.859999656677246,13.829999923706055,13.84000015258789,13.880000114440918,11.254447510418759,11.230087450648613,11.238207728702776,11.27068806652708,11.248357689074306,0.012468630538576816,-1.0,0.0,0.0,0.0,0.0,0.0,0.0,,,,,
pylon_camera_1771858106824323555.png,1771858106824323555,1771858106.8243237,42.30086829018675,-83.69752572551414,238.28585815429688,-0.01718615280924446,-0.9994018421423079,-0.012668372946752996,-0.02720489663757099,0.005190000000000001,-0.00999,0.0018700000000000004,-0.35550000000000004,0.3808,-9.017900000000001,4.966492402090693,11.109745513932756,13.829999923706055,13.829999923706055,13.869999885559082,13.880000114440918,11.230087450648613,11.230087450648613,11.26256778847292,11.27068806652708,11.248357689074306,0.01247662918720466,-1.0,2.049999952316284,0.0,0.0,0.0,0.0,0.0,,,,,
pylon_camera_1771858106875071033.png,1771858106875071033,1771858106.875071,42.300868328699394,-83.6975281260535,238.28289794921875,-0.017125271528294683,-0.9994023572629932,-0.012173072741161977,-0.027449402038894403,0.013840000000000002,-0.004050000000000001,-0.0016600000000000002,-0.6407,0.3985,-9.2002,4.960808353851627,11.09703063906486,13.90999984741211,13.9399995803833,13.90999984741211,13.90999984741211,11.295048126297226,11.319408186067372,11.295048126297226,11.295048126297226,11.301138141239763,0.01839298356592652,-0.9000000357627869,4.0,0.0,0.0,0.0,0.0,0.0,,,,,
pylon_camera_1771858106916773560.png,1771858106916773560,1771858106.9167736,42.30086836913539,-83.69753052565339,238.2792510986328,-0.0170704979194769,-0.999410133512733,-0.01197118841569714,-0.02728871159945646,0.008190000000000001,0.014570000000000001,-0.0017300000000000002,-0.7167,0.0212,-9.608,4.957340918188663,11.08927419353295,13.869999885559082,13.829999923706055,13.889999389648438,13.869999885559082,11.26256778847292,11.230087450648613,11.278807570188903,11.26256778847292,11.25850764944584,0.015261003827606999,-0.800000011920929,5.974999904632568,0.0,0.0,0.0,0.0,0.0,,,,,
pylon_camera_1771858106966579736.png,1771858106966579736,1771858106.9665797,42.30086842824941,-83.69753411756898,238.2724151611328,-0.016996587414085662,-0.9994231519661084,-0.011794290172960459,-0.026932769068926495,0.007500000000000001,0.022340000000000006,-0.004980000000000001,-0.6927,0.049800000000000004,-9.732700000000001,4.954757413299624,11.08349504810646,14.0,13.84000015258789,13.880000114440918,13.929999351501465,11.368129080000001,11.238207728702776,11.27068806652708,11.311287908013211,11.297078195810768,0.01927037877287603,-0.699999988079071,7.950000286102295,0.0,0.0,0.0,0.0,0.0,,,,,
pylon_camera_1771858107014964696.png,1771858107014964696,1771858107.0149648,42.300868469215956,-83.69753650608735,238.2674102783203,-0.016879134349737368,-0.9994396011003943,-0.011610350248166172,-0.026472218324183273,0.007050000000000001,0.01649,-0.007970000000000001,-0.5782,0.30310000000000004,-9.5359,4.949515947384695,11.071770203342721,13.899999618530273,13.989999771118164,13.949999809265137,13.929999351501465,11.286927848243065,11.36000880194584,11.327528464121533,11.311287908013211,11.321438255580913,0.022549966956757643,-0.5,8.699999809265137,0.0,0.0,0.0,0.0,0.0,,,,,
pylon_camera_1771858107064757320.png,1771858107064757320,1771858107.0647573,42.30086853090385,-83.69754009372791,238.25820922851562,-0.01674790887873634,-0.9994640784443423,-0.011404999771419459,-0.025709714658181792,0.006560000000000001,0.03785,-0.00321,-0.3599,0.0785,-9.0599,4.950795296401946,11.074632030333369,14.069999694824219,13.989999771118164,13.989999771118164,13.979999542236328,11.424969477594452,11.36000880194584,11.36000880194584,11.351888523891677,11.374218901344452,0.027051632071432824,-0.4000000059604645,8.77500057220459,0.0,0.0,0.0,0.0,0.0,,,,,
pylon_camera_1771858107115820826.png,1771858107115820826,1771858107.115821,42.30086856721947,-83.69754249425525,238.2518310546875,-0.016605066450088024,-0.9994853440587922,-0.011508453616981582,-0.024917348880083276,-0.006440000000000001,0.032510000000000004,-0.006410000000000002,1.6131,0.2973,-10.8558,4.9929597838365725,11.168951458855384,13.539999961853027,13.539999961853027,13.949999809265137,13.979999542236328,10.994604807824306,10.994604807824306,11.327528464121533,11.351888523891677,11.167156650915455,0.00016069618948030815,-0.4000000059604645,8.449999809265137,0.0,0.0,0.0,0.0,0.0,,,,,
pylon_camera_1771858107165808642.png,1771858107165808642,1771858107.1658087,42.30086861984828,-83.69754610136563,238.24302673339844,-0.01647709760893301,-0.9994932212668404,-0.011592774435217059,-0.024645759816138573,-0.024030000000000003,0.04972000000000001,-0.00812,1.4215,-0.7394000000000001,-8.4887,4.975978954826285,11.130966363209112,13.969999313354492,14.170000076293945,13.869999885559082,13.989999771118164,11.343768245837518,11.506170709351387,11.26256778847292,11.36000880194584,11.368128886401916,0.021306552859299915,-0.6000000238418579,8.425000190734863,0.0,0.0,0.0,0.0,0.0,,,,,
pylon_camera_1771858107216321423.png,1771858107216321423,1771858107.2163215,42.30086865226769,-83.69754850742474,238.23744201660156,-0.016355892238455794,-0.9995013583162227,-0.012426555976161513,-0.02398124725032973,-0.03892,0.05526000000000001,-0.0028000000000000004,0.23770000000000002,0.3961,-9.886000000000001,4.973177829761625,11.124700414506972,13.90999984741211,14.049999237060547,14.0,14.069999694824219,11.295048126297226,11.40872892148613,11.368129080000001,11.424969477594452,11.374218901344452,0.022429232027866605,-0.699999988079071,8.52500057220459,0.0,0.0,0.0,0.0,0.0,,,,,
pylon_camera_1771858107266422384.png,1771858107266422384,1771858107.2664223,42.30086869676072,-83.69755212347614,238.23013305664062,-0.016191180648923498,-0.9995171799438374,-0.012901532060929793,-0.02316901242593707,-0.004790000000000001,0.03912000000000001,-0.007740000000000001,0.5304,0.739,-10.994200000000001,5.002217284197845,11.189659931713528,14.059999465942383,14.019999504089355,14.059999465942383,14.019999504089355,11.416849199540291,11.384368861715986,11.416849199540291,11.384368861715986,11.40060903062814,0.018852145659649846,-0.6000000238418579,8.52500057220459,0.0,0.0,0.0,0.0,0.0,,,,,
pylon_camera_1771858107317334435.png,1771858107317334435,1771858107.3173344,42.30086872845733,-83.6975545491463,238.22726440429688,-0.016161115785819025,-0.9995164858206587,-0.012893280182453986,-0.023224474922275282,0.020130000000000002,-0.0035300000000000006,-0.00423,-0.0448,0.9123,-9.8728,5.038582477363883,11.271006686914367,13.989999771118164,13.989999771118164,14.079999923706055,14.09000015258789,11.36000880194584,11.36000880194584,11.433089755648613,11.441210033702776,11.398579348310767,0.01131865723622642,-0.5,8.100000381469727,0.0,0.0,0.0,0.0,0.0,,,,,
pylon_camera_1771858107367422473.png,1771858107367422473,1771858107.3674226,42.30086877806879,-83.69755821634523,238.22349548339844,-0.016070303827942778,-0.999506663717515,-0.012744937642766662,-0.023785312351154168,0.0061600000000000005,-0.03151,-0.006270000000000001,-0.8436,1.2804,-9.721400000000001,5.059986352930934,11.318885872325323,14.059999465942383,14.039999961853027,14.139999389648438,14.069999694824219,11.416849199540291,11.400609417824308,11.481809875188905,11.424969477594452,11.43105949253699,0.009910305791308641,-0.5,7.375,0.0,0.0,0.0,0.0,0.0,,,,,
pylon_camera_1771858107418374662.png,1771858107418374662,1771858107.4183745,42.30086881119446,-83.6975606701059,238.22048950195312,-0.015928350261751545,-0.9995007306620226,-0.012793902492987574,-0.024101724482325948,0.007220000000000001,-0.016560000000000002,-0.009020000000000002,-0.8932,1.6135000000000002,-8.898,5.065297816409469,11.330767297438998,14.1899995803833,14.130000114440918,14.139999389648438,14.179999351501465,11.522410491067372,11.47369037152708,11.481809875188905,11.51429021301321,11.498050237699143,0.014763602134689949,-0.4000000059604645,7.400000095367432,0.0,0.0,0.0,0.0,0.0,,,,,
pylon_camera_1771858107468538628.png,1771858107468538628,1771858107.4685385,42.30086887483751,-83.69756434349166,238.21456909179688,-0.015716794938585188,-0.9995238198336056,-0.012130489326242855,-0.02362132872642828,0.03778000000000001,0.022570000000000003,-0.007210000000000001,-0.38880000000000003,0.9426,-9.1615,5.0663965752410025,11.333225155019608,14.210000038146973,14.369999885559082,14.25,14.210000038146973,11.538651047175694,11.66857239847292,11.571131385000001,11.538651047175694,11.579251469456079,0.021708411424924575,-0.4000000059604645,7.5,0.0,0.0,0.0,0.0,0.0,,,,,
pylon_camera_1771858107519432164.png,1771858107519432164,1771858107.5194323,42.300868919688895,-83.6975667952052,238.20985412597656,-0.015517082763534584,-0.9995603050893926,-0.011029532681524436,-0.02273248866571536,0.04340000000000001,0.036770000000000004,-0.00572,-0.32120000000000004,0.7332000000000001,-9.365400000000001,5.07343563697368,11.348971113771904,14.069999694824219,14.269999504089355,14.359999656677246,14.289999961853027,11.424969477594452,11.587371166715984,11.66045212041876,11.603611722824308,11.569101121888377,0.01939647267665927,-0.30000001192092896,7.400000095367432,0.0,0.0,0.0,0.0,0.0,,,,,
pylon_camera_1771858107569477269.png,1771858107569477269,1771858107.5694773,42.300868988725036,-83.69757048273279,238.20303344726562,-0.015400197818625894,-0.9995918017867036,-0.010124850860473992,-0.021830050458294302,0.023670000000000004,0.03642,-0.0012100000000000001,0.17,0.2273,-10.080400000000001,5.089251377627665,11.38434997667043,14.299999237060547,14.359999656677246,14.399999618530273,14.289999961853027,11.61173122648613,11.66045212041876,11.692932458243066,11.603611722824308,11.642181881993064,0.022647925077057582,-0.4000000059604645,7.275000095367432,0.0,0.0,0.0,0.0,0.0,,,,,
pylon_camera_1771858107620579362.png,1771858107620579362,1771858107.6205792,42.30086904758229,-83.6975741895593,238.19801330566406,-0.015345385741960371,-0.9996035712473956,-0.009906652931898668,-0.021426098888276582,-0.00020000000000000004,-0.007260000000000001,-0.003,0.3536,0.018000000000000002,-10.6918,5.11667310179646,11.445690728332574,14.289999961853027,14.269999504089355,14.40999984741211,14.239999771118164,11.603611722824308,11.587371166715984,11.701052736297227,11.56301110694584,11.61376168319584,0.014684212499925796,-0.6000000238418579,6.875,0.0,0.0,0.0,0.0,0.0,,,,,
pylon_camera_1771858107670438586.png,1771858107670438586,1771858107.6704388,42.30086908015917,-83.69757667471934,238.1964111328125,-0.015362733502712167,-0.999593308165935,-0.010214464447622652,-0.021745560587277186,-0.014530000000000003,-0.028400000000000005,0.0021300000000000004,-0.017400000000000002,0.33590000000000003,-10.2103,5.1436163339983905,11.50596112217436,14.34999942779541,14.329999923706055,14.380000114440918,14.34000015258789,11.652331842364598,11.636092060648613,11.67669267652708,11.644212338702776,11.652332229560766,0.012721328173473356,-1.0,7.025000095367432,0.0,0.0,0.0,0.0,0.0,,,,,
pylon_camera_1771858107721168191.png,1771858107721168191,1771858107.721168,42.3008691112327,-83.69758042234402,238.1923065185547,-0.015357691221626779,-0.999576959907674,-0.010792120721283865,-0.02221649550245737,-0.034850000000000006,-0.05993000000000001,-0.0033700000000000006,1.3564,-0.9517,-7.1711,5.183638814424771,11.59548900953935,14.399999618530273,14.399999618530273,14.239999771118164,14.139999389648438,11.692932458243066,11.692932458243066,11.56301110694584,11.481809875188905,11.60767147465522,0.0010506210739235024,-1.8000000715255737,7.0,0.0,0.0,0.0,0.0,0.0,,,,,
pylon_camera_1771858107762772903.png,1771858107762772903,1771858107.762773,42.30086912344447,-83.69758293272281,238.19024658203125,-0.015426408789773693,-0.9995435444176486,-0.01202209502155727,-0.023026027797854683,-0.05974000000000001,-0.052660000000000005,0.014050000000000002,-0.881,2.8333,-12.0967,5.166215600290234,11.556514324913236,14.359999656677246,14.34000015258789,14.289999961853027,14.109999656677246,11.66045212041876,11.644212338702776,11.603611722824308,11.457449815418759,11.591431499341152,0.003021427867107144,-2.6000001430511475,7.075000286102295,0.0,0.0,0.0,0.0,0.0,,,,,
pylon_camera_1771858107813316204.png,1771858107813316204,1771858107.813316,42.30086912185483,-83.69758544538993,238.18836975097656,-0.015587725508447003,-0.9995002434634086,-0.01341259979058375,-0.024008088156236628,-0.06614,-0.03932000000000001,0.015940000000000003,-1.564,2.0474,-10.035300000000001,5.180276607223237,11.587967953761948,14.4399995803833,14.369999885559082,14.429999351501465,14.469999313354492,11.725412796067372,11.66857239847292,11.71729251801321,11.749772855837517,11.715262642097755,0.010985074246298875,-3.0,7.175000190734863,0.0,0.0,0.0,0.0,0.0,,,,,
pylon_camera_1771858107872232576.png,1771858107872232576,1771858107.8722324,42.30086913430493,-83.6975892176919,238.18592834472656,-0.015684052808715543,-0.9994733444845055,-0.014082119874965148,-0.024672617458987117,-0.016360000000000003,-0.008830000000000003,0.00013000000000000002,-0.23850000000000002,0.6414000000000001,-8.0805,5.190999390118512,11.611954175731706,14.519999504089355,14.4399995803833,14.50999927520752,14.519999504089355,11.790373471715984,11.725412796067372,11.782253193661825,11.790373471715984,11.772103233290292,0.013791740402600625,-2.4000000953674316,7.050000190734863,0.0,0.0,0.0,0.0,0.0,,,,,
pylon_camera_1771858107922999319.png,1771858107922999319,1771858107.9229994,42.30086916425139,-83.69759299369235,238.18002319335938,-0.01575243408116822,-0.9994755138334768,-0.014086707001957695,-0.02453818969824201,-0.009640000000000001,0.021400000000000002,0.007820000000000002,-1.3081,1.3395000000000001,-8.0698,5.185374522778346,11.599371684983796,14.59999942779541,14.589999198913574,14.6899995803833,14.589999198913574,11.855334147364598,11.847213869310437,11.928415101067372,11.847213869310437,11.869544246763212,0.02329199969763654,-1.399999976158142,6.700000286102295,0.0,0.0,0.0,0.0,0.0,,,,,
pylon_camera_1771858107976081463.png,1771858107976081463,1771858107.9760814,42.30086919283062,-83.6975955112892,238.1751251220703,-0.01571953054173625,-0.9994900178341743,-0.014205269041077238,-0.023891650023806364,-0.01124,0.0037300000000000002,-0.0021900000000000005,-0.0587,0.4486,-10.5267,5.211862225284525,11.658623086227967,14.619999885559082,14.739999771118164,14.5,14.65999984741211,11.87157470347292,11.96901571694584,11.77413369,11.904055041297227,11.879694787928997,0.01896207640181595,-0.800000011920929,7.075000286102295,0.0,0.0,0.0,0.0,0.0,,,,,
pylon_camera_1771858108016974717.png,1771858108016974717,1771858108.0169747,42.30086923268157,-83.69759803888326,238.17074584960938,-0.015572929697897697,-0.9994991798426174,-0.013838235381078073,-0.02381966826170466,0.032580000000000005,-0.015380000000000001,-0.01391,0.27890000000000004,0.3413,-11.008600000000001,5.2303185287869205,11.699908729784616,14.50999927520752,14.619999885559082,14.539999961853027,14.59999942779541,11.782253193661825,11.87157470347292,11.806614027824308,11.855334147364598,11.828944018080914,0.01102874315316768,-0.9000000357627869,7.125,0.0,0.0,0.0,0.0,0.0,,,,,
pylon_camera_1771858108065178261.png,1771858108065178261,1771858108.0651784,42.30086930124918,-83.69760184733073,238.16693115234375,-0.015352744323208045,-0.99951078622287,-0.012537897458548972,-0.024192614435090364,0.06674000000000001,-0.006640000000000001,-0.00973,-0.3326,0.5634,-10.5677,5.24133445628945,11.724550698652124,14.609999656677246,14.65999984741211,14.639999389648438,14.639999389648438,11.863454425418759,11.904055041297227,11.887814485188905,11.887814485188905,11.885784609273449,0.013751819985721154,-0.800000011920929,7.224999904632568,0.0,0.0,0.0,0.0,0.0,,,,,
pylon_camera_1771858108116154631.png,1771858108116154631,1771858108.1161547,42.30086935223971,-83.69760439303981,238.1657257080078,-0.015194134794649705,-0.9995147307670117,-0.010999606205229606,-0.024868653178650512,0.05652000000000001,-0.030890000000000004,-0.009880000000000002,-0.1761,-0.2006,-10.7202,5.250334707515629,11.744683720630011,14.649999618530273,14.630000114440918,14.679999351501465,14.59999942779541,11.895934763243066,11.879694981527082,11.92029482301321,11.855334147364598,11.887814678786988,0.012186872082860926,-0.800000011920929,7.224999904632568,0.0,0.0,0.0,0.0,0.0,,,,,
pylon_camera_1771858108165949865.png,1771858108165949865,1771858108.16595,42.30086942112591,-83.69760821872174,238.16586303710938,-0.015154022724292449,-0.9995056958835447,-0.010307899396897035,-0.025543427758349533,0.0134,-0.02832,-0.0022400000000000007,-0.6647000000000001,-0.096,-9.4799,5.255522331830541,11.75628812496501,14.630000114440918,14.5,14.729999542236328,14.769999504089355,11.879694981527082,11.77413369,11.96089543889168,11.993375776715984,11.902024971783687,0.012396501792874404,-0.9000000357627869,7.075000286102295,0.0,0.0,0.0,0.0,0.0,,,,,
pylon_camera_1771858108217324993.png,1771858108217324993,1771858108.217325,42.30086945681805,-83.69761077285987,238.16575622558594,-0.015172372950583934,-0.9994982401235708,-0.010327564824955327,-0.025814888992968514,-0.005930000000000001,-0.0026400000000000004,0.0012500000000000002,-0.5822,-0.0274,-8.7674,5.261548781032128,11.769768930242009,14.739999771118164,14.699999809265137,14.819999694824219,14.789999961853027,11.96901571694584,11.936535379121532,12.033976392594452,12.009616332824306,11.987285955371533,0.01848099367274933,-1.2000000476837158,7.0,0.0,0.0,0.0,0.0,0.0,,,,,
pylon_camera_1771858108267271500.png,1771858108267271500,1771858108.2672715,42.300869498108426,-83.69761460804845,238.16241455078125,-0.015213386459025646,-0.9994987515045171,-0.010516776812249228,-0.02569427988564168,-0.010030000000000002,0.015480000000000002,0.0026600000000000005,-0.19940000000000002,-0.29560000000000003,-8.1842,5.273109808244469,11.795630254454384,14.869999885559082,14.75999927520752,14.84999942779541,14.84999942779541,12.07457700847292,11.985255498661825,12.058336452364598,12.058336452364598,12.044126352965986,0.021066792799626984,-2.1000001430511475,6.950000286102295,0.0,0.0,0.0,0.0,0.0,,,,,
pylon_camera_1771858108318282077.png,1771858108318282077,1771858108.318282,42.300869515127324,-83.69761717268536,238.15725708007812,-0.015279110983792754,-0.9995027902197778,-0.010988078007456055,-0.025297890270250572,-0.023020000000000002,0.01969,0.005390000000000001,-0.3835,0.1124,-8.7835,5.284537720437539,11.82119380835555,14.899999618530273,14.809999465942383,14.84999942779541,14.809999465942383,12.098937068243064,12.025856114540291,12.058336452364598,12.025856114540291,12.052246437422061,0.01954562566288326,-2.9000000953674316,7.099999904632568,0.0,0.0,0.0,0.0,0.0,,,,,
pylon_camera_1771858108368055261.png,1771858108368055261,1771858108.3680553,42.30086953387113,-83.69762102830809,238.14691162109375,-0.015375501999108643,-0.9995062808464492,-0.011772011357494182,-0.02474284210379792,-0.03517000000000001,0.021430000000000005,0.0036900000000000006,-0.27890000000000004,0.443,-9.607000000000001,5.299219323279833,11.85403567301759,14.960000038146973,14.859999656677246,14.859999656677246,14.880000114440918,12.147657962175694,12.066456730418759,12.066456730418759,12.082697286527083,12.090817177385073,0.019974758883715072,-3.1000001430511475,6.974999904632568,0.0,0.0,0.0,0.0,0.0,,,,,
pylon_camera_1771858108419115883.png,1771858108419115883,1771858108.4191158,42.30086954624823,-83.69762360260302,238.139404296875,-0.01547803359883887,-0.9995080897364379,-0.012606902207376466,-0.024188324540236932,-0.024990000000000005,0.03157,0.0022800000000000003,-0.7336,1.2348000000000001,-10.239700000000001,5.305958479271322,11.869110760621192,14.949999809265137,14.960000038146973,14.880000114440918,14.969999313354492,12.139537684121532,12.147657962175694,12.082697286527083,12.155777465837517,12.131417599665458,0.022099957135334497,-2.6000001430511475,7.300000190734863,0.0,0.0,0.0,0.0,0.0,,,,,
pylon_camera_1771858108469003259.png,1771858108469003259,1771858108.4690032,42.30086957445459,-83.69762747558751,238.12973022460938,-0.015460950018145514,-0.9995167073410702,-0.012909953340303341,-0.02367791957400465,-0.00442,0.026900000000000004,-0.0018000000000000004,0.013800000000000002,0.8018000000000001,-10.584200000000001,5.3253474064329405,11.912482627346103,14.969999313354492,14.969999313354492,14.829999923706055,14.929999351501465,12.155777465837517,12.155777465837517,12.042096670648615,12.123297128013212,12.119237182584216,0.01735612648563205,-1.8000000715255737,7.349999904632568,0.0,0.0,0.0,0.0,0.0,,,,,
pylon_camera_1771858108520155739.png,1771858108520155739,1771858108.5201557,42.300869619975074,-83.69763136017737,238.12271118164062,-0.01539846292107705,-0.9995262798927806,-0.012664907996727244,-0.023445751188675545,0.018030000000000004,0.010380000000000002,-0.0033300000000000005,-0.33,1.1021,-10.4284,5.335462298533074,11.935109034080575,15.079999923706055,14.960000038146973,14.960000038146973,14.960000038146973,12.245098975648615,12.147657962175694,12.147657962175694,12.147657962175694,12.172018215543924,0.01984977102319355,-1.2000000476837158,7.275000095367432,0.0,0.0,0.0,0.0,0.0,,,,,
pylon_camera_1771858108569571617.png,1771858108569571617,1771858108.5695715,42.300869654407435,-83.69763395579847,238.11904907226562,-0.015320091043179995,-0.9995393150871864,-0.012212894062283815,-0.023179681276722285,0.02261,0.0013800000000000002,-0.004260000000000001,-0.109,0.7301000000000001,-10.2583,5.3450713010553965,11.95660379618286,15.069999694824219,15.029999732971191,15.019999504089355,15.00999927520752,12.236978697594452,12.204498359770147,12.196378081715984,12.188257803661823,12.206528235685603,0.020902627850103373,-1.100000023841858,7.025000095367432,0.0,0.0,0.0,0.0,0.0,,,,,
pylon_camera_1771858108621539616.png,1771858108621539616,1771858108.6215396,42.30086971137205,-83.69763785555998,238.1154022216797,-0.015191344773438697,-0.9995518792493994,-0.01161622095030886,-0.023028832879729132,0.03223,0.0010400000000000001,-0.007570000000000001,-0.3839,0.5788,-10.2843,5.353842465263958,11.97622436424756,15.0,15.039999961853027,15.029999732971191,15.069999694824219,12.180138300000001,12.212618637824306,12.204498359770147,12.236978697594452,12.208558498797228,0.019399614392934285,-1.0,7.075000286102295,0.0,0.0,0.0,0.0,0.0,,,,,
pylon_camera_1771858108671328013.png,1771858108671328013,1771858108.671328,42.300869753811554,-83.69764045671569,238.11358642578125,-0.0150985839916154,-0.9995713101457869,-0.01051367509246269,-0.022774795958100606,0.04417000000000001,0.017620000000000004,-0.00689,-0.517,0.0059,-10.1356,5.355272062744857,11.979422288036481,15.130000114440918,15.039999961853027,15.059999465942383,15.059999465942383,12.28569959152708,12.212618637824306,12.228858419540291,12.228858419540291,12.239008767107993,0.0216693654192952,-0.800000011920929,7.275000095367432,0.0,0.0,0.0,0.0,0.0,,,,,
pylon_camera_1771858108731337460.png,1771858108731337460,1771858108.7313375,42.300869809438765,-83.69764436264833,238.1107177734375,-0.015030114074607526,-0.9995901046139591,-0.009958058661380612,-0.02223860374338008,0.00483,0.027970000000000002,-0.0025900000000000003,-0.1888,-0.20020000000000002,-9.7077,5.362980597484483,11.99666581773694,15.059999465942383,15.109999656677246,15.09999942779541,15.059999465942383,12.228858419540291,12.269459035418759,12.261338757364596,12.228858419540291,12.247128657965984,0.020877704191671134,-0.800000011920929,7.275000095367432,0.0,0.0,0.0,0.0,0.0,,,,,
pylon_camera_1771858108781139333.png,1771858108781139333,1771858108.7811394,42.300869848184966,-83.69764828201691,238.1077423095703,-0.014968404573635963,-0.9995966631350621,-0.010353533847837937,-0.02180051032959485,-0.00783,0.018090000000000002,-0.0041800000000000006,0.23090000000000002,0.256,-9.170300000000001,5.381189216526138,12.03739740601598,15.119999885559082,15.130000114440918,15.139999389648438,15.1899995803833,12.27757931347292,12.28569959152708,12.293819095188905,12.33441971106737,12.297879427814069,0.021639397040086602,-0.9000000357627869,4.825000286102295,0.0,0.0,0.0,0.0,0.0,,,,,
pylon_camera_1771858108832199653.png,1771858108832199653,1771858108.8321996,42.30086987183265,-83.69765090260204,238.10516357421875,-0.014926206459311198,-0.999597412864734,-0.01040236573745721,-0.021771801531538317,0.005190000000000001,-0.008480000000000001,-0.0019900000000000004,0.1952,0.3373,-8.8984,5.409386584046353,12.10047322531665,15.039999961853027,15.00999927520752,15.179999351501465,15.219999313354492,12.212618637824306,12.188257803661823,12.326299433013212,12.358779770837517,12.271488911334213,0.014132975036031134,-0.9000000357627869,0.0,0.0,0.0,0.0,0.0,0.0,,,,,
pylon_camera_1771858108873384756.png,1771858108873384756,1771858108.8733847,42.30086989182333,-83.69765354010393,238.10206604003906,-0.014937544507078238,-0.9995946535982732,-0.010118370899606401,-0.022023097697313417,0.020120000000000002,-0.013830000000000002,-0.0023100000000000004,0.4637,0.5918,-9.4417,5.432729641629056,12.1526902445457,15.089999198913574,14.989999771118164,15.299999237060547,15.179999351501465,12.253218479310437,12.172018021945838,12.42374044648613,12.326299433013212,12.293819095188905,0.011612971926651767,-0.9000000357627869,0.0,0.0,0.0,0.0,0.0,0.0,,,,,
pylon_camera_1771858108925732383.png,1771858108925732383,1771858108.9257324,42.30086993115041,-83.69765751517164,238.09518432617188,-0.014915503450519174,-0.999573458444043,-0.009566618418556508,-0.023214408092091944,-0.00461,-0.04687,-0.00256,0.2223,-0.078,-9.2051,5.464925881559049,12.2247113014947,15.09999942779541,15.089999198913574,15.170000076293945,15.079999923706055,12.261338757364596,12.253218479310437,12.318179929351386,12.245098975648615,12.269459035418759,0.003660432775912447,-0.9000000357627869,0.0,0.0,0.0,0.0,0.0,0.0,,,,,
pylon_camera_1771858108986239944.png,1771858108986239944,1771858108.98624,42.3008699685157,-83.69766149344004,238.0875244140625,-0.014899253852374672,-0.9995399402512335,-0.010026433703273566,-0.024441577371296673,-0.024280000000000003,-0.04025000000000001,-0.0023000000000000004,-0.5659000000000001,0.0951,-10.0637,5.458453848850281,12.210233752647149,15.229999542236328,15.269999504089355,15.079999923706055,15.130000114440918,12.36690004889168,12.399380386715984,12.245098975648615,12.28569959152708,12.32426975069584,0.009339378783307019,-0.9000000357627869,0.0,0.0,0.0,0.0,0.0,0.0,,,,,
pylon_camera_1771858109027232637.png,1771858109027232637,1771858109.0272324,42.30086999644112,-83.6976641412228,238.08238220214844,-0.01484452295185168,-0.9995303469236176,-0.010204147457803282,-0.024791149463946272,0.007570000000000001,-0.00918,-0.0062900000000000005,-0.2079,0.5640000000000001,-10.2459,5.451576176576003,12.194848812429925,15.269999504089355,15.25,15.089999198913574,15.15999984741211,12.399380386715984,12.383140605000001,12.253218479310437,12.310059651297227,12.33644978058091,0.01161153945645107,-0.800000011920929,0.0,0.0,0.0,0.0,0.0,0.0,,,,,
pylon_camera_1771858109075235622.png,1771858109075235622,1771858109.0752356,42.30087002594646,-83.69766678594596,238.0777130126953,-0.014757077292045173,-0.9995361630618982,-0.009493356641897592,-0.024891034148162086,0.03386,-0.0048400000000000006,-0.010730000000000002,-0.2078,-0.309,-10.8975,5.439098631673728,12.16693729313623,15.269999504089355,15.25,15.15999984741211,15.1899995803833,12.399380386715984,12.383140605000001,12.310059651297227,12.33441971106737,12.356750088520144,0.015600704664681136,-0.800000011920929,0.0,0.0,0.0,0.0,0.0,0.0,,,,,
pylon_camera_1771858109126385485.png,1771858109126385485,1771858109.1263855,42.30087007018883,-83.69767074691293,238.07383728027344,-0.014717069408961503,-0.9995494943083144,-0.00883759613222804,-0.024619366169917067,0.013410000000000002,0.018540000000000004,-0.0016500000000000002,-0.7158,-0.1208,-10.9929,5.425379292397556,12.13624795433579,15.229999542236328,15.380000114440918,15.219999313354492,15.219999313354492,12.36690004889168,12.48870189652708,12.358779770837517,12.358779770837517,12.393290371773448,0.02117972691434894,-0.699999988079071,0.0,0.0,0.0,0.0,0.0,0.0,,,,,
pylon_camera_1771858109176420871.png,1771858109176420871,1771858109.176421,42.300870095176336,-83.6976733894678,238.07342529296875,-0.014646906779445856,-0.9995560320954723,-0.0086674669277021,-0.024455711815575955,0.010280000000000003,-0.010410000000000003,-0.00436,-0.34940000000000004,0.08410000000000001,-11.543000000000001,5.433369160191239,12.15412080919819,15.170000076293945,15.149999618530273,15.210000038146973,15.229999542236328,12.318179929351386,12.301939373243066,12.350660267175694,12.36690004889168,12.334419904665456,0.014834400471880798,-0.699999988079071,0.0,0.0,0.0,0.0,0.0,0.0,,,,,
pylon_camera_1771858109236794185.png,1771858109236794185,1771858109.236794,42.30087013702511,-83.69767735667182,238.07618713378906,-0.01454174280917081,-0.9995417806109791,-0.008370546336893667,-0.025193262653478665,0.0061600000000000005,-0.028710000000000003,-0.006310000000000001,-0.5606,-1.0016,-10.139100000000001,5.436488414165071,12.161098393182414,15.139999389648438,15.289999961853027,15.229999542236328,15.229999542236328,12.293819095188905,12.415620942824306,12.36690004889168,12.36690004889168,12.360810033949143,0.016422171280078515,-0.699999988079071,2.924999952316284,0.0,0.0,0.0,0.0,0.0,,,,,
pylon_camera_1771858109277471445.png,1771858109277471445,1771858109.2774715,42.30087016219647,-83.69768000130925,238.07907104492188,-0.014539943514683129,-0.9995252768783385,-0.008354662011298065,-0.02584589999492431,0.0028300000000000005,-0.028910000000000005,-0.005790000000000001,-0.45230000000000004,-0.684,-9.203800000000001,5.436306794354568,12.160692120563509,15.139999389648438,15.00999927520752,15.34999942779541,15.210000038146973,12.293819095188905,12.188257803661823,12.464341062364598,12.350660267175694,12.324269557097754,0.01345132620022826,-0.699999988079071,5.575000286102295,0.0,0.0,0.0,0.0,0.0,,,,,
pylon_camera_1771858109328387731.png,1771858109328387731,1771858109.3283877,42.30087018316959,-83.6976839659745,238.0812530517578,-0.014711718641538918,-0.9995044551240961,-0.008889136316195576,-0.02637030104583414,-0.030940000000000006,-0.010570000000000001,0.007770000000000002,-0.7183,-0.25930000000000003,-7.6543,5.420188636250258,12.124636767973653,15.079999923706055,15.149999618530273,15.299999237060547,15.299999237060547,12.245098975648615,12.301939373243066,12.42374044648613,12.42374044648613,12.348629810465985,0.018474206426042625,-0.800000011920929,6.099999904632568,0.0,0.0,0.0,0.0,0.0,,,,,
pylon_camera_1771858109378374071.png,1771858109378374071,1771858109.378374,42.30087019499564,-83.69768660098664,238.07948303222656,-0.014762083107439539,-0.9995091713026971,-0.009640491133462737,-0.025895140757108814,-0.012140000000000001,0.030480000000000004,-0.005110000000000001,-1.252,0.8771,-7.1992,5.407056758036196,12.09526154432149,15.229999542236328,15.229999542236328,15.229999542236328,15.359999656677246,12.36690004889168,12.36690004889168,12.36690004889168,12.472461340418759,12.39329037177345,0.02464013087768896,-0.9000000357627869,6.175000190734863,0.0,0.0,0.0,0.0,0.0,,,,,
pylon_camera_1771858109429532379.png,1771858109429532379,1771858109.4295325,42.30087022849243,-83.69769054029517,238.068115234375,-0.014606874596215347,-0.9995598491200666,-0.008806117779027473,-0.024273432622151685,0.061540000000000004,0.06123000000000001,-0.006730000000000001,-0.7646000000000001,0.7975,-7.087000000000001,5.404829519056398,12.09027934435802,15.309999465942383,15.519999504089355,15.279999732971191,15.299999237060547,12.431860724540291,12.602382691715986,12.407500664770147,12.42374044648613,12.46637113187814,0.031106955994000575,-0.9000000357627869,6.125,0.0,0.0,0.0,0.0,0.0,,,,,
pylon_camera_1771858109479296598.png,1771858109479296598,1771858109.4792964,42.30087026273002,-83.69769316528975,238.05575561523438,-0.014393665764130315,-0.9996286186459253,-0.007356829084479732,-0.021939102892585646,0.053910000000000007,0.07712000000000001,-0.0043300000000000005,0.2581,0.4479,-9.376800000000001,5.414347377051944,12.111570221622575,15.34999942779541,15.429999351501465,15.269999504089355,15.219999313354492,12.464341062364598,12.529301738013212,12.399380386715984,12.358779770837517,12.437950739482828,0.02694782855468,-0.6000000238418579,6.175000190734863,0.0,0.0,0.0,0.0,0.0,,,,,
pylon_camera_1771858109530769148.png,1771858109530769148,1771858109.530769,42.300870322152996,-83.69769711594863,238.03689575195312,-0.014249483114088524,-0.9996704497009934,-0.0065497457952673034,-0.02032350992354568,0.027140000000000004,0.04136000000000001,-0.00256,0.3924,0.0453,-11.8986,5.443989444381698,12.177877747715195,15.329999923706055,15.359999656677246,15.210000038146973,15.079999923706055,12.448101280648613,12.472461340418759,12.350660267175694,12.245098975648615,12.37908046597292,0.016521985392362402,-0.20000000298023224,6.349999904632568,0.0,0.0,0.0,0.0,0.0,,,,,
pylon_camera_1771858109580332709.png,1771858109580332709,1771858109.5803328,42.300870383982215,-83.69770110263184,238.02548217773438,-0.01413127368915501,-0.9996746786263462,-0.005788514513642782,-0.020428830533323675,0.04446,-0.026110000000000005,-0.006850000000000001,0.3052,-0.338,-12.313600000000001,5.478627833550887,12.255361745983322,15.229999542236328,15.329999923706055,15.179999351501465,15.119999885559082,12.36690004889168,12.448101280648613,12.326299433013212,12.27757931347292,12.354720019006606,0.008107330904030558,0.10000000149011612,7.050000190734863,0.0,0.0,0.0,0.0,0.0,,,,,
pylon_camera_1771858109631708036.png,1771858109631708036,1771858109.6317081,42.300870428861636,-83.69770377639907,238.02273559570312,-0.01407428619399742,-0.9996520621133415,-0.00440769024022016,-0.021868732185926703,0.06906000000000001,-0.06645000000000001,-0.0015400000000000001,0.27940000000000004,0.1986,-12.1742,5.508995013670813,12.323291305880788,15.269999504089355,15.289999961853027,15.229999542236328,15.149999618530273,12.399380386715984,12.415620942824306,12.36690004889168,12.301939373243066,12.37096018791876,0.003868194044493888,0.10000000149011612,8.925000190734863,0.0,0.0,0.0,0.0,0.0,,,,,
pylon_camera_1771858109681269986.png,1771858109681269986,1771858109.6812701,42.30087049678873,-83.6977078171196,238.0242462158203,-0.014046903169243286,-0.9996020937207998,-0.0024362783776496755,-0.024339336227883042,0.0869,-0.12485000000000002,-0.0032700000000000003,0.5924,0.7574000000000001,-11.6241,5.543733094085281,12.40099830748313,15.469999313354492,15.039999961853027,15.269999504089355,15.229999542236328,12.561782075837517,12.212618637824306,12.399380386715984,12.36690004889168,12.385170287317372,0.001276350481896833,0.10000000149011612,8.925000190734863,0.0,0.0,0.0,0.0,0.0,,,,,
pylon_camera_1771858109741336022.png,1771858109741336022,1771858109.741336,42.30087055311952,-83.69771190171492,238.0288543701172,-0.01410658055968983,-0.9994782495639378,-0.0007646810610218019,-0.029045624393266144,0.022390000000000004,-0.18044000000000002,-0.0004900000000000001,0.9517,-0.34040000000000004,-9.299100000000001,5.61260844417801,12.555068333119557,15.109999656677246,15.109999656677246,15.309999465942383,15.25,12.269459035418759,12.269459035418759,12.431860724540291,12.383140605000001,12.338479850094453,0.017251079586222243,-0.30000001192092896,6.650000095367432,0.0,0.0,0.0,0.0,0.0,,,,,
pylon_camera_1771858109781863844.png,1771858109781863844,1771858109.781864,42.30087058347995,-83.69771463854023,238.0312042236328,-0.014185134301400061,-0.9993520598016563,-0.0009584575501677718,-0.03306544864601696,-0.022420000000000002,-0.19301000000000001,0.011000000000000001,-1.1484,-0.117,-8.489,5.62460009912907,12.581892945745784,15.109999656677246,15.109999656677246,15.25999927520752,15.279999732971191,12.269459035418759,12.269459035418759,12.391260108661823,12.407500664770147,12.334419711067373,0.019668998595484582,-0.9000000357627869,5.25,0.0,0.0,0.0,0.0,0.0,,,,,
pylon_camera_1771858109832259308.png,1771858109832259308,1771858109.8322594,42.30087059912949,-83.69771737785537,238.0308837890625,-0.014184868039936628,-0.9992118111432136,-0.001604500222259067,-0.03704013457893299,-0.041890000000000004,-0.14059000000000002,0.005750000000000001,-1.4091,-1.0659,-8.2376,5.61379811785671,12.557729561758391,15.329999923706055,15.389999389648438,15.359999656677246,15.229999542236328,12.448101280648613,12.496821400188903,12.472461340418759,12.36690004889168,12.446071017536989,0.008891618797193421,-2.200000047683716,5.075000286102295,0.0,0.0,0.0,0.0,0.0,,,,,
pylon_camera_1771858109882936999.png,1771858109882936999,1771858109.8829372,42.300870601466976,-83.69772145764752,238.02508544921875,-0.014219461012072278,-0.9991238784861822,-0.0030714979742641688,-0.039240900441361304,-0.07289000000000001,-0.08035000000000002,0.011160000000000002,-1.8787,-1.0435,-8.4354,5.580879813634699,12.484093290312003,15.299999237060547,15.269999504089355,15.429999351501465,15.579999923706055,12.42374044648613,12.399380386715984,12.529301738013212,12.651103585648613,12.500881539215985,0.001344771183103064,-3.799999952316284,1.274999976158142,0.0,0.0,0.0,0.0,0.0,,,,,
pylon_camera_1771858109942685037.png,1771858109942685037,1771858109.942685,42.30087058869074,-83.69772550036151,238.01449584960938,-0.014461970446089269,-0.9991294597892589,-0.005384205465889882,-0.0387580226990681,-0.07494000000000002,0.05061000000000001,0.014130000000000002,-1.262,0.459,-10.3147,5.537075848662668,12.38610644890747,15.649999618530273,15.649999618530273,15.519999504089355,15.639999389648438,12.707943983243066,12.707943983243066,12.602382691715986,12.699823705188903,12.679523590847756,0.023689215263136068,-4.400000095367432,0.0,0.0,0.0,0.0,0.0,0.0,,,,,
pylon_camera_1771858109994154539.png,1771858109994154539,1771858109.9941545,42.300870584746264,-83.6977281884985,238.0072479248047,-0.014678992552409233,-0.9991955697924622,-0.00640753629464501,-0.03676525483926284,-0.03803,0.09020000000000002,0.017580000000000002,-0.664,1.8275000000000001,-10.2256,5.526928817118036,12.363408148164021,15.75,15.670000076293945,15.679999351501465,15.619999885559082,12.789145215000001,12.724184539351388,12.732304043013212,12.68358392347292,12.732304430209382,0.02983775004630436,-4.099999904632568,0.0,0.0,0.0,0.0,0.0,0.0,,,,,
pylon_camera_1771858110037638893.png,1771858110037638893,1771858110.037639,42.30087059040996,-83.69773087500913,238.00137329101562,-0.01476634054670739,-0.9992687137218279,-0.006883347178886608,-0.034592087176078284,-0.018430000000000005,0.08584000000000001,0.00817,-0.4269,1.8725,-10.182400000000001,5.534011171052051,12.379250948973176,15.670000076293945,15.65999984741211,15.75,15.779999732971191,12.724184539351388,12.716064261297227,12.789145215000001,12.813505274770145,12.76072482260469,0.030815586112918705,-3.799999952316284,0.0,0.0,0.0,0.0,0.0,0.0,,,,,
pylon_camera_1771858110086985843.png,1771858110086985843,1771858110.0869858,42.30087061814554,-83.69773490556487,237.9937286376953,-0.014714909581069968,-0.9993328919265567,-0.007236990129888779,-0.03263232329433101,-0.017520000000000004,0.06641000000000001,0.00011000000000000002,-1.1296000000000002,0.4949,-10.0298,5.53316484520983,12.377357768843678,15.449999809265137,15.639999389648438,15.75999927520752,15.789999961853027,12.545542294121534,12.699823705188903,12.797264718661824,12.821625552824306,12.716064067699142,0.027364992204398884,-3.799999952316284,0.0,0.0,0.0,0.0,0.0,0.0,,,,,
pylon_camera_1771858110135450661.png,1771858110135450661,1771858110.1354506,42.30087064543838,-83.69773759294071,237.9886016845703,-0.014563202327048608,-0.9993995744935105,-0.007576003872637193,-0.030512420511877324,0.009710000000000002,0.035140000000000005,-0.0010700000000000002,0.0275,1.4382000000000001,-10.1759,5.562118975511698,12.442126421081138,15.519999504089355,15.40999984741211,15.75,15.839999198913574,12.602382691715986,12.513061956297227,12.789145215000001,12.862225394310435,12.691703814330912,0.02005906263955867,-3.9000000953674316,0.0,0.0,0.0,0.0,0.0,0.0,,,,,
pylon_camera_1771858110186055940.png,1771858110186055940,1771858110.186056,42.30087071138378,-83.69774163709037,237.98118591308594,-0.014458750056576763,-0.9994511139462219,-0.006390873189318833,-0.029113091871796982,0.08398000000000001,0.0036000000000000008,-0.0015900000000000003,0.7348,1.9931,-8.2417,5.5894780020598,12.50332692192765,15.519999504089355,15.449999809265137,15.789999961853027,15.90999984741211,12.602382691715986,12.545542294121534,12.821625552824306,12.919066566297225,12.722154276239763,0.017501530246989357,-3.799999952316284,0.0,0.0,0.0,0.0,0.0,0.0,,,,,
pylon_camera_1771858110236162471.png,1771858110236162471,1771858110.2361627,42.30087076987147,-83.69774433789645,237.9734649658203,-0.014305651055238178,-0.9995113516856298,-0.003487836407333791,-0.027572471718123114,0.11027000000000002,0.06691000000000001,-0.0024900000000000005,0.9366000000000001,-0.2442,-5.0849,5.592638485126003,12.510396732917762,15.59999942779541,15.619999885559082,15.90999984741211,15.9399995803833,12.667343367364598,12.68358392347292,12.919066566297225,12.943426626067373,12.803355120800529,0.02341719404564723,-3.700000047683716,0.0,0.0,0.0,0.0,0.0,0.0,,,,,
pylon_camera_1771858110286240544.png,1771858110286240544,1771858110.2862406,42.30087085775731,-83.69774839065721,237.94972229003906,-0.014567232967255428,-0.9995756825842352,-0.0009920333567428538,-0.025204491261616082,0.06832,0.10405,0.00803,-1.6311,-2.0057,-4.2597000000000005,5.574469589113069,12.469754002670589,15.819999694824219,15.90999984741211,15.949999809265137,15.899999618530273,12.845985612594452,12.919066566297225,12.951546904121534,12.910946288243066,12.90688634281407,0.03505541007864813,-3.799999952316284,0.0,0.0,0.0,0.0,0.0,0.0,,,,,
pylon_camera_1771858110336859856.png,1771858110336859856,1771858110.33686,42.300870900880035,-83.69775109478731,237.92613220214844,-0.014621809107354888,-0.9996350936055065,-0.0016138239837882942,-0.02265563733130094,0.02186,0.015000000000000001,0.020040000000000002,-0.3723,3.6471,-13.4741,5.612756382958519,12.55539926329523,15.869999885559082,16.0,15.739999771118164,15.569999694824219,12.88658622847292,12.99214752,12.781024936945839,12.642983307594454,12.825685498253304,0.0215274902287046,-4.300000190734863,0.6000000238418579,0.0,0.0,0.0,0.0,0.0,,,,,
pylon_camera_1771858110387650793.png,1771858110387650793,1771858110.3876507,42.30087093520768,-83.69775517094372,237.89300537109375,-0.014958542258184881,-0.9996783842864096,-0.0020243847806754537,-0.02037822048863333,-0.030830000000000007,0.020510000000000004,0.020830000000000005,1.8353000000000002,-0.8313,-9.960600000000001,5.636807233172912,12.609199572173814,15.90999984741211,15.829999923706055,15.619999885559082,15.449999809265137,12.919066566297225,12.854105890648613,12.68358392347292,12.545542294121534,12.750574668635071,0.011212059548430468,-4.700000286102295,2.924999952316284,0.0,0.0,0.0,0.0,0.0,,,,,
pylon_camera_1771858110438847038.png,1771858110438847038,1771858110.438847,42.30087094390152,-83.6977579046675,237.87818908691406,-0.015426837396404658,-0.9996549927556126,-0.003510375680446428,-0.020966292216395968,-0.07126000000000002,-0.08273,0.023940000000000003,0.9309000000000001,-0.4535,-15.234900000000001,5.657834480330704,12.656236262430967,15.84999942779541,15.609999656677246,15.389999389648438,15.339999198913574,12.870345672364598,12.675463645418759,12.496821400188903,12.456220784310437,12.624712875570674,0.002490739443120841,-4.800000190734863,7.200000286102295,0.0,0.0,0.0,0.0,0.0,,,,,
pylon_camera_1771858110488607149.png,1771858110488607149,1771858110.4886072,42.300870943893216,-83.69776204521554,237.87387084960938,-0.01596326668520992,-0.9995713480259917,-0.0052820941460829,-0.02396651421610042,-0.08778000000000001,-0.16457000000000002,0.029210000000000003,-0.9690000000000001,0.9779,-14.939900000000002,5.697174830782657,12.744238265970958,15.380000114440918,15.489999771118164,15.489999771118164,15.449999809265137,12.48870189652708,12.578022631945839,12.578022631945839,12.545542294121534,12.547572363635073,0.015431750272671307,-4.599999904632568,9.725000381469727,0.0,0.0,0.0,0.0,0.0,,,,,
pylon_camera_1771858110539563829.png,1771858110539563829,1771858110.539564,42.30087093999728,-83.69776482200844,237.87991333007812,-0.016390354496425563,-0.9994471142360234,-0.006880501598128554,-0.028097701374393283,-0.06959000000000001,-0.16367,0.020110000000000003,-0.7983,0.49250000000000005,-11.4992,5.705419661924092,12.762681458544478,15.479999542236328,15.519999504089355,15.649999618530273,15.639999389648438,12.56990235389168,12.602382691715986,12.707943983243066,12.699823705188903,12.64501318350991,0.00921971416561447,-4.5,10.925000190734863,0.0,0.0,0.0,0.0,0.0,,,,,
pylon_camera_1771858110598858742.png,1771858110598858742,1771858110.5988588,42.30087093980701,-83.69776896821183,237.89320373535156,-0.01663369939219378,-0.999306711845902,-0.008626521189829518,-0.032171397800262874,-0.04975,-0.10808000000000002,0.00192,-0.783,0.21780000000000002,-7.540100000000001,5.6657275576048605,12.673892602708618,15.50999927520752,15.479999542236328,15.679999351501465,15.679999351501465,12.594262413661824,12.56990235389168,12.732304043013212,12.732304043013212,12.657193213394983,0.0013176211789948222,-4.200000286102295,11.02500057220459,0.0,0.0,0.0,0.0,0.0,,,,,
pylon_camera_1771858110640857332.png,1771858110640857332,1771858110.6408575,42.300870949232134,-83.69777309423716,237.9053497314453,-0.016644488807591062,-0.999238094622001,-0.009931569401319196,-0.033875583799454455,-0.06442,-0.03517000000000001,0.005450000000000001,-1.4964000000000002,1.5305,-11.496500000000001,5.631546316910393,12.597431218149536,15.539999961853027,15.460000038146973,15.9399995803833,16.020000457763672,12.618623247824306,12.553662572175694,12.943426626067373,13.008388076108323,12.781025130543924,0.01457391663547072,-3.6000001430511475,10.949999809265137,0.0,0.0,0.0,0.0,0.0,,,,,
pylon_camera_1771858110690866616.png,1771858110690866616,1771858110.6908667,42.30087096203579,-83.69777583892102,237.90963745117188,-0.01673812938216651,-0.9992219363946513,-0.009872554585757786,-0.034320395080193696,-0.00131,0.024180000000000004,0.0159,-0.5802,0.018600000000000002,-4.4446,5.643276833922622,12.623671680874871,15.719999313354492,15.779999732971191,15.989999771118164,16.09000015258789,12.764784380837519,12.813505274770145,12.98402724194584,13.065228473702776,12.906886342814069,0.022435204994143972,-2.4000000953674316,10.925000190734863,0.0,0.0,0.0,0.0,0.0,,,,,
pylon_camera_1771858110741793789.png,1771858110741793789,1771858110.7417939,42.300870997934304,-83.6977799363742,237.90283203125,-0.01653217900737758,-0.9992659170683558,-0.009730284993545642,-0.033160753862816805,0.018660000000000003,0.07803,-0.013240000000000002,-0.1154,0.11720000000000001,-6.0816,5.631127092577634,12.596493438470613,15.789999961853027,15.889999389648438,15.979999542236328,16.0,12.821625552824306,12.902826010188903,12.975906963891678,12.99214752,12.923126511726224,0.025930476195704537,-1.2000000476837158,10.725000381469727,0.0,0.0,0.0,0.0,0.0,,,,,
pylon_camera_1771858110791483561.png,1771858110791483561,1771858110.7914836,42.30087102781035,-83.6977826674381,237.89207458496094,-0.016397761849948345,-0.9993476227330687,-0.008941997640954602,-0.03091088840951609,0.04390000000000001,0.10551000000000002,-0.010210000000000002,0.1869,0.0198,-7.7894000000000005,5.646147780836173,12.630093816863669,16.029998779296875,16.170000076293945,16.020000457763672,16.0,13.016506805377809,13.130189149351388,13.008388076108323,12.99214752,13.03680788770938,0.0322019833536523,-0.4000000059604645,10.175000190734863,0.0,0.0,0.0,0.0,0.0,,,,,
pylon_camera_1771858110851498656.png,1771858110851498656,1771858110.8514988,42.30087108319908,-83.69778678391182,237.87184143066406,-0.016120823030149944,-0.9994499028804462,-0.007991386650474,-0.027859440706871196,0.03547,0.10407000000000001,-0.018170000000000006,0.08650000000000001,-0.9455,-10.5144,5.687738214683314,12.723129121953693,16.09000015258789,16.170000076293945,16.1299991607666,16.1299991607666,13.065228473702776,13.130189149351388,13.097708037134742,13.097708037134742,13.097708424330913,0.02944081591775127,-0.4000000059604645,9.175000190734863,0.0,0.0,0.0,0.0,0.0,,,,,
pylon_camera_1771858110901279392.png,1771858110901279392,1771858110.9012794,42.30087113905609,-83.69779093615624,237.8522491455078,-0.0158959884342173,-0.9995021022566605,-0.007685817700137328,-0.026149442489194392,0.011600000000000003,0.042460000000000005,-0.00992,0.40390000000000004,-0.0849,-11.247200000000001,5.736312830510407,12.83178762308195,16.119998931884766,16.279998779296875,16.119998931884766,16.079999923706055,13.089587759080583,13.219509110377807,13.089587759080583,13.057108195648613,13.113948206046896,0.021989187419014917,-0.4000000059604645,9.574999809265137,0.0,0.0,0.0,0.0,0.0,,,,,
pylon_camera_1771858110952669951.png,1771858110952669951,1771858110.9526699,42.300871175136905,-83.69779373695506,237.8419189453125,-0.015663186075448365,-0.9995123500215926,-0.007613221447824354,-0.025918441609512052,-0.0011800000000000003,-0.05362000000000001,-0.009500000000000001,0.9336000000000001,0.0252,-11.451,5.805923957579336,12.98750353766752,15.769999504089355,15.899999618530273,16.010000228881836,16.049999237060547,12.805384996715986,12.910946288243066,13.00026779805416,13.03274736148613,12.937336611124836,0.0038627074400545717,-0.4000000059604645,9.40000057220459,0.0,0.0,0.0,0.0,0.0,,,,,
pylon_camera_1771858111004276488.png,1771858111004276488,1771858111.0042765,42.30087121475095,-83.6977979545402,237.83082580566406,-0.01554245345576094,-0.9994945164097189,-0.008020744306940773,-0.026548285598889953,-0.0177,-0.051120000000000006,-0.0006600000000000001,1.558,-0.0155,-10.879800000000001,5.822997554400221,13.02569614934003,16.170000076293945,16.279998779296875,16.170000076293945,16.19999885559082,13.130189149351388,13.219509110377807,13.130189149351388,13.154548434729195,13.158608960952444,0.01020389314233682,-0.5,9.875,0.0,0.0,0.0,0.0,0.0,,,,,
pylon_camera_1771858111054721205.png,1771858111054721205,1771858111.0547214,42.300871233814014,-83.69780076912537,237.82469177246094,-0.015506980716760488,-0.9994753513441565,-0.008629722177179304,-0.027093975338981748,-0.024700000000000003,-0.016010000000000003,0.004220000000000001,0.8275,0.29250000000000004,-10.3764,5.825306818912125,13.03086183549729,16.19999885559082,16.260000228881836,16.35999870300293,16.279998779296875,13.154548434729195,13.203270103054162,13.28446978602642,13.219509110377807,13.215449358546897,0.014165411726396498,-0.5,9.77500057220459,0.0,0.0,0.0,0.0,0.0,,,,,
pylon_camera_1771858111106585947.png,1771858111106585947,1771858111.1065857,42.30087124989625,-83.69780500049741,237.8173828125,-0.015523785936969348,-0.9994747751155701,-0.009466327291065712,-0.02682488817277995,-0.03418000000000001,0.009960000000000002,0.010280000000000003,-0.24430000000000002,1.3192000000000002,-9.073,5.816440987433651,13.011029502429833,16.389999389648438,16.459999084472656,16.43000030517578,16.389999389648438,13.308830620188905,13.365671017783358,13.341311732405547,13.308830620188905,13.33116099764168,0.024604624495860334,-0.6000000238418579,9.975000381469727,0.0,0.0,0.0,0.0,0.0,,,,,
pylon_camera_1771858111147122005.png,1771858111147122005,1771858111.147122,42.30087125156136,-83.69780782752485,237.81333923339844,-0.015499458767492036,-0.9994877293373732,-0.009892853628554348,-0.02619498289788322,-0.03388000000000001,0.027110000000000002,0.00425,0.4823,-0.5262,-10.0835,5.8387279423909,13.060884083451901,16.029998779296875,16.10999870300293,16.440000534057617,16.43000030517578,13.016506805377809,13.08146748102642,13.34943201045971,13.341311732405547,13.197179507317372,0.010435390360607907,-0.9000000357627869,8.975000381469727,0.0,0.0,0.0,0.0,0.0,,,,,
pylon_camera_1771858111194859123.png,1771858111194859123,1771858111.194859,42.3008712563623,-83.69781065941727,237.80979919433594,-0.015462178447539443,-0.9994936078836402,-0.01107239856033651,-0.025511778211675308,-0.06915,0.035280000000000006,0.0009700000000000002,0.4429,-1.4429,-9.0817,5.84822079767718,13.082119031155992,16.049999237060547,16.469999313354492,16.459999084472656,16.5,13.03274736148613,13.373791295837517,13.365671017783358,13.39815213,13.292590451276752,0.016088480743792884,-1.899999976158142,7.075000286102295,0.0,0.0,0.0,0.0,0.0,,,,,
pylon_camera_1771858111246088225.png,1771858111246088225,1771858111.2460883,42.30087126156118,-83.69781490839593,237.80349731445312,-0.015436711726391772,-0.9995045248487878,-0.012345080034556479,-0.02449513700340863,-0.008700000000000001,0.05435000000000001,-0.0024000000000000002,-1.3487,0.08950000000000001,-8.118,5.8251993962957975,13.030621537549923,16.69999885559082,16.369998931884766,16.59000015258789,16.60999870300293,13.560553044729195,13.292590064080583,13.471233083702774,13.487472091026422,13.452962070884745,0.03241138821488881,-2.9000000953674316,6.575000286102295,0.0,0.0,0.0,0.0,0.0,,,,,
pylon_camera_1771858111295546488.png,1771858111295546488,1771858111.2955463,42.300871272999665,-83.6978177343871,237.79835510253906,-0.01540241424037786,-0.9995625312355454,-0.012490437566697758,-0.021943125459913164,0.025700000000000004,0.10830000000000002,-0.009830000000000002,-0.33680000000000004,0.7672,-10.0436,5.826913197445407,13.03445520789353,16.649999618530273,16.520000457763672,16.60999870300293,16.579999923706055,13.519953203243064,13.414392686108322,13.487472091026422,13.463112805648613,13.471232696506606,0.03350945487530377,-3.200000047683716,6.175000190734863,0.0,0.0,0.0,0.0,0.0,,,,,
pylon_camera_1771858111346652060.png,1771858111346652060,1771858111.3466523,42.300871302268746,-83.69782197213108,237.78863525390625,-0.015522011237051603,-0.9996177899004822,-0.012182122273389134,-0.019363294620193455,0.01675,0.07359000000000002,0.00837,-0.6561,1.7668000000000001,-10.1297,5.845073840016173,13.07507947568578,16.579999923706055,16.559999465942383,16.649999618530273,16.579999923706055,13.463112805648613,13.446872249540291,13.519953203243064,13.463112805648613,13.473262766020145,0.030453603825110316,-2.799999952316284,0.0,0.0,0.0,0.0,0.0,0.0,,,,,
pylon_camera_1771858111405912279.png,1771858111405912279,1771858111.4059124,42.30087134064771,-83.69782623587655,237.7807159423828,-0.015632148952508473,-0.999665895009677,-0.01164469857302108,-0.01697454767502985,0.010590000000000002,0.07026000000000002,-0.00030000000000000003,0.06720000000000001,0.1231,-10.241200000000001,5.87950454682688,13.15209890097892,16.600000381469727,16.399999618530273,16.649999618530273,16.709999084472656,13.479353361756935,13.316950898243064,13.519953203243064,13.568673322783358,13.471232696506604,0.024264856729744502,-2.5,0.0,0.0,0.0,0.0,0.0,0.0,,,,,
pylon_camera_1771858111456441474.png,1771858111456441474,1771858111.4564416,42.30087136784778,-83.69782908714514,237.77532958984375,-0.01568063898670702,-0.9996949735710587,-0.011236264648677509,-0.01542153476387583,0.00538,0.05428000000000001,-0.0034000000000000002,1.4288,-0.7278,-6.618600000000001,5.915880845889848,13.233470499404838,16.649999618530273,16.729999542236328,16.53999900817871,16.559999465942383,13.519953203243064,13.58491387889168,13.43063169343197,13.446872249540291,13.495592756276752,0.01980752191072647,-2.5,0.0,0.0,0.0,0.0,0.0,0.0,,,,,
pylon_camera_1771858111506962509.png,1771858111506962509,1771858111.5069625,42.300871411423216,-83.6978333840374,237.76512145996094,-0.015656904777699765,-0.9997014232477183,-0.01141624588299017,-0.014886067956574328,0.0053100000000000005,0.01208,1e-05,0.2887,1.0935000000000001,-12.6478,5.922994243271464,13.24938274254367,16.719999313354492,16.5,16.520000457763672,16.489999771118164,13.576793600837517,13.39815213,13.414392686108322,13.39003185194584,13.44484256722292,0.014752372127618494,-2.299999952316284,0.0,0.0,0.0,0.0,0.0,0.0,,,,,
pylon_camera_1771858111557943822.png,1771858111557943822,1771858111.5579438,42.30087143361599,-83.69783626390723,237.76087951660156,-0.01567627164811014,-0.9996971649866896,-0.011404554651955962,-0.015158131744390499,-0.021200000000000004,-0.01711,0.0041,-0.7391000000000001,0.8916000000000001,-10.8294,5.940552353401622,13.288659181418225,16.53999900817871,16.5,16.559999465942383,16.529998779296875,13.43063169343197,13.39815213,13.446872249540291,13.422511415377807,13.424541872087516,0.010225462841224674,-2.0,0.0,0.0,0.0,0.0,0.0,0.0,,,,,
pylon_camera_1771858111607813958.png,1771858111607813958,1771858111.6078138,42.30087146231588,-83.6978405905966,237.75758361816406,-0.015813101887999226,-0.9996794648632978,-0.011410826941950341,-0.016146404175882294,-0.014500000000000002,-0.018130000000000004,0.006300000000000001,-0.5630000000000001,0.0161,-9.3492,5.946699229474276,13.302409374380188,16.469999313354492,16.479999542236328,16.510000228881836,16.5,13.373791295837517,13.381911573891678,13.406272408054162,13.39815213,13.390031851945839,0.006586962940293164,-1.600000023841858,0.0,0.0,0.0,0.0,0.0,0.0,,,,,
pylon_camera_1771858111659149753.png,1771858111659149753,1771858111.65915,42.30087147888366,-83.69784347939282,237.75611877441406,-0.01593552714255836,-0.9996616517407457,-0.01162997467437838,-0.016952424685753923,-0.03651,-0.03488,0.006670000000000001,-0.060700000000000004,-1.2433,-7.6631,5.949658996182912,13.309030194921403,16.510000228881836,16.53999900817871,16.440000534057617,16.43000030517578,13.406272408054162,13.43063169343197,13.34943201045971,13.341311732405547,13.381911961087848,0.005476113969164762,-1.5,0.0,0.0,0.0,0.0,0.0,0.0,,,,,
pylon_camera_1771858111708723445.png,1771858111708723445,1771858111.7087235,42.30087148511842,-83.69784779815325,237.75152587890625,-0.016119061772148835,-0.999641738910028,-0.012745677154533204,-0.017149851031222987,-0.06728,-0.00458,0.014190000000000001,-0.6871,-0.2926,-11.0533,5.928738373298609,13.26223201676659,16.579999923706055,16.579999923706055,16.350000381469727,16.56999969482422,13.463112805648613,13.463112805648613,13.276351056756935,13.454992527594452,13.414392298912155,0.011473203149605406,-1.5,0.9000000357627869,0.0,0.0,0.0,0.0,0.0,,,,,
pylon_camera_1771858111759880097.png,1771858111759880097,1771858111.7598803,42.30087149040372,-83.69785211788327,237.75132751464844,-0.016213868831549128,-0.9996225341182436,-0.013415146781941712,-0.01766164141163307,-0.02116,-0.0083,0.0069900000000000006,-1.8714000000000002,0.4188,-14.7339,5.908095331296113,13.216054770389528,16.5,16.440000534057617,16.43000030517578,16.829999923706055,13.39815213,13.34943201045971,13.341311732405547,13.666115110648613,13.438752745878466,0.016850563905643833,-1.5,2.825000047683716,0.0,0.0,0.0,0.0,0.0,,,,,
pylon_camera_1771858111809685659.png,1771858111809685659,1771858111.8096857,42.30087149963456,-83.69785499699358,237.75726318359375,-0.016091388485234226,-0.9996000756137522,-0.012974912922702508,-0.019297867349692865,0.04325000000000001,-0.040060000000000005,-0.029290000000000004,-1.2784,-1.3949,-10.9984,5.921071230628956,13.245081078643139,16.459999084472656,16.389999389648438,16.520000457763672,16.619998931884766,13.365671017783358,13.308830620188905,13.414392686108322,13.495592369080581,13.396121673290292,0.011403523598711402,-1.3000000715255737,3.575000047683716,0.0,0.0,0.0,0.0,0.0,,,,,
pylon_camera_1771858111860599652.png,1771858111860599652,1771858111.8605995,42.30087153129001,-83.69785932261613,237.76768493652344,-0.01595626402175404,-0.9995635125212687,-0.012547892422831716,-0.021464679600601513,0.029240000000000002,-0.09511,-0.02426,-0.8338,-0.7008,-9.1387,5.926480538225044,13.257181375177131,16.31999969482422,16.3799991607666,16.459999084472656,16.520000457763672,13.251990222594452,13.300710342134742,13.365671017783358,13.414392686108322,13.333191067155218,0.005733473038274005,-1.0,6.425000190734863,0.0,0.0,0.0,0.0,0.0,,,,,
pylon_camera_1771858111910918742.png,1771858111910918742,1771858111.9109187,42.30087156032694,-83.697862197209,237.77232360839844,-0.015845607149952257,-0.9995379843173887,-0.012182035160340055,-0.022898311294349074,0.007030000000000001,-0.06687000000000001,-0.004110000000000001,-0.5322,0.755,-7.8975,5.910015036412127,13.220349035551745,16.279998779296875,16.31999969482422,16.5,16.440000534057617,13.219509110377807,13.251990222594452,13.39815213,13.34943201045971,13.304770868357991,0.006385749164354248,-1.0,6.825000286102295,0.0,0.0,0.0,0.0,0.0,,,,,
pylon_camera_1771858111961842540.png,1771858111961842540,1771858111.9618425,42.30087160085921,-83.69786648940493,237.774169921875,-0.015796048193094603,-0.9995344971230447,-0.011699277235093102,-0.023332398818819072,0.0017400000000000002,0.0009000000000000002,0.0030900000000000003,-0.432,0.4253,-7.799,5.885522210752589,13.165560054120897,16.389999389648438,16.459999084472656,16.53999900817871,16.5,13.308830620188905,13.365671017783358,13.43063169343197,13.39815213,13.375821365351058,0.01597055578082664,-1.0,7.099999904632568,0.0,0.0,0.0,0.0,0.0,,,,,
pylon_camera_1771858112012076269.png,1771858112012076269,1771858112.0120764,42.300871626689215,-83.69786934577907,237.7723388671875,-0.015808987424811904,-0.9995425322147716,-0.011226340416742347,-0.0232114517239176,0.014370000000000003,0.020180000000000003,0.00217,-0.6004,0.6804,-7.9767,5.880050951574648,13.153321175615394,16.43000030517578,16.40999984741211,16.559999465942383,16.520000457763672,13.341311732405547,13.325071176297227,13.446872249540291,13.414392686108322,13.381911961087846,0.01737894045317092,-1.0,7.050000190734863,0.0,0.0,0.0,0.0,0.0,,,,,
pylon_camera_1771858112072764734.png,1771858112072764734,1771858112.0727646,42.300871666033125,-83.6978736291547,237.76377868652344,-0.015771509818979568,-0.9995650098241193,-0.010638307744134087,-0.02253612703369769,0.023250000000000003,0.024540000000000003,0.00044000000000000007,-0.504,1.1278000000000001,-8.521600000000001,5.88764909982941,13.170317777372402,16.579999923706055,16.520000457763672,16.510000228881836,16.399999618530273,13.463112805648613,13.414392686108322,13.406272408054162,13.316950898243064,13.40018219951354,0.017453217608466774,-1.100000023841858,6.375,0.0,0.0,0.0,0.0,0.0,,,,,
pylon_camera_1771858112114890799.png,1771858112114890799,1771858112.1148908,42.300871692646375,-83.69787648506143,237.75570678710938,-0.015698540038256936,-0.9995796187205167,-0.01052205076048832,-0.021986999045052538,-0.005360000000000001,0.018420000000000002,0.0030800000000000003,-0.43820000000000003,0.911,-9.613100000000001,5.8911966308294765,13.17825339136769,16.6299991607666,16.559999465942383,16.469999313354492,16.43000030517578,13.503712647134742,13.446872249540291,13.373791295837517,13.341311732405547,13.416421981229522,0.018072849473196703,-1.3000000715255737,6.099999904632568,0.0,0.0,0.0,0.0,0.0,,,,,
pylon_camera_1771858112166685670.png,1771858112166685670,1771858112.1666856,42.30087172970844,-83.69788077579958,237.7447052001953,-0.015571006319707759,-0.999593071246822,-0.010633254826473017,-0.02140489591968944,-0.004480000000000001,0.010830000000000001,-0.0024300000000000007,-0.2403,0.5061,-10.914200000000001,5.902378180676486,13.20326584748246,16.56999969482422,16.399999618530273,16.43000030517578,16.59000015258789,13.454992527594452,13.316950898243064,13.341311732405547,13.471233083702774,13.396122060486459,0.01460670528275186,-1.399999976158142,5.700000286102295,0.0,0.0,0.0,0.0,0.0,,,,,
pylon_camera_1771858112216757449.png,1771858112216757449,1771858112.2167575,42.30087175197729,-83.69788364201494,237.73931884765625,-0.015508929614486078,-0.9995987212227875,-0.010612486288666581,-0.02119539494214957,-0.005360000000000001,0.010690000000000002,-0.0007000000000000001,-0.3351,0.1482,-10.9898,5.9119244086187654,13.224620186615661,16.510000228881836,16.56999969482422,16.459999084472656,16.520000457763672,13.406272408054162,13.454992527594452,13.365671017783358,13.414392686108322,13.410332159885073,0.014042896555726124,-1.5,5.675000190734863,0.0,0.0,0.0,0.0,0.0,,,,,
pylon_camera_1771858112266507760.png,1771858112266507760,1771858112.2665079,42.30087178409452,-83.69788794667112,237.734130859375,-0.015482530969756325,-0.9996000883279925,-0.01060874606749752,-0.021152048513445945,1e-05,-0.0012200000000000002,-0.00143,-0.4147,0.49350000000000005,-10.756300000000001,5.915207467434425,13.231964192202764,16.60999870300293,16.559999465942383,16.53999900817871,16.53999900817871,13.487472091026422,13.446872249540291,13.43063169343197,13.43063169343197,13.448901931857664,0.016394976324281177,-1.5,5.650000095367432,0.0,0.0,0.0,0.0,0.0,,,,,
pylon_camera_1771858112305853779.png,1771858112305853779,1771858112.3058536,42.30087181011129,-83.69789081762609,237.7318572998047,-0.01546946803839766,-0.9996004663205147,-0.010488759072573808,-0.021203519130929514,0.006360000000000001,-0.00493,0.0009000000000000002,-0.2617,0.5413,-10.7878,5.922661524236869,13.248638470026423,16.639999389648438,16.53999900817871,16.59000015258789,16.579999923706055,13.511832925188905,13.43063169343197,13.471233083702774,13.463112805648613,13.469202626993065,0.016648062173757996,-1.5,5.425000190734863,0.0,0.0,0.0,0.0,0.0,,,,,
pylon_camera_1771858112356600099.png,1771858112356600099,1771858112.3566,42.30087183566559,-83.69789369482346,237.730224609375,-0.015451888192635155,-0.9995907798290935,-0.010410561533818946,-0.021705580860635277,0.015690000000000003,-0.026210000000000004,-0.0007400000000000001,-0.6531,1.7447000000000001,-10.052200000000001,5.939521562356886,13.286353363698614,16.639999389648438,16.35999870300293,16.649999618530273,16.639999389648438,13.511832925188905,13.28446978602642,13.519953203243064,13.511832925188905,13.457022209911823,0.012845424289219613,-1.5,4.025000095367432,0.0,0.0,0.0,0.0,0.0,,,,,
pylon_camera_1771858112406365467.png,1771858112406365467,1771858112.4063654,42.300871880763125,-83.6978980217068,237.729248046875,-0.015424250893421532,-0.9995751827191638,-0.010081735518234748,-0.02258108025023072,0.0043100000000000005,-0.042690000000000006,-0.0013700000000000001,-0.5652,1.7579,-8.989600000000001,5.950678343530155,13.311310413776347,16.649999618530273,16.389999389648438,16.59000015258789,16.579999923706055,13.519953203243064,13.308830620188905,13.471233083702774,13.463112805648613,13.44078242819584,0.009726466470611171,-1.7000000476837158,0.0,0.0,0.0,0.0,0.0,0.0,,,,,
pylon_camera_1771858112457360021.png,1771858112457360021,1771858112.45736,42.30087190414279,-83.6979009082668,237.7278289794922,-0.015367111986753446,-0.9995636938474501,-0.010062181814283228,-0.02313063571032296,-0.04775000000000001,-0.03466,0.005490000000000001,-0.39880000000000004,0.7559,-8.849300000000001,5.953214818762643,13.316984356682907,16.420000076293945,16.549999237060547,16.619998931884766,16.6299991607666,13.333191454351388,13.43875197148613,13.495592369080581,13.503712647134742,13.442812110513211,0.00944866724027948,-2.1000001430511475,0.0,0.0,0.0,0.0,0.0,0.0,,,,,
pylon_camera_1771858112507292522.png,1771858112507292522,1771858112.5072925,42.30087194652895,-83.69790523408162,237.7229461669922,-0.015258815606905785,-0.9995579350611907,-0.010298547658603295,-0.02334615425732009,-0.028410000000000005,-0.02059,0.0023300000000000005,-0.1043,-0.3034,-8.9916,5.953663960615917,13.317989060060171,16.619998931884766,16.559999465942383,16.600000381469727,16.690000534057617,13.495592369080581,13.446872249540291,13.479353361756935,13.55243431545971,13.493563073959379,0.013183222565165171,-2.700000047683716,0.0,0.0,0.0,0.0,0.0,0.0,,,,,
pylon_camera_1771858112558404361.png,1771858112558404361,1771858112.5584044,42.30087198002683,-83.69790811854052,237.71827697753906,-0.01525867023081906,-0.9995553919147084,-0.010211765430351682,-0.023492793018627868,-0.007170000000000001,-0.013670000000000002,0.0064800000000000005,-0.3115,-0.6515000000000001,-9.4053,5.9593097985140755,13.330618460688077,16.549999237060547,16.809999465942383,16.60999870300293,16.619998931884766,13.43875197148613,13.649874554540292,13.487472091026422,13.495592369080581,13.517922746533358,0.014050682374387974,-2.9000000953674316,0.0,0.0,0.0,0.0,0.0,0.0,,,,,
pylon_camera_1771858112608138406.png,1771858112608138406,1771858112.6081386,42.30087202400099,-83.69791245166444,237.70901489257812,-0.01531862003591633,-0.9995499429750627,-0.010095563195923602,-0.023734594635282956,0.0006600000000000001,-0.012220000000000002,0.003920000000000001,-0.2783,-0.8400000000000001,-9.674800000000001,5.958181241770398,13.328093946965875,16.65999984741211,16.65999984741211,16.639999389648438,16.559999465942383,13.528073481297227,13.528073481297227,13.511832925188905,13.446872249540291,13.503713034330913,0.013176609353433965,-2.6000001430511475,0.0,0.0,0.0,0.0,0.0,0.0,,,,,
pylon_camera_1771858112659655918.png,1771858112659655918,1771858112.659656,42.30087205465705,-83.69791533886999,237.7021484375,-0.015391020727542892,-0.9995438315979857,-0.010184003890415707,-0.02390671997874262,-0.00286,-0.014400000000000003,0.0013300000000000002,-0.4218,-0.3932,-10.1957,5.959059590644241,13.33005876069573,16.559999465942383,16.68000030517578,16.6299991607666,16.579999923706055,13.446872249540291,13.544314037405549,13.503712647134742,13.463112805648613,13.489502934932299,0.01196125066655348,-2.299999952316284,0.0,0.0,0.0,0.0,0.0,0.0,,,,,
pylon_camera_1771858112709240522.png,1771858112709240522,1771858112.7092407,42.300872095076976,-83.69791966644252,237.69320678710938,-0.015487798617150106,-0.999538502372769,-0.010572538047681587,-0.02389836412031875,-0.009450000000000002,0.024170000000000004,0.00305,-0.36810000000000004,0.6178,-10.5137,5.939140109963508,13.28550007758177,16.65999984741211,16.690000534057617,16.6299991607666,16.59000015258789,13.528073481297227,13.55243431545971,13.503712647134742,13.471233083702774,13.513863381898613,0.017188912948951664,-1.7000000476837158,0.0,0.0,0.0,0.0,0.0,0.0,,,,,
pylon_camera_1771858112761200646.png,1771858112761200646,1771858112.7612007,42.30087214116456,-83.69792398512017,237.68606567382812,-0.015466541086231744,-0.9995475943430172,-0.010495549786515158,-0.023563450184426325,0.019360000000000002,0.024640000000000002,-0.006410000000000002,-0.0641,1.1209,-10.75,5.9277513646076905,13.260024137545528,16.6299991607666,16.78999900817871,16.619998931884766,16.68000030517578,13.503712647134742,13.63363399843197,13.495592369080581,13.544314037405549,13.54431326301321,0.021439563195267654,-1.2000000476837158,0.0,0.0,0.0,0.0,0.0,0.0,,,,,
pylon_camera_1771858112810999513.png,1771858112810999513,1771858112.8109996,42.30087218088539,-83.69792685524848,237.6840057373047,-0.015348846441789132,-0.9995729413057306,-0.009036762976423824,-0.02316645931567823,0.06444000000000001,0.025220000000000003,-0.00302,-0.7163,0.8842000000000001,-10.204500000000001,5.912780572072144,13.226535372891062,16.6299991607666,16.670000076293945,16.709999084472656,16.69999885559082,13.503712647134742,13.536193759351388,13.568673322783358,13.560553044729195,13.542283193499673,0.023872300017112803,-0.800000011920929,0.0,0.0,0.0,0.0,0.0,0.0,,,,,
pylon_camera_1771858112861826065.png,1771858112861826065,1771858112.861826,42.30087225285912,-83.697931154616,237.68116760253906,-0.015212496446683654,-0.9996070371392374,-0.007353706650668981,-0.022366811397048866,0.05720000000000001,0.035140000000000005,-0.006670000000000001,-0.8255,0.3775,-9.7406,5.904252578241857,13.20745876237234,16.639999389648438,16.53999900817871,16.739999771118164,16.639999389648438,13.511832925188905,13.43063169343197,13.593034156945839,13.511832925188905,13.511832925188905,0.023045626588191048,-0.6000000238418579,0.0,0.0,0.0,0.0,0.0,0.0,,,,,
pylon_camera_1771858112911545153.png,1771858112911545153,1771858112.911545,42.30087229810367,-83.69793402123877,237.67938232421875,-0.01505806639740176,-0.9996341652116554,-0.006632609013709207,-0.021466226394956784,0.03277000000000001,0.013870000000000002,-0.008430000000000002,-0.1589,0.9889,-9.9379,5.911704501927199,13.22412826854103,16.579999923706055,16.579999923706055,16.739999771118164,16.43000030517578,13.463112805648613,13.463112805648613,13.593034156945839,13.341311732405547,13.465142875162154,0.018225368185098147,-0.800000011920929,0.0,0.0,0.0,0.0,0.0,0.0,,,,,
pylon_camera_1771858112962666919.png,1771858112962666919,1771858112.962667,42.300872356123634,-83.69793832498371,237.67706298828125,-0.014975809293026165,-0.9996404811822951,-0.006746530377635196,-0.0211924006547594,0.006090000000000001,-0.017280000000000004,0.0038000000000000004,0.3568,1.6443,-8.8607,5.927933559460643,13.260431696499891,16.469999313354492,16.520000457763672,16.690000534057617,16.600000381469727,13.373791295837517,13.414392686108322,13.55243431545971,13.479353361756935,13.45499291479062,0.014672314050083632,-1.0,0.0,0.0,0.0,0.0,0.0,0.0,,,,,
