image_filename,timestamp_ns,timestamp_sec,latitude,longitude,altitude,orientation_x,orientation_y,orientation_z,orientation_w,angular_velocity_x,angular_velocity_y,angular_velocity_z,linear_acceleration_x,linear_acceleration_y,linear_acceleration_z,vehicle_speed_mps,vehicle_speed_mph,wheel_speed_fl_rads,wheel_speed_fr_rads,wheel_speed_rl_rads,wheel_speed_rr_rads,wheel_speed_fl_mph,wheel_speed_fr_mph,wheel_speed_rl_mph,wheel_speed_rr_mph,avg_wheel_speed_mph,wheel_slip,steering_angle_deg,throttle_pedal,brake_pedal,brake_torque_actual,abs_active,esc_active,trac_active,marwis_road_condition,marwis_friction,marwis_surface_temp_c,marwis_ice_percent,marwis_water_film_height
pylon_camera_1771861182422616215.png,1771861182422616215,1771861182.4226162,42.30022592290268,-83.69862583541595,236.55007934570312,-0.6972162308719831,-0.7167679953402916,0.011537888043285156,0.0002130822048286663,0.0038700000000000006,0.004020000000000001,0.0004000000000000001,2.2117,-0.0287,-9.6502,1.3224014226996228,2.9581326384936943,3.6599998474121094,3.7200000286102295,3.7300000190734863,3.609999895095825,2.971953621297226,3.0206743216317706,3.028794406087847,2.931353199016843,2.9881938870084217,0.010162238205124836,-5.099999904632568,44.17499923706055,0.0,0.0,0.0,0.0,0.0,,,,,
pylon_camera_1771861182461856102.png,1771861182461856102,1771861182.461856,42.30022592290268,-83.69862583541595,236.55007934570312,-0.6972162308719831,-0.7167679953402916,0.011537888043285156,0.0002130822048286663,0.0038700000000000006,0.004020000000000001,0.0004000000000000001,2.2117,-0.0287,-9.6502,1.3224014226996228,2.9581326384936943,3.9499998092651367,3.9800000190734863,4.009999752044678,4.029999732971191,3.2074362641215326,3.231796711087847,3.2561567708579924,3.272396939770146,3.241946671459379,0.09594364676974232,-5.099999904632568,44.5,0.0,0.0,0.0,0.0,0.0,,,,,
pylon_camera_1771861182508831575.png,1771861182508831575,1771861182.5088315,42.30022592290268,-83.69862583541595,236.55007934570312,-0.6972162308719831,-0.7167679953402916,0.011537888043285156,0.0002130822048286663,0.0038700000000000006,0.004020000000000001,0.0004000000000000001,2.2117,-0.0287,-9.6502,1.3224014226996228,2.9581326384936943,4.389999866485596,4.25,4.289999961853027,4.309999942779541,3.564720367385073,3.451039185,3.4835195228243068,3.4997596917364597,3.4997596917364597,0.1830976225320871,-5.099999904632568,45.275001525878906,0.0,0.0,0.0,0.0,0.0,,,,,
pylon_camera_1771861182564943967.png,1771861182564943967,1771861182.5649438,42.300226163673194,-83.69862584900784,236.5500946044922,-0.6973690235183276,-0.7166207630924245,0.011422851563374942,0.0008033704540599214,0.007340000000000001,0.013080000000000001,0.006830000000000001,2.7310000000000003,-0.24200000000000002,-9.7985,1.6379014063831725,3.6638871719947743,4.900000095367432,4.799999713897705,4.819999694824219,4.829999923706055,3.978845255439234,3.8976440236822985,3.9138841925944523,3.922004470648613,3.9280944855911493,0.0721112035370154,-5.300000190734863,45.625,0.0,0.0,0.0,0.0,0.0,,,,,
pylon_camera_1771861182620201626.png,1771861182620201626,1771861182.6202018,42.300226163673194,-83.69862584900784,236.5500946044922,-0.6975629585416662,-0.7164335145711065,0.011295211001562062,0.0011645936285728166,0.0021600000000000005,0.007230000000000001,0.008310000000000001,2.9492000000000003,-0.24000000000000002,-9.9635,1.8512414084173379,4.14111595614508,5.25,5.299999713897705,5.299999713897705,5.309999942779541,4.263048405,4.3036486336822986,4.3036486336822986,4.3117689117364595,4.295528646025264,0.037287700106790986,-5.5,46.04999923706055,0.0,0.0,0.0,0.0,0.0,,,,,
pylon_camera_1771861182670016651.png,1771861182670016651,1771861182.6700168,42.30022917294433,-83.6986260243925,236.55186462402344,-0.6976542041591219,-0.7163454511144369,0.011220170036462517,0.0013834273052619449,0.006090000000000001,0.010050000000000002,0.004390000000000001,2.9372000000000003,-0.19190000000000002,-9.7986,1.9767201949004911,4.421804472780705,5.839999675750732,5.849999904632568,5.859999656677246,5.759999752044678,4.7421335815066055,4.750253859560766,4.758373750418759,4.677172905857993,4.731983524336031,0.07014761811941136,-5.599999904632568,46.125,0.0,0.0,0.0,0.0,0.0,,,,,
pylon_camera_1771861182712713787.png,1771861182712713787,1771861182.7127137,42.30022990824014,-83.69862606218993,236.55221557617188,-0.6977050848325688,-0.7162959877238569,0.011195130610846985,0.0015302353048203354,0.00897,0.00872,0.004700000000000001,2.9777,0.08940000000000001,-9.7909,2.0716229305956704,4.634096198366679,6.259999752044678,6.210000038146973,6.289999961853027,6.199999809265137,5.083177515857992,5.0425772871756935,5.107537962824306,5.034457009121533,5.066937443744881,0.0934035951888008,-5.599999904632568,46.04999923706055,0.0,0.0,0.0,0.0,0.0,,,,,
pylon_camera_1771861182772365390.png,1771861182772365390,1771861182.7723653,42.30023069297445,-83.69862610335649,236.55282592773438,-0.6977565218960553,-0.7162442076769245,0.01125202910555399,0.0018609034853561597,0.01157,0.007260000000000001,0.0015400000000000001,3.1997,-0.3351,-9.8656,2.2345992769596266,4.998664506602068,6.730000019073486,6.759999752044678,6.809999942779541,6.690000057220459,5.464822066087847,5.489182125857993,5.529782741736461,5.43234172826354,5.47903216548646,0.09609919974624005,-5.599999904632568,45.85000228881836,0.0,0.0,0.0,0.0,0.0,,,,,
pylon_camera_1771861182811536180.png,1771861182811536180,1771861182.811536,42.30023151417847,-83.69862614660539,236.55343627929688,-0.6978370467480327,-0.7161648292515532,0.01126572760162854,0.00211587114055915,0.010790000000000003,0.011420000000000001,0.007150000000000001,3.1038,-0.1017,-9.8567,2.3658029885069856,5.292159337110816,7.109999656677246,7.149999618530273,7.179999828338623,7.109999656677246,5.773385275418759,5.805865613243065,5.83022606020938,5.773385275418759,5.795715556072491,0.09515137146958694,-5.599999904632568,46.17499923706055,0.0,0.0,0.0,0.0,0.0,,,,,
pylon_camera_1771861182862608689.png,1771861182862608689,1771861182.8626087,42.30023239130266,-83.69862618825174,236.55401611328125,-0.6979760201561259,-0.7160288749123089,0.011258672823400217,0.002316865357413696,0.0059900000000000005,0.0076700000000000015,0.00903,3.1830000000000003,-0.13720000000000002,-9.921800000000001,2.49952645343947,5.591290704756888,7.699999809265137,7.639999866485596,7.699999809265137,7.669999599456787,6.252470839121533,6.203750332385074,6.252470839121533,6.2281103921552186,6.234200600695839,0.11498416553301086,-5.599999904632568,45.95000076293945,0.0,0.0,0.0,0.0,0.0,,,,,
pylon_camera_1771861182912888694.png,1771861182912888694,1771861182.9128885,42.300233319976506,-83.69862623522306,236.55490112304688,-0.6981259554314991,-0.7158821834187198,0.011244600928513804,0.002531554159239557,0.006260000000000001,0.011050000000000003,0.008430000000000002,3.2281,-0.09340000000000001,-9.9244,2.6335262220077915,5.89104014705811,8.139999389648438,8.109999656677246,8.15999984741211,8.119999885559082,6.609754555188903,6.585394495418758,6.625995111297226,6.59351477347292,6.603664733844452,0.12096753187842647,-5.599999904632568,45.875,0.0,0.0,0.0,0.0,0.0,,,,,
pylon_camera_1771861182973030100.png,1771861182973030100,1771861182.97303,42.30023479887488,-83.69862630416543,236.55642700195312,-0.6983632182066031,-0.7156465713581789,0.011398063432836348,0.0029806894135337996,0.017750000000000002,0.00449,0.009120000000000001,3.4736000000000002,-0.25520000000000004,-9.9235,2.843127550946343,6.359905743813913,8.800000190734863,8.760000228881836,8.760000228881836,8.760000228881836,7.145681290878468,7.113200953054162,7.113200953054162,7.113200953054162,7.121321037510238,0.11972116008746357,-5.599999904632568,45.70000076293945,0.0,0.0,0.0,0.0,0.0,,,,,
pylon_camera_1771861183016085106.png,1771861183016085106,1771861183.016085,42.300235841326284,-83.69862635221921,236.5576934814453,-0.6985087688980574,-0.7154990395092912,0.011646788369575441,0.003313088359242451,0.019910000000000004,0.003910000000000001,0.00786,3.5906000000000002,-0.4811,-9.977400000000001,2.9854503358160382,6.678273274200329,9.1899995803833,9.09999942779541,9.279999732971191,9.170000076293945,7.462364391067371,7.389283437364598,7.535445344770146,7.446124609351387,7.458304445638375,0.11680132564378308,-5.599999904632568,45.54999923706055,0.0,0.0,0.0,0.0,0.0,,,,,
pylon_camera_1771861183067345800.png,1771861183067345800,1771861183.0673459,42.30023751064153,-83.69862642560243,236.5597686767578,-0.698723918898513,-0.7152826818567793,0.011929935596737235,0.0036396196964952232,0.01335,0.0032400000000000003,0.009290000000000001,3.5577,-0.5147,-9.8367,3.1619124496631503,7.073008435149488,9.649999618530273,9.670000076293945,9.719999313354492,9.65999984741211,7.8358886632430655,7.852129219351387,7.892729060837517,7.844008941297226,7.8561889711822985,0.11072806475682626,-5.599999904632568,45.92499923706055,0.0,0.0,0.0,0.0,0.0,,,,,
pylon_camera_1771861183126101623.png,1771861183126101623,1771861183.1261015,42.30023868968682,-83.69862647622917,236.56094360351562,-0.6989584021907048,-0.7150526377736213,0.011917015938081536,0.0038551201193716667,0.00024,0.00807,0.01058,3.4494000000000002,-0.4595,-9.6104,3.3786352463158384,7.557804327893752,10.34999942779541,10.329999923706055,10.429999351501465,10.369999885559082,8.404294962364597,8.388055180648614,8.46925563801321,8.42053551847292,8.420535324874834,0.11415100994305737,-5.599999904632568,45.70000076293945,0.0,0.0,0.0,0.0,0.0,,,,,
pylon_camera_1771861183168331538.png,1771861183168331538,1771861183.1683316,42.30024055289914,-83.69862657080978,236.56301879882812,-0.6990790601680303,-0.714937263681228,0.011730354954910798,0.00394656904330939,-0.00096,0.010650000000000001,0.009150000000000002,3.7142000000000004,-0.2758,-9.8224,3.5260567358948296,7.8875773547925805,10.710000038146973,10.649999618530273,10.829999923706055,10.75,8.696618777175694,8.647897883243065,8.794059790648614,8.729099115,8.716918891516844,0.1051452809170038,-5.599999904632568,45.67499923706055,0.0,0.0,0.0,0.0,0.0,,,,,
pylon_camera_1771861183227862248.png,1771861183227862248,1771861183.2278624,42.300242534968184,-83.69862667735374,236.5646514892578,-0.6992783212270327,-0.7147462261902846,0.011418989976506321,0.004155511588880434,-0.00169,0.009450000000000002,0.009390000000000003,3.6315000000000004,-0.1399,-9.7283,3.7477014193873375,8.383383213084311,11.34000015258789,11.239999771118164,11.469999313354492,11.359999656677246,9.208184678702773,9.12698344694584,9.313745195837516,9.224424460418758,9.218334445476222,0.09959597589297428,-5.5,45.82500076293945,0.0,0.0,0.0,0.0,0.0,,,,,
pylon_camera_1771861183266843126.png,1771861183266843126,1771861183.266843,42.300243928064425,-83.69862675639729,236.5656280517578,-0.6994238303534392,-0.7146070081690273,0.011201892592539994,0.004200834652798232,-0.01131,0.005320000000000001,0.010900000000000002,3.4644000000000004,-0.3582,-10.153400000000001,3.8954278530822894,8.713838381673897,11.710000038146973,11.65999984741211,11.960000038146973,11.75999927520752,9.508627997175694,9.468027381297226,9.711630302175694,9.549227838661823,9.559378379827608,0.09703416119490686,-5.400000095367432,45.5,0.0,0.0,0.0,0.0,0.0,,,,,
pylon_camera_1771861183328779681.png,1771861183328779681,1771861183.3287797,42.30024610905722,-83.69862687854439,236.5678253173828,-0.6996608997554138,-0.7143834040132373,0.010752775222995182,0.003918577408749439,-0.015640000000000005,0.0006300000000000001,0.008230000000000001,3.4049,-0.019100000000000002,-10.2491,4.148310074512524,9.279520738080045,12.329999923706055,12.269999504089355,12.389999389648438,12.359999656677246,10.012073620648613,9.963352726715986,10.060793740188904,10.03643368041876,10.018163441993066,0.07959922982680329,-5.200000286102295,45.400001525878906,0.0,0.0,0.0,0.0,0.0,,,,,
pylon_camera_1771861183376574623.png,1771861183376574623,1771861183.3765748,42.30024840775288,-83.69862699324905,236.57125854492188,-0.6998882368637231,-0.714164087790547,0.01060635542659817,0.003690099544644724,-0.010840000000000002,-0.0030100000000000005,0.010770000000000002,3.4770000000000003,-0.2315,-10.3076,4.327975355353736,9.681421191404986,12.819999694824219,12.779999732971191,13.00999927520752,12.929999351501465,10.409957952594452,10.377477614770147,10.564239363661825,10.499278688013211,10.462738404759909,0.0807027395986618,-5.0,45.47500228881836,0.0,0.0,0.0,0.0,0.0,,,,,
pylon_camera_1771861183426757056.png,1771861183426757056,1771861183.426757,42.30024999922724,-83.69862706690544,236.57411193847656,-0.7001095313103587,-0.713946170160282,0.010734860290088244,0.003503292224159519,0.0025400000000000006,-0.007880000000000002,0.008990000000000001,3.2182,-0.0795,-10.0496,4.504601038345484,10.076522246716548,13.239999771118164,13.179999351501465,13.949999809265137,13.399999618530273,10.751001886945838,10.702280993013211,11.327528464121533,10.880923238243065,10.915433645580912,0.08325406110602535,-4.900000095367432,45.67499923706055,0.0,0.0,0.0,0.0,0.0,,,,,
pylon_camera_1771861183479503219.png,1771861183479503219,1771861183.4795032,42.300251648502616,-83.69862712964215,236.57745361328125,-0.7003700717458657,-0.7136879668270821,0.010927396189860982,0.0034410204048030218,0.0036400000000000004,-0.012110000000000003,0.010840000000000002,3.1269,0.08370000000000001,-9.7265,4.64015931385364,10.379757975531762,13.729999542236328,13.639999389648438,13.949999809265137,13.899999618530273,11.148886218891679,11.075805265188903,11.327528464121533,11.286927848243065,11.209786949111296,0.0799661201673646,-4.900000095367432,45.275001525878906,0.0,0.0,0.0,0.0,0.0,,,,,
pylon_camera_1771861183527508465.png,1771861183527508465,1771861183.5275085,42.30025420969042,-83.69862722732208,236.5823516845703,-0.7006098224045564,-0.7134477932151262,0.01119059300846592,0.0035907847111395948,0.01806,0.00013000000000000002,0.011030000000000002,3.1491000000000002,0.5517000000000001,-10.0182,4.806803804881542,10.752531703291718,14.219999313354492,14.170000076293945,14.84999942779541,14.279999732971191,11.546770550837518,11.506170709351387,12.058336452364598,11.595491444770145,11.676692289330912,0.0859481851847298,-4.900000095367432,45.32500076293945,0.0,0.0,0.0,0.0,0.0,,,,,
pylon_camera_1771861183577767006.png,1771861183577767006,1771861183.577767,42.3002559834809,-83.69862729012202,236.58583068847656,-0.7008332991425927,-0.713218075740831,0.011725922207822422,0.003894354610398773,0.022760000000000002,-0.009700000000000002,0.00267,3.4465000000000003,-0.009600000000000001,-9.9975,5.015248183711956,11.218809272072622,14.59999942779541,14.539999961853027,15.029999732971191,19.779998779296875,11.855334147364598,11.806614027824308,12.204498359770147,16.061541380377808,12.981996978834214,0.1571635334910949,-4.900000095367432,45.54999923706055,0.0,0.0,0.0,0.0,0.0,,,,,
pylon_camera_1771861183631169817.png,1771861183631169817,1771861183.6311698,42.30025872943309,-83.69862736751196,236.59149169921875,-0.7010696844335429,-0.712973584226039,0.012416744017586818,0.003973692505671482,0.026350000000000005,-0.019250000000000003,0.00817,2.9037,0.5988,-9.905100000000001,5.177937750642088,11.582736071921314,14.929999351501465,14.9399995803833,20.68000030517578,26.689998626708984,12.123297128013212,12.131417406067373,16.79235091740555,21.672524966675034,15.679897604540292,0.3537300260645024,-4.900000095367432,45.625,0.0,0.0,0.0,0.0,0.0,,,,,
pylon_camera_1771861183672690795.png,1771861183672690795,1771861183.6726906,42.300259666214956,-83.69862738847502,236.5933380126953,-0.7014707054581509,-0.7125573945170138,0.013616336293227052,0.003924829820337989,0.025720000000000003,-0.04357000000000001,0.013970000000000002,2.3658,-2.9525,-10.8286,5.32069794668723,11.902082064862533,15.25,15.119999885559082,31.279998779296875,29.829999923706055,12.383140605000001,12.27757931347292,25.399647410377806,24.222234970648614,18.570650574874836,0.5602858788631049,-4.900000095367432,46.150001525878906,0.0,0.0,0.0,0.0,0.0,,,,,
pylon_camera_1771861183720127810.png,1771861183720127810,1771861183.7201278,42.30026253460814,-83.69862747008891,236.5992431640625,-0.7019419889550491,-0.7120754019808148,0.014477511949580031,0.0040580393591662855,0.05769000000000001,-0.02236,0.006350000000000001,3.2006,-2.0721000000000003,-9.0878,5.392887005512094,12.063564658110224,15.670000076293945,15.789999961853027,29.76999855041504,16.279998779296875,12.724184539351388,12.821625552824306,24.17351330232365,13.219509110377807,15.734708126219287,0.3043166404086861,-4.900000095367432,45.04999923706055,0.0,168.0,0.0,0.0,0.0,,,,,
pylon_camera_1771861183770752157.png,1771861183770752157,1771861183.7707522,42.3002654692118,-83.69862757430356,236.6048126220703,-0.7024870752691431,-0.7115282540142727,0.01511532623578343,0.0033135678643897667,-0.026050000000000004,-0.00867,0.0044,0.231,-0.1342,-10.258000000000001,5.463651854813006,12.221861380105405,18.939998626708984,17.28999900817871,16.09000015258789,16.270000457763672,15.379453511675035,14.03963860843197,13.065228473702776,13.211390381108323,13.923927743729525,0.13926408676134408,-4.0,40.97500228881836,0.0,176.0,0.0,0.0,0.0,,,,,
pylon_camera_1771861183833017745.png,1771861183833017745,1771861183.8330178,42.300268500775424,-83.69862764762773,236.60755920410156,-0.7023743129603066,-0.7116564624373173,0.014371321336090983,0.0029781013742667885,-0.14724,-0.08377000000000001,0.019940000000000003,3.3318000000000003,3.1166,-8.9846,5.806999281268882,12.989908972241615,16.84000015258789,16.81999969482422,17.479999542236328,17.219999313354492,13.674235388702774,13.657994832594452,14.193920793891678,13.982798210837517,13.877237306506604,0.06830904944454484,-3.799999952316284,41.29999923706055,0.0,48.0,0.0,0.0,0.0,,,,,
pylon_camera_1771861183876280584.png,1771861183876280584,1771861183.8762805,42.30027060750874,-83.69862773251896,236.60850524902344,-0.7023895011566066,-0.711645758730271,0.014221364694483974,0.002656225219479299,-0.21883000000000002,-0.16229000000000002,0.026670000000000003,-2.9248000000000003,-3.8318000000000003,-13.062000000000001,5.874909680798098,13.141820461364498,16.869998931884766,16.959999084472656,17.10999870300293,17.139999389648438,13.698594674080582,13.771675627783356,13.89347670102642,13.917837535188903,13.820396134519815,0.0516348305891299,-4.099999904632568,41.54999923706055,0.0,32.0,0.0,0.0,0.0,,,,,
pylon_camera_1771861183925188185.png,1771861183925188185,1771861183.925188,42.300273817130815,-83.69862779102434,236.60894775390625,-0.7026710543500416,-0.7113699687938583,0.013961262914985815,0.0033526131069224643,-0.13980000000000004,-0.14332000000000003,0.031920000000000004,-2.2812,-4.0503,-9.8336,5.999426697157144,13.420357555938702,17.510000228881836,17.40999984741211,17.60999870300293,17.559999465942383,14.21828162805416,14.137080396297227,14.29948131102642,14.258881469540292,14.228431201229524,0.0602125272685628,-4.099999904632568,41.875,0.0,28.0,0.0,0.0,0.0,,,,,
pylon_camera_1771861183976329770.png,1771861183976329770,1771861183.9763298,42.30027715699841,-83.69862789136141,236.61273193359375,-0.7035665585738206,-0.7104846094080608,0.01391063125078705,0.0034945370323700674,-0.019530000000000002,0.07559,0.04515,1.9541000000000002,1.3657000000000001,-10.7753,6.199937370080719,13.868887900628366,17.84000015258789,17.850000381469727,17.959999084472656,17.85999870300293,14.486244608702776,14.494364886756935,14.583684847783356,14.50248361602642,14.516694489817372,0.046709339193638996,-4.099999904632568,42.72500228881836,0.0,0.0,0.0,0.0,0.0,,,,,
pylon_camera_1771861184032264734.png,1771861184032264734,1771861184.0322647,42.30027941694415,-83.69862797634676,236.61587524414062,-0.7040226189393227,-0.7100220175558323,0.014546920747364148,0.0030452757728655563,-0.00638,-0.034640000000000004,0.030040000000000004,2.2297000000000002,0.6393,-10.4205,6.34063010905887,14.18360911615815,18.3799991607666,18.279998779296875,18.399999618530273,18.3799991607666,14.924728782134743,14.843527550377807,14.940969338243065,14.924728782134743,14.90848861322259,0.051106843901856186,-4.099999904632568,42.70000076293945,0.0,0.0,0.0,0.0,0.0,,,,,
pylon_camera_1771861184074133683.png,1771861184074133683,1771861184.0741339,42.300280566865574,-83.69862800101698,236.61756896972656,-0.7043739070157561,-0.7096665782720466,0.014974040035470267,0.0025543930825538946,0.008190000000000001,-0.04943,0.014110000000000001,2.0398,1.0866,-9.9907,6.480711810544725,14.496963477479918,18.65999984741211,18.649999618530273,18.690000534057617,18.779998779296875,15.152091921297227,15.143971643243065,15.17645275545971,15.249532160377807,15.180512120094452,0.047151159874023414,-4.099999904632568,42.60000228881836,0.0,0.0,0.0,0.0,0.0,,,,,
pylon_camera_1771861184124768631.png,1771861184124768631,1771861184.1247685,42.300285247236765,-83.69862810952957,236.6240997314453,-0.704615713762257,-0.7094234304722618,0.0151589032138267,0.0023021445712685835,0.005640000000000001,-0.025200000000000004,0.007170000000000001,2.6140000000000003,0.19870000000000002,-9.440000000000001,6.60822736431755,14.7822081203365,19.059999465942383,19.049999237060547,19.059999465942383,19.020000457763672,15.476895299540292,15.46877502148613,15.476895299540292,15.444415736108322,15.46674533916876,0.04630818435647061,-4.099999904632568,42.625,0.0,0.0,0.0,0.0,0.0,,,,,
pylon_camera_1771861184174954865.png,1771861184174954865,1771861184.1749547,42.300288852602996,-83.69862818250877,236.6277618408203,-0.7047772023536152,-0.7092606354385566,0.01524130757510965,0.002479637737128255,0.00623,0.0018100000000000002,0.005770000000000001,3.1849000000000003,-0.1363,-9.209,6.726821294667176,15.047495626892793,19.420000076293945,19.35999870300293,19.34000015258789,19.469999313354492,15.769219114351388,15.720497446026421,15.704258438702775,15.809818955837516,15.750948488729524,0.04674883311343342,-4.099999904632568,42.75,0.0,0.0,0.0,0.0,0.0,,,,,
pylon_camera_1771861184228549129.png,1771861184228549129,1771861184.228549,42.300291305029894,-83.69862823473764,236.6295623779297,-0.7050027310306897,-0.7090321282287947,0.015361323432268773,0.002936004261609143,0.00839,0.012600000000000002,0.00803,3.1763000000000003,-0.16160000000000002,-9.7866,6.850935540780267,15.32513174859301,19.719999313354492,19.65999984741211,19.809999465942383,19.779998779296875,16.01282126083752,15.964101141297226,16.08590221454029,16.061541380377808,16.031091499263212,0.04606549309013381,-4.099999904632568,42.900001525878906,0.0,0.0,0.0,0.0,0.0,,,,,
pylon_camera_1771861184287774797.png,1771861184287774797,1771861184.2877748,42.300293785714146,-83.69862828397844,236.63101196289062,-0.7052390105456035,-0.7087910468307347,0.0155516218412434,0.003367045493674929,0.0025200000000000005,0.01589,0.009190000000000002,2.519,-0.2661,-10.0653,6.974038680122518,15.600506085113265,20.149999618530273,20.19999885559082,20.189998626708984,20.09000015258789,16.361985473243067,16.402585314729194,16.394465036675037,16.313265353702775,16.36807529458752,0.049201558288336895,-4.099999904632568,43.275001525878906,0.0,0.0,0.0,0.0,0.0,,,,,
pylon_camera_1771861184339596922.png,1771861184339596922,1771861184.3395967,42.300297583905724,-83.69862835342194,236.6331787109375,-0.7054232271757066,-0.7086056427589241,0.015594744953945288,0.003594098085032248,-0.00272,0.012110000000000003,0.007100000000000001,2.0442,-0.45740000000000003,-9.5983,7.100378590616032,15.883120884492627,20.600000381469727,20.489999771118164,20.639999389648438,20.549999237060547,16.727390241756936,16.63806873194584,16.759869805188906,16.68678885148613,16.703029407594453,0.05162137397709656,-4.099999904632568,42.95000076293945,0.0,0.0,0.0,0.0,0.0,,,,,
pylon_camera_1771861184386628275.png,1771861184386628275,1771861184.3866284,42.30030145831104,-83.6986284316772,236.63511657714844,-0.7055804326109707,-0.7084512742345549,0.015411224464270625,0.003941993463073779,-0.0017100000000000001,0.01623,0.004890000000000001,1.973,-0.628,-10.0792,7.2271723357279996,16.166750884683392,20.869998931884766,20.81999969482422,20.920000076293945,20.829999923706055,16.946631554080582,16.90603171259445,16.987232944351387,16.914151990648616,16.938512050418762,0.04773755538390509,-4.099999904632568,43.0,0.0,0.0,0.0,0.0,0.0,,,,,
pylon_camera_1771861184436274635.png,1771861184436274635,1771861184.4362748,42.300304082674586,-83.69862848738873,236.63697814941406,-0.7056971798271177,-0.7083378774299097,0.015189225305277831,0.00426956868646833,0.0008900000000000001,0.00487,0.003110000000000001,2.1976,-0.7397,-9.6935,7.35745596652014,16.458187549747564,21.209999084472656,21.270000457763672,21.15999984741211,21.189998626708984,17.222714812783355,17.27143648110832,17.182114971297228,17.206474256675033,17.220685130465984,0.04632937730315972,-4.099999904632568,43.20000076293945,0.0,0.0,0.0,0.0,0.0,,,,,
pylon_camera_1771861184494965960.png,1771861184494965960,1771861184.494966,42.3003080906103,-83.69862858174722,236.64044189453125,-0.7058885334217277,-0.7081516299784073,0.014952459740216991,0.004367068852734774,-0.0023500000000000005,0.008040000000000002,0.009250000000000001,2.247,-0.19240000000000002,-10.1437,7.507378026867085,16.793554203420058,21.59000015258789,21.579999923706055,21.65999984741211,21.60999870300293,17.531279183702775,17.523158905648614,17.588119581297228,17.54751819102642,17.54751896541876,0.04489608053577813,-4.099999904632568,43.04999923706055,0.0,0.0,0.0,0.0,0.0,,,,,
pylon_camera_1771861184528691418.png,1771861184528691418,1771861184.5286915,42.300310812739205,-83.69862864818428,236.64320373535156,-0.7060140473399118,-0.7080277920016889,0.014882091414060494,0.00439705208904466,0.0022400000000000007,0.0012700000000000003,0.007620000000000001,2.5937,-0.34900000000000003,-10.123700000000001,7.608293807107104,17.019296748870165,21.770000457763672,21.760000228881836,21.899999618530273,21.81999969482422,17.677441091108324,17.66932081305416,17.783001608243065,17.71804093259445,17.71195111125,0.04069817763920334,-4.099999904632568,43.22500228881836,0.0,0.0,0.0,0.0,0.0,,,,,
pylon_camera_1771861184588306671.png,1771861184588306671,1771861184.5883067,42.300314955570656,-83.69862874425931,236.64804077148438,-0.7062133714671089,-0.7078287606223006,0.014893216319570609,0.004394508461185804,-0.00477,0.0024400000000000003,0.0079,2.2399,-0.2817,-10.0962,7.753659929143762,17.344472041898847,22.189998626708984,22.18000030517578,22.25,22.260000228881836,18.018483476675033,18.010364747405546,18.067205145000003,18.075325423054164,18.042844698033687,0.04026485524885328,-4.099999904632568,43.20000076293945,0.0,0.0,0.0,0.0,0.0,,,,,
pylon_camera_1771861184639929479.png,1771861184639929479,1771861184.6399295,42.30031775841445,-83.6986288101188,236.6511688232422,-0.7063276416971463,-0.7077179109223555,0.014772917414668893,0.0042874287520470195,-0.012430000000000002,0.011510000000000001,0.00858,2.2486,-0.18530000000000002,-9.4526,7.8505801623607265,17.561276788391204,22.529998779296875,22.5,22.549999237060547,22.489999771118164,18.294566735377806,18.27020745,18.31080729148613,18.262087171945836,18.284417162202445,0.041178120618727956,-4.099999904632568,43.125,0.0,0.0,0.0,0.0,0.0,,,,,
pylon_camera_1771861184693294362.png,1771861184693294362,1771861184.6932943,42.300320597874176,-83.69862888709156,236.654541015625,-0.7063939785537924,-0.7076578201736572,0.014536194041147314,0.00408113621558435,-0.014260000000000002,0.0015,0.005770000000000001,2.5164,-0.4072,-9.9491,7.97246454749658,17.833924844877,22.959999084472656,22.81999969482422,23.029998779296875,22.85999870300293,18.643730947783357,18.530050152594452,18.700571345377806,18.56252971602642,18.60922054044551,0.04347308303204058,-4.099999904632568,43.45000076293945,0.0,0.0,0.0,0.0,0.0,,,,,
pylon_camera_1771861184738954876.png,1771861184738954876,1771861184.7389548,42.30032638839487,-83.6986290375044,236.6613006591797,-0.7065134660695289,-0.707542960439785,0.014452037325487591,0.0035805043873762482,-0.013700000000000002,-0.022080000000000002,0.00877,2.3575,-0.2083,-10.2401,8.125274475546355,18.175751485328664,23.260000228881836,23.149999618530273,23.239999771118164,23.26999855041504,18.88733464305416,18.798013133243067,18.871094086945842,18.895453372323647,18.862973808891677,0.037809843742512325,-4.0,43.375,0.0,0.0,0.0,0.0,0.0,,,,,
pylon_camera_1771861184794105452.png,1771861184794105452,1771861184.7941053,42.3003293344343,-83.6986291105039,236.66525268554688,-0.7066288599863291,-0.7074242415005342,0.014675057734601584,0.003352529239327281,0.005790000000000001,-0.010180000000000002,0.008310000000000001,2.0794,0.0761,-9.7787,8.238441217990701,18.42889869817212,23.59000015258789,23.549999237060547,23.649999618530273,23.60999870300293,19.155297623702776,19.122816511486132,19.204017743243067,19.17153663102642,19.163417127364596,0.039856881369982805,-4.0,43.67499923706055,0.0,0.0,0.0,0.0,0.0,,,,,
pylon_camera_1771861184839579614.png,1771861184839579614,1771861184.8395796,42.30033231783257,-83.69862917896644,236.6688690185547,-0.7067142556680469,-0.7073348210000967,0.014862017050827932,0.003395921892574952,0.007150000000000001,-0.0062900000000000005,0.007750000000000001,1.9817,-0.058800000000000005,-9.9213,8.327375425016587,18.627839183236606,23.889999389648438,23.85999870300293,23.93000030517578,23.989999771118164,19.398899770188905,19.374538936026422,19.431380882405552,19.48010100194584,19.42123014764168,0.0425916799367183,-4.0,43.775001525878906,0.0,0.0,0.0,0.0,0.0,,,,,
pylon_camera_1771861184890927696.png,1771861184890927696,1771861184.8909276,42.30033836928906,-83.69862931474648,236.67684936523438,-0.7068661563191471,-0.7071857526887584,0.014723088263900501,0.0034320426282900924,-0.012900000000000002,-0.0005200000000000001,0.009940000000000001,2.1348000000000003,-0.28340000000000004,-10.2005,8.486844056295796,18.98456094329032,24.239999771118164,24.209999084472656,24.28999900817871,24.25,19.68310330694584,19.658742472783356,19.72370314843197,19.691223585,19.68919312829029,0.03711606431693696,-4.0,43.72500228881836,0.0,0.0,0.0,0.0,0.0,,,,,
pylon_camera_1771861184940534269.png,1771861184940534269,1771861184.9405344,42.30033990545354,-83.69862934877463,236.67860412597656,-0.7069044673199449,-0.7071511302080645,0.014551459176870087,0.0034070756354551562,-0.008990000000000001,0.0033400000000000005,0.004070000000000001,2.3794,-0.375,-9.535300000000001,8.558171071396787,19.14411519645033,24.559999465942383,24.549999237060547,24.619998931884766,24.59000015258789,19.94294600954029,19.93482573148613,19.99166612908058,19.967306843702776,19.959186178452445,0.042575536849738804,-4.0,43.625,0.0,0.0,0.0,0.0,0.0,,,,,
pylon_camera_1771861184991954525.png,1771861184991954525,1771861184.9919543,42.300344561389004,-83.69862945405755,236.68453979492188,-0.7070263674518941,-0.7070367866171139,0.014229187517086551,0.003198174561937845,-0.0102,-0.007280000000000001,0.006020000000000001,2.5251,-0.24080000000000001,-9.675,8.702109750952832,19.46609738629643,24.989999771118164,24.81999969482422,24.93000030517578,25.0,20.29211022194584,20.154068592594456,20.24339010240555,20.3002305,20.24744985423646,0.040139143066759815,-4.0,43.54999923706055,0.0,0.0,0.0,0.0,0.0,,,,,
pylon_camera_1771861185041737285.png,1771861185041737285,1771861185.0417373,42.300349293047354,-83.69862955801224,236.69027709960938,0.707183546261586,0.7068801842067598,-0.014227433971535745,-0.003068744904696002,-0.00062,0.0020100000000000005,0.010900000000000002,1.9716,-0.21910000000000002,-9.3742,8.83725326190696,19.76840531169016,25.189998626708984,25.1299991607666,25.260000228881836,25.119998931884766,20.454511136675034,20.405791017134746,20.511353083054164,20.397670739080585,20.44233149398613,0.034091074705830816,-4.0,43.54999923706055,0.0,0.0,0.0,0.0,0.0,,,,,
pylon_camera_1771861185092913823.png,1771861185092913823,1771861185.0929139,42.30035248824625,-83.69862962649204,236.69363403320312,0.7072772067188648,0.7067849426797,-0.01426798837508426,-0.0032283377985702936,0.014050000000000002,-0.0004500000000000001,0.00918,2.5464,0.0008,-9.8613,8.931880621074564,19.980081036506537,25.479999542236328,25.479999542236328,25.53999900817871,25.60999870300293,20.68999455389168,20.68999455389168,20.738714673431968,20.795555071026424,20.72856471306044,0.03746149353380066,-4.0,43.400001525878906,0.0,0.0,0.0,0.0,0.0,,,,,
pylon_camera_1771861185142842706.png,1771861185142842706,1771861185.1428425,42.300355722441196,-83.6986296917609,236.69668579101562,0.7074278834624419,0.7066317693895935,-0.014408392812739052,-0.003119359827884453,0.006390000000000001,-0.0031000000000000003,0.006780000000000001,2.4231000000000003,0.665,-9.2902,9.046198478516294,20.23580322453224,25.829999923706055,25.869998931884766,25.869998931884766,25.84000015258789,20.974198090648613,21.006677654080583,21.006677654080583,20.982318368702774,20.99246794187814,0.03739237375211181,-3.9000000953674316,43.29999923706055,0.0,0.0,0.0,0.0,0.0,,,,,
pylon_camera_1771861185197105949.png,1771861185197105949,1771861185.197106,42.30036063115415,-83.69862978443317,236.70152282714844,0.7075288272509648,0.706528844601109,-0.014545592338736422,-0.0028941490997275157,0.005390000000000001,-0.012940000000000002,0.00559,2.0478,0.1363,-9.2789,9.156493666006204,20.48252694123592,26.189998626708984,26.170000076293945,26.209999084472656,26.1299991607666,21.266520356675034,21.25028134935139,21.282760912783356,21.217800237134743,21.25434071398613,0.0376815700018134,-3.9000000953674316,43.775001525878906,0.0,0.0,0.0,0.0,0.0,,,,,
pylon_camera_1771861185245873895.png,1771861185245873895,1771861185.245874,42.30036561096451,-83.69862988163167,236.70729064941406,0.7076480762893212,0.7064107756422344,-0.014505978900476592,-0.002755495726525641,-0.0013000000000000002,0.01004,0.010950000000000001,2.2566,-0.3919,-10.1027,9.262920034084955,20.720596341046,26.469999313354492,26.469999313354492,26.459999084472656,26.469999313354492,21.49388349583752,21.49388349583752,21.485763217783358,21.49388349583752,21.49185342632398,0.037221761023845445,-3.9000000953674316,43.22500228881836,0.0,0.0,0.0,0.0,0.0,,,,,
pylon_camera_1771861185296850208.png,1771861185296850208,1771861185.2968502,42.30036896626834,-83.69862994544417,236.71145629882812,0.7077832876116533,0.7062782897654856,-0.014408864064815705,-0.0024859243637285677,-0.014880000000000003,-0.00223,0.009330000000000001,2.1426000000000003,-0.1474,-9.9989,9.375903738570308,20.973334108957467,26.729999542236328,26.65999984741211,26.809999465942383,26.739999771118164,21.705006078891678,21.64816568129723,21.76996675454029,21.71312635694584,21.709066217918757,0.03507940631370897,-3.9000000953674316,42.95000076293945,0.0,0.0,0.0,0.0,0.0,,,,,
pylon_camera_1771861185338404906.png,1771861185338404906,1771861185.338405,42.30037235876837,-83.69863000891935,236.71646118164062,0.7079362192708306,0.7061161425322329,-0.014855261496732662,-0.0023714775532127563,0.009520000000000002,-0.022140000000000003,0.014190000000000001,1.9418000000000002,-0.28650000000000003,-9.9773,9.49291817329095,21.235088378561457,26.939998626708984,26.939998626708984,27.15999984741211,27.099998474121094,21.875527271675033,21.875527271675033,22.054170291297226,22.00544862297226,21.952668364404886,0.03379218268608122,-3.9000000953674316,42.400001525878906,0.0,0.0,0.0,0.0,0.0,,,,,
pylon_camera_1771861185389457675.png,1771861185389457675,1771861185.3894577,42.300377511109566,-83.69863009641195,236.72415161132812,0.7080519537162794,0.7059840510804927,-0.01561284540582938,-0.0022780511121731385,0.013710000000000003,-0.030070000000000006,0.009500000000000001,1.6489,-0.1729,-9.8581,9.604834031157331,21.485437437657083,27.44999885559082,27.28999900817871,27.369998931884766,27.189998626708984,22.289652159729197,22.15973080843197,22.22469148408058,22.078529576675038,22.188151007229195,0.03270650512055574,-4.0,42.650001525878906,0.0,0.0,0.0,0.0,0.0,,,,,
pylon_camera_1771861185448545863.png,1771861185448545863,1771861185.4485457,42.300382731743376,-83.69863017994007,236.7299041748047,0.7081829137146498,0.705845158089658,-0.015949992861360868,-0.0022740386402189307,-0.006070000000000001,0.007960000000000002,0.006450000000000001,1.6336000000000002,-0.1336,-9.56,9.729091058226429,21.76339295178903,27.670000076293945,27.639999389648438,27.729999542236328,27.709999084472656,22.468295179351387,22.443934345188907,22.517015298891682,22.500774742783356,22.48250489155383,0.03304227155011174,-4.0,42.10000228881836,0.0,0.0,0.0,0.0,0.0,,,,,
pylon_camera_1771861185490051173.png,1771861185490051173,1771861185.490051,42.30038625383147,-83.69863023668928,236.7322235107422,0.7083084507893002,0.7057204670337873,-0.015920242910454668,-0.0020752869071760625,-0.007700000000000001,-0.026100000000000005,0.013170000000000001,1.7371,0.6879000000000001,-7.9973,9.813702079131376,21.952662728892143,27.939998626708984,27.899999618530273,28.06999969482422,27.979999542236328,22.687536491675036,22.655056928243066,22.79309855759445,22.72001760389168,22.713927395351057,0.034677554876156536,-4.0,42.17499923706055,0.0,0.0,0.0,0.0,0.0,,,,,
pylon_camera_1771861185538110924.png,1771861185538110924,1771861185.538111,42.3003915892261,-83.69863032344166,236.73614501953125,0.7084727651840139,0.7055591111352474,-0.01575462065999709,-0.0021150920586187694,0.0032200000000000006,0.021460000000000003,0.012810000000000002,1.9895,0.39780000000000004,-9.8975,9.917466367465599,22.184777216038498,28.260000228881836,28.170000076293945,28.19999885559082,28.19999885559082,22.94738074305416,22.874299789351387,22.898659074729196,22.898659074729196,22.904749670465986,0.03245344532497642,-4.0,40.60000228881836,0.0,0.0,0.0,0.0,0.0,,,,,
pylon_camera_1771861185601088647.png,1771861185601088647,1771861185.6010888,42.30039698925545,-83.69863040528205,236.7400360107422,0.7086236572620003,0.7054016015880016,-0.015999878735342917,-0.002257593002256226,0.015160000000000003,-0.009020000000000002,0.00434,1.9474,-0.3252,-9.8488,10.041443797062339,22.46210728740063,28.53999900817871,28.649999618530273,28.6299991607666,28.60999870300293,23.17474233343197,23.264063843243065,23.247823287134747,23.23158273102642,23.22955304870905,0.034166240570798645,-4.0,36.29999923706055,0.0,0.0,0.0,0.0,0.0,,,,,
pylon_camera_1771861185640734888.png,1771861185640734888,1771861185.640735,42.30039879792522,-83.69863043225565,236.7417449951172,0.7087003939211431,0.7053207164493475,-0.016143853857868984,-0.0024113452700627643,0.01893,0.00487,0.008640000000000002,1.4048,0.22260000000000002,-9.5373,10.09603323336519,22.58422058104393,28.799999237060547,28.760000228881836,28.869998931884766,28.76999855041504,23.38586491648613,23.35338535305416,23.442705314080584,23.36150408232365,23.38586491648613,0.03549577159705312,-4.0,30.649999618530273,0.0,0.0,0.0,0.0,0.0,,,,,
pylon_camera_1771861185689573362.png,1771861185689573362,1771861185.6895733,42.30040245024052,-83.69863048397328,236.74465942382812,0.7087892066317539,0.7052261124819552,-0.01631189783741062,-0.0028129743793703964,-0.0003800000000000001,0.0018200000000000002,0.0030400000000000006,1.9185,-1.1620000000000001,-10.2347,10.201179568604998,22.819426624195266,29.029998779296875,28.959999084472656,29.06999969482422,29.03999900817871,23.572626665377808,23.515786267783355,23.605107777594455,23.58074694343197,23.568566913546896,0.03282905840225283,-4.0,25.649999618530273,0.0,0.0,0.0,0.0,0.0,,,,,
pylon_camera_1771861185749682527.png,1771861185749682527,1771861185.7496824,42.30040797753131,-83.69863056420658,236.7493133544922,0.7089233708215241,0.7050923908980743,-0.016269775427841745,-0.0027692974221642814,-0.0077800000000000005,0.0032600000000000003,0.008420000000000002,1.8902,-1.0510000000000002,-10.049100000000001,10.320442169917385,23.086209907574997,29.329999923706055,29.26999855041504,29.369998931884766,29.26999855041504,23.816230360648614,23.76750869232365,23.848709924080584,23.76750869232365,23.799989417344122,0.030918003112105533,-4.0,20.92500114440918,0.0,0.0,0.0,0.0,0.0,,,,,
pylon_camera_1771861185790311027.png,1771861185790311027,1771861185.7903109,42.30041357061095,-83.69863064249486,236.75418090820312,0.7090422822507182,0.7049711913035097,-0.016360139160036077,-0.002647122865915867,0.00982,-0.011590000000000001,0.0041400000000000005,1.7783,-0.6327,-10.2009,10.420462951903316,23.309950395630604,29.439998626708984,29.510000228881836,29.44999885559082,29.44999885559082,23.905550321675033,23.962392268054163,23.913670599729194,23.913670599729194,23.923820947296896,0.026335129043490384,-4.0,19.950000762939453,0.0,0.0,0.0,0.0,0.0,,,,,
pylon_camera_1771861185843566994.png,1771861185843566994,1771861185.8435671,42.30041922380219,-83.69863072110498,236.75941467285156,0.7091927649847728,0.7048136270030463,-0.01666976266647555,-0.002343564956893045,0.013390000000000003,-0.011530000000000002,0.006600000000000001,1.5633000000000001,-0.3214,-9.47,10.507940766947856,23.50563301921634,29.69999885559082,29.59000015258789,29.67999839782715,29.59000015258789,24.116672904729196,24.027352943702773,24.100432348620874,24.027352943702773,24.0679527851889,0.023922766322134463,-4.0,19.899999618530273,0.0,0.0,0.0,0.0,0.0,,,,,
pylon_camera_1771861185893112864.png,1771861185893112864,1771861185.893113,42.300423014953765,-83.69863077645626,236.76246643066406,0.7093455372279578,0.7046631264042224,-0.016585774507534366,-0.0019233265432632596,-0.009890000000000001,0.00032,0.0038000000000000004,1.1028,0.30660000000000004,-9.3527,10.564689313555473,23.63257611306478,29.779998779296875,29.760000228881836,29.809999465942383,29.779998779296875,24.18163358037781,24.165394573054165,24.205994414540292,24.18163358037781,24.18366403708752,0.023318994991751416,-4.0,18.450000762939453,0.0,0.0,0.0,0.0,0.0,,,,,
pylon_camera_1771861185954176760.png,1771861185954176760,1771861185.9541767,42.30042873281882,-83.69863085694398,236.76686096191406,0.7095314211942274,0.7044745346088036,-0.01662497271520753,-0.0020982630979164956,0.017870000000000004,0.003980000000000001,0.008650000000000001,0.9518000000000001,-0.08220000000000001,-10.074900000000001,10.626694998882488,23.771279110800194,29.84000015258789,29.779998779296875,29.979999542236328,29.829999923706055,24.230355248702775,24.18163358037781,24.344036043891677,24.222234970648614,24.24456496090522,0.019909986664957944,-4.0,17.200000762939453,0.0,0.0,0.0,0.0,0.0,,,,,
pylon_camera_1771861185994325147.png,1771861185994325147,1771861185.9943252,42.30043256237191,-83.69863090672078,236.77059936523438,0.7097026500043919,0.7042929910703014,-0.016992082113498466,-0.0021909932542623096,0.029710000000000004,-0.0066500000000000005,0.011480000000000002,0.7997000000000001,0.6052000000000001,-10.0347,10.668930061927659,23.86575641272846,29.979999542236328,29.85999870300293,30.01999855041504,30.03999900817871,24.344036043891677,24.246594256026423,24.376515607323647,24.39275616343197,24.33997551766843,0.019870273405080716,-4.0,16.30000114440918,0.0,0.0,0.0,0.0,0.0,,,,,
pylon_camera_1771861186052986750.png,1771861186052986750,1771861186.0529866,42.30043834057532,-83.69863097232977,236.77688598632812,0.7099480731486865,0.7040197922596011,-0.01804771505122052,-0.002036055167599155,0.019500000000000003,-0.033030000000000004,0.010220000000000002,0.8131,-0.08600000000000001,-9.0172,10.728048324976614,23.99800042007319,30.170000076293945,30.059999465942383,30.06999969482422,30.03999900817871,24.498318229351387,24.408996719540294,24.41711699759445,24.39275616343197,24.429297027479524,0.017972189343141085,-4.0,16.5,0.0,0.0,0.0,0.0,0.0,,,,,
pylon_camera_1771861186103864998.png,1771861186103864998,1771861186.1038651,42.3004441408229,-83.69863104078053,236.78150939941406,0.7102028978487346,0.7037557373820154,-0.01836209950652767,-0.0015935152550982728,-0.011460000000000001,-0.01796,0.014060000000000001,0.21580000000000002,-0.382,-8.9011,10.75334666194676,24.054591281975185,30.229999542236328,30.189998626708984,30.149999618530273,30.369998931884766,24.54703834889168,24.514557236675035,24.48207767324307,24.660719144080584,24.55109810072259,0.0206408337155765,-4.0,16.42500114440918,0.0,0.0,0.0,0.0,0.0,,,,,
pylon_camera_1771861186155868218.png,1771861186155868218,1771861186.155868,42.300448016453686,-83.69863109057987,236.783447265625,0.7105097004855638,0.703459910731805,-0.01786382785068823,-0.0010015805689096923,-0.022910000000000003,0.006850000000000001,0.017020000000000004,-0.0604,-0.0207,-10.4787,10.78171305378497,24.11804519853375,30.34000015258789,30.189998626708984,30.349998474121094,30.28999900817871,24.63635985870277,24.514557236675035,24.64447858797226,24.595758468431967,24.597788537945508,0.01989146862702306,-3.9000000953674316,13.25,0.0,0.0,0.0,0.0,0.0,,,,,
pylon_camera_1771861186202686874.png,1771861186202686874,1771861186.202687,42.30045189672032,-83.69863113941128,236.7857208251953,0.7107132770266318,0.703259933077495,-0.01765027631651274,-0.0007563939808400216,-0.006210000000000001,-0.00255,0.01574,0.5584,-0.1515,-10.215300000000001,10.805539263887587,24.1713430009607,30.229999542236328,30.26999855041504,30.35999870300293,30.31999969482422,24.54703834889168,24.57951791232365,24.652598866026423,24.620119302594453,24.59981860745905,0.017726594938531924,-3.9000000953674316,8.100000381469727,0.0,0.0,0.0,0.0,0.0,,,,,
pylon_camera_1771861186246254645.png,1771861186246254645,1771861186.2462547,42.30045773028812,-83.69863120082184,236.790283203125,0.7109041428775443,0.7030633058791964,-0.01779520155623109,-0.0007863633592378133,0.00415,-0.0036100000000000004,0.011470000000000001,0.13820000000000002,-0.5113,-9.260100000000001,10.822209763472395,24.20863390830194,30.459999084472656,30.28999900817871,30.420000076293945,30.299999237060547,24.73380009778336,24.595758468431967,24.70132053435139,24.60387874648613,24.658689461763213,0.01859070425724986,-3.9000000953674316,1.4500000476837158,0.0,0.0,0.0,0.0,0.0,,,,,
pylon_camera_1771861186295053550.png,1771861186295053550,1771861186.2950535,42.30046162495961,-83.69863124039301,236.79273986816406,0.7111134985914566,0.7028493743312327,-0.01787564147050417,-0.0009003139625788222,-0.006050000000000001,0.0014500000000000003,0.014580000000000003,-0.24400000000000002,-0.3301,-9.7056,10.842638127844973,24.254330933701535,30.34000015258789,30.42999839782715,30.439998626708984,30.299999237060547,24.63635985870277,24.709439263620872,24.717559541675033,24.60387874648613,24.6668093526212,0.017006382078613602,-3.9000000953674316,0.0,0.0,0.0,0.0,0.0,0.0,,,,,
pylon_camera_1771861186345250450.png,1771861186345250450,1771861186.3452506,42.30046748445549,-83.69863129029618,236.79559326171875,0.7113118891167394,0.702658311156286,-0.01749672438799756,-0.0007475291715863029,-0.020790000000000003,0.0049700000000000005,0.015310000000000002,0.2934,-0.42600000000000005,-10.2378,10.870811945559819,24.31735407350058,30.389999389648438,30.389999389648438,30.399999618530273,30.389999389648438,24.676959700188903,24.676959700188903,24.685079978243067,24.676959700188903,24.678989769702444,0.014871506789299431,-3.799999952316284,0.0,0.0,0.0,0.0,0.0,0.0,,,,,
pylon_camera_1771861186405532960.png,1771861186405532960,1771861186.4055328,42.30047335231758,-83.69863134361016,236.79849243164062,0.7115602320542564,0.7024188328758122,-0.01702401276082162,4.868052517117076e-05,-0.0202,-0.016110000000000003,0.010090000000000002,0.030100000000000002,-0.0775,-10.2293,10.893204509695844,24.36744489591902,30.42999839782715,30.25,30.420000076293945,30.329999923706055,24.709439263620872,24.563278905000004,24.70132053435139,24.628239580648614,24.65056957090522,0.011618972616764358,-3.799999952316284,0.0,0.0,0.0,0.0,0.0,0.0,,,,,
pylon_camera_1771861186449122208.png,1771861186449122208,1771861186.4491222,42.30047727443508,-83.6986313787233,236.80096435546875,0.711699732018939,0.7022811844229064,-0.016861910602385937,0.0005526486833873457,-0.035660000000000004,-0.016080000000000004,0.015490000000000002,0.1638,-0.0597,-9.7399,10.903525673325433,24.390532719688597,30.459999084472656,30.299999237060547,30.599998474121094,30.299999237060547,24.73380009778336,24.60387874648613,24.84748089297226,24.60387874648613,24.69725962093197,0.012575654036280056,-3.700000047683716,0.0,0.0,0.0,0.0,0.0,0.0,,,,,
pylon_camera_1771861186497500890.png,1771861186497500890,1771861186.497501,42.300481199832596,-83.69863140895137,236.8039093017578,0.7119706292696979,0.7019879511592003,-0.017581829100025967,0.001272308970287534,0.025830000000000002,-0.04637,0.015690000000000003,-0.23220000000000002,0.9499000000000001,-9.9877,10.9172056484126,24.42113400316008,30.420000076293945,30.469999313354492,30.56999969482422,30.28999900817871,24.70132053435139,24.741920375837516,24.82312160759445,24.595758468431967,24.715530246553833,0.01205497841974322,-3.6000001430511475,0.0,0.0,0.0,0.0,0.0,0.0,,,,,
pylon_camera_1771861186547607511.png,1771861186547607511,1771861186.5476077,42.30048708840509,-83.69863142916205,236.80892944335938,0.7121984207552412,0.7017110181069671,-0.019337665691313035,0.0010541473498191093,0.04718000000000001,-0.040130000000000006,0.01969,-1.1562000000000001,-0.023100000000000002,-9.1738,10.903540552234901,24.39056600291634,30.479999542236328,30.51999855041504,30.51999855041504,30.42999839782715,24.750040653891677,24.782520217323647,24.782520217323647,24.709439263620872,24.75613008803996,0.014987929557678544,-3.6000001430511475,0.0,0.0,0.0,0.0,0.0,0.0,,,,,
pylon_camera_1771861186601299042.png,1771861186601299042,1771861186.601299,42.300492960432926,-83.69863144528547,236.81268310546875,0.7125057014385577,0.7013865585126069,-0.019798401354938766,0.0007377392349376379,-0.0018000000000000004,0.01207,0.018850000000000002,-1.2504,-0.8308000000000001,-9.3163,10.865344704992077,24.30512418438498,30.479999542236328,30.439998626708984,30.489999771118164,30.479999542236328,24.750040653891677,24.717559541675033,24.758160931945838,24.750040653891677,24.743950445351057,0.018054886600744266,-3.6000001430511475,0.0,0.0,0.0,0.0,0.0,0.0,,,,,
pylon_camera_1771861186650324945.png,1771861186650324945,1771861186.650325,42.30049490909758,-83.69863145528298,236.81353759765625,0.7127452642110418,0.7011731644913799,-0.0187098383799042,0.0005689373202146655,-0.03602,0.06046000000000001,0.019290000000000005,-0.9331,0.11860000000000001,-9.7811,10.83662204350488,24.240873313997806,30.399999618530273,30.3799991607666,30.44999885559082,30.439998626708984,24.685079978243067,24.66883942213474,24.725679819729198,24.717559541675033,24.699289690445507,0.018910885367442197,-3.6000001430511475,0.0,0.0,0.0,0.0,0.0,0.0,,,,,
pylon_camera_1771861186699547841.png,1771861186699547841,1771861186.699548,42.30050075200272,-83.69863148667196,236.81605529785156,0.7131502920524716,0.7008271886881281,-0.016059525353874914,-6.470222370343271e-05,-0.04164000000000001,0.08345000000000001,0.015220000000000003,-0.2664,0.2672,-9.6677,10.816452799119352,24.195755924462045,30.349998474121094,30.31999969482422,30.34000015258789,30.3799991607666,24.64447858797226,24.620119302594453,24.63635985870277,24.66883942213474,24.642449292851055,0.018461641363202885,-3.6000001430511475,0.0,0.0,0.0,0.0,0.0,0.0,,,,,
pylon_camera_1771861186751177758.png,1771861186751177758,1771861186.7511778,42.300506587530165,-83.69863151755811,236.81814575195312,0.713518795161351,0.7004897088036226,-0.014295098915691962,-0.0008642677250855174,-0.009930000000000001,0.06882,0.021500000000000002,-0.0655,0.9662000000000001,-9.4174,10.815294997956135,24.193165992727998,30.229999542236328,30.229999542236328,30.170000076293945,30.06999969482422,24.54703834889168,24.54703834889168,24.498318229351387,24.41711699759445,24.5023779811823,0.012780964200685606,-3.6000001430511475,0.0,0.0,0.0,0.0,0.0,0.0,,,,,
pylon_camera_1771861186803858936.png,1771861186803858936,1771861186.803859,42.30051242419906,-83.6986315202229,236.82015991210938,0.7137863408584065,0.7002226076586462,-0.013882033754824292,-0.0021560302693548927,0.03307,0.030040000000000004,0.010520000000000002,-0.094,0.226,-10.054300000000001,10.817160968690699,24.197340057302974,30.229999542236328,30.010000228881836,30.189998626708984,30.09000015258789,24.54703834889168,24.368396878054163,24.514557236675035,24.433357553702773,24.465837504330914,0.011096155461389446,-3.4000000953674316,0.0,0.0,0.0,0.0,0.0,0.0,,,,,
pylon_camera_1771861186862984890.png,1771861186862984890,1771861186.862985,42.30051631805141,-83.69863150542871,236.8228302001953,0.7139271848198738,0.7000652112896836,-0.014444903038155033,-0.002831870992573707,0.007550000000000001,-0.028090000000000004,0.00524,-0.16620000000000001,-0.8580000000000001,-12.3309,10.825770141075864,24.216598259378245,30.1299991607666,30.01999855041504,30.139999389648438,30.03999900817871,24.465837117134743,24.376515607323647,24.473957395188904,24.39275616343197,24.427266570769817,0.0086993354365941,-3.299999952316284,0.0,0.0,0.0,0.0,0.0,0.0,,,,,
pylon_camera_1771861186901788727.png,1771861186901788727,1771861186.9017887,42.3005202115117,-83.69863148902006,236.8292999267578,0.7140201905861762,0.6999639217611844,-0.01485781092448199,-0.0022183603214040123,-0.010960000000000001,-0.06244,0.00837,0.0413,-0.2379,-11.6295,10.829858291644863,24.22574320691206,30.059999465942383,29.969999313354492,30.09000015258789,30.029998779296875,24.408996719540294,24.33591576583752,24.433357553702773,24.384635885377808,24.390726481114598,0.006810246141611235,-3.299999952316284,0.0,0.0,0.0,0.0,0.0,0.0,,,,,
pylon_camera_1771861186952158420.png,1771861186952158420,1771861186.9521585,42.30052800277756,-83.69863146682901,236.84889221191406,0.7142980587711623,0.6996525156738563,-0.016262509731866708,0.00041391329290526744,-0.008350000000000002,-0.08622,0.013600000000000001,-0.6348,-0.4378,-9.8148,10.809045105116668,24.179185357439682,30.09000015258789,30.059999465942383,30.119998931884766,30.079999923706055,24.433357553702773,24.408996719540294,24.457716839080582,24.425237275648612,24.431327096993066,0.01042804940803361,-3.299999952316284,0.0,0.0,0.0,0.0,0.0,0.0,,,,,
pylon_camera_1771861187003018342.png,1771861187003018342,1771861187.0030181,42.30052994318012,-83.69863146002837,236.8538055419922,0.7145061609725946,0.6994185961278885,-0.01710492083028315,0.0014124468443691032,0.008730000000000002,-0.04471000000000001,0.01485,-0.6187,0.2641,-8.6813,10.781964963476845,24.118608705399897,29.92999839782715,30.03999900817871,30.189998626708984,29.969999313354492,24.303434653620872,24.39275616343197,24.514557236675035,24.33591576583752,24.38666595489135,0.011114125726142612,-3.200000047683716,0.0,0.0,0.0,0.0,0.0,0.0,,,,,
pylon_camera_1771861187061247283.png,1771861187061247283,1771861187.0612473,42.300535760038926,-83.69863143098432,236.8659210205078,0.7147566729459899,0.6991377992469472,-0.01806952498486107,0.0016517899792966198,0.024,-0.00128,0.01068,-0.8522000000000001,-0.3546,-8.179,10.7426456195176,24.0306536921237,30.149999618530273,29.969999313354492,30.079999923706055,29.969999313354492,24.48207767324307,24.33591576583752,24.425237275648612,24.33591576583752,24.39478662014168,0.015152851548825272,-3.0,0.0,0.0,0.0,0.0,0.0,0.0,,,,,
pylon_camera_1771861187104833506.png,1771861187104833506,1771861187.1048336,42.30054155548185,-83.6986313956873,236.8728485107422,0.7149225638904172,0.6989704002089296,-0.018002059834398818,0.0014258730097699355,0.0012200000000000002,0.021310000000000003,0.010440000000000001,-0.6362,-0.1183,-8.4067,10.71963809551777,23.97918724138752,30.10999870300293,30.029998779296875,30.01999855041504,29.90999984741211,24.44959656102642,24.384635885377808,24.376515607323647,24.287195646297228,24.374485925006276,0.016485074312130085,-2.799999952316284,0.0,0.0,0.0,0.0,0.0,0.0,,,,,
pylon_camera_1771861187157189291.png,1771861187157189291,1771861187.1571894,42.30054540768361,-83.69863136834105,236.87522888183594,0.7151327107703115,0.6987772239894081,-0.017178780611628107,0.0006976508150857702,-0.007820000000000002,0.07831000000000002,0.01088,-0.2361,-0.10880000000000001,-8.2429,10.684310112637926,23.900160663364282,29.939998626708984,29.889999389648438,29.869998931884766,29.939998626708984,24.311554931675033,24.270955090188902,24.254714534080584,24.311554931675033,24.287194871904887,0.01619379107914853,-2.700000047683716,0.0,0.0,0.0,0.0,0.0,0.0,,,,,
pylon_camera_1771861187206791217.png,1771861187206791217,1771861187.2067912,42.300551173267074,-83.69863132481248,236.87635803222656,0.7153358176337284,0.6985938480781819,-0.01616318654468233,-0.00023417584242448278,-0.022910000000000003,0.08753000000000001,0.012350000000000002,-0.7194,-0.5875,-9.2955,10.669515470962523,23.867065937614907,29.920000076293945,29.779998779296875,29.959999084472656,29.8799991607666,24.29531592435139,24.18163358037781,24.32779548778336,24.262834812134745,24.266894951161824,0.01675233204584144,-2.700000047683716,0.0,0.0,0.0,0.0,0.0,0.0,,,,,
pylon_camera_1771861187254821975.png,1771861187254821975,1771861187.2548218,42.30055501226146,-83.698631295591,236.87771606445312,0.715540851931409,0.6983999881301711,-0.01543680433581943,-0.0006714677563835018,-0.0009800000000000002,0.032330000000000005,0.013310000000000002,-1.0293,0.2674,-10.756,10.664008366887414,23.854746876225132,29.81999969482422,29.829999923706055,29.78999900817871,29.760000228881836,24.214114692594453,24.222234970648614,24.18975385843197,24.165394573054165,24.1978745236823,0.014384040595255625,-2.700000047683716,0.0,0.0,0.0,0.0,0.0,0.0,,,,,
pylon_camera_1771861187305610223.png,1771861187305610223,1771861187.3056102,42.300560772546135,-83.6986312403402,236.88121032714844,0.7157280104509,0.6982104584850659,-0.015292401787611157,-0.0013088795347840983,0.026510000000000006,0.016550000000000002,0.00459,-0.099,-0.1164,-10.9685,10.66282446385917,23.852098556185133,29.849998474121094,29.65999984741211,29.729999542236328,29.5,24.23847397797226,24.08419334129723,24.14103373889168,23.95427199,24.10449326204029,0.010581656170027327,-2.6000001430511475,0.0,0.0,0.0,0.0,0.0,0.0,,,,,
pylon_camera_1771861187355445142.png,1771861187355445142,1771861187.3554451,42.300566528907375,-83.69863118207707,236.88671875,0.7158636582164728,0.6980682838465325,-0.015446252051907491,-0.0011433416089888452,-0.009510000000000001,-0.01862,0.006360000000000001,-0.3791,-0.4677,-10.903,10.659398907826791,23.844435792874062,29.76999855041504,29.6299991607666,29.739999771118164,29.53999900817871,24.17351330232365,24.059832507134743,24.14915401694584,23.98675155343197,24.09231284495905,0.010395593095101295,-2.6000001430511475,0.0,0.0,0.0,0.0,0.0,0.0,,,,,
pylon_camera_1771861187409201395.png,1771861187409201395,1771861187.4092014,42.30056844898167,-83.69863116149465,236.8891143798828,0.7159800291354589,0.6979435949778463,-0.01571900093756828,-0.000499117333064556,-0.00429,-0.03916,0.007560000000000001,-0.3805,0.2687,-11.267900000000001,10.657706911797195,23.84065089927562,29.639999389648438,29.56999969482422,29.78999900817871,29.59000015258789,24.067952785188904,24.011112387594455,24.18975385843197,24.027352943702773,24.074042993729527,0.009789669562293683,-2.5,0.0,0.0,0.0,0.0,0.0,0.0,,,,,
pylon_camera_1771861187459379175.png,1771861187459379175,1771861187.4593792,42.30057419929363,-83.69863109531487,236.89938354492188,0.7161359098486302,0.6977577781472432,-0.016833313952206812,0.0002849590911013113,0.04531000000000001,-0.07291,-0.0006600000000000001,-0.9598000000000001,-0.0067,-9.3865,10.639741019702207,23.800462276612656,29.59000015258789,29.510000228881836,29.639999389648438,29.69999885559082,24.027352943702773,23.962392268054163,24.067952785188904,24.116672904729196,24.043592725418762,0.010215366658865958,-2.200000047683716,0.0,0.0,0.0,0.0,0.0,0.0,,,,,
pylon_camera_1771861187509283130.png,1771861187509283130,1771861187.509283,42.300579938271746,-83.69863101753745,236.91038513183594,0.716314806507674,0.6975440612918511,-0.018026870323831372,0.0006422465815754461,0.025360000000000004,-0.021370000000000004,0.0013000000000000002,-0.1776,-2.2640000000000002,-10.379000000000001,10.614834667463446,23.744748261035685,29.69999885559082,29.619998931884766,29.670000076293945,29.60999870300293,24.116672904729196,24.051712229080582,24.092313619351387,24.043591951026425,24.0760726760469,0.013953587183524928,-2.200000047683716,0.0,0.0,0.0,0.0,0.0,0.0,,,,,
pylon_camera_1771861187561105501.png,1771861187561105501,1771861187.5611055,42.3005837542664,-83.6986309662734,236.9169464111328,0.7165375501752524,0.6972997699106825,-0.01861000042807947,0.0007987211174414801,0.014710000000000003,-0.023560000000000005,0.008280000000000001,-0.6829000000000001,-0.7414000000000001,-9.3828,10.588242237710565,23.685262591224273,29.639999389648438,29.51999855041504,29.59000015258789,29.60999870300293,24.067952785188904,23.97051099732365,24.027352943702773,24.043591951026425,24.02735216931044,0.014443140614067589,-2.200000047683716,0.0,0.0,0.0,0.0,0.0,0.0,,,,,
pylon_camera_1771861187618034404.png,1771861187618034404,1771861187.6180344,42.300589464242485,-83.69863089513787,236.92449951171875,0.7168660073549113,0.6969790141470863,-0.017961247087161594,0.0008803071383186444,-0.01718,0.053910000000000007,0.011070000000000002,-0.21100000000000002,-0.7505000000000001,-8.553600000000001,10.551447722656263,23.602955468718704,29.60999870300293,29.479999542236328,29.549999237060547,29.42999839782715,24.043591951026425,23.93803143389168,23.99487183148613,23.897430043620872,23.968481315006276,0.01548644392317765,-2.200000047683716,0.0,0.0,0.0,0.0,0.0,0.0,,,,,
pylon_camera_1771861187669698128.png,1771861187669698128,1771861187.669698,42.30059515912647,-83.69863083791394,236.9285888671875,0.7170864787364775,0.6967775004159861,-0.01694699670045991,0.0009466943563597827,-0.012430000000000002,0.04132000000000001,0.0060300000000000015,-0.3589,0.3191,-9.108,10.53721479326719,23.571117259651107,29.459999084472656,29.69999885559082,29.439998626708984,29.439998626708984,23.92179087778336,24.116672904729196,23.905550321675033,23.905550321675033,23.962391106465656,0.016599715766733268,-2.1000001430511475,0.0,0.0,0.0,0.0,0.0,0.0,,,,,
pylon_camera_1771861187719007245.png,1771861187719007245,1771861187.7190073,42.30059895025377,-83.6986307905451,236.93017578125,0.7172312012725439,0.6966386942925432,-0.01653584924391393,0.0007065587779942286,-0.004200000000000001,0.019650000000000004,0.012900000000000002,-0.6684,0.43360000000000004,-9.7219,10.530172742007784,23.555364613506892,29.51999855041504,29.399999618530273,29.489999771118164,29.31999969482422,23.97051099732365,23.873070758243063,23.946151711945838,23.808110082594453,23.89946088752675,0.014607979102244482,-1.8000000715255737,0.0,0.0,0.0,0.0,0.0,0.0,,,,,
pylon_camera_1771861187768348487.png,1771861187768348487,1771861187.7683485,42.30060463178793,-83.6986307086837,236.9320831298828,0.7173867024189347,0.696483595206952,-0.01633554048441751,0.0002663027744758729,0.013740000000000002,0.010450000000000001,0.004090000000000001,-0.1958,-0.1439,-9.7522,10.524053746125382,23.541676786857714,29.439998626708984,29.53999900817871,29.439998626708984,29.25,23.905550321675033,23.98675155343197,23.905550321675033,23.751269685,23.887280470445507,0.014680504142369695,-1.2000000476837158,0.0,0.0,0.0,0.0,0.0,0.0,,,,,
pylon_camera_1771861187812961349.png,1771861187812961349,1771861187.8129613,42.30060841772705,-83.69863064768232,236.9335174560547,0.7174410312363916,0.6964232510947552,-0.016522673156693174,0.00015265920060172672,0.029370000000000004,-0.010780000000000001,0.00427,-1.3185,0.5453,-9.678,10.517817149595462,23.527725894616076,29.399999618530273,29.25,29.369998931884766,29.28999900817871,23.873070758243063,23.751269685,23.848709924080584,23.78374924843197,23.814199903938906,0.012176017801549846,-0.699999988079071,0.0,0.0,0.0,0.0,0.0,0.0,,,,,
pylon_camera_1771861187862531012.png,1771861187862531012,1771861187.8625312,42.30061408976862,-83.69863054366004,236.93716430664062,0.717550976337365,0.6963018513645838,-0.016861894402465848,6.826937475015141e-05,0.018750000000000003,-0.00135,0.009880000000000002,-1.3993,0.1841,-10.634,10.498014062215683,23.48342757633275,29.369998931884766,29.17999839782715,29.349998474121094,29.329999923706055,23.848709924080584,23.694427738620874,23.83246936797226,23.816230360648614,23.79795934783058,0.01339377612043412,-0.20000000298023224,0.0,0.0,0.0,0.0,0.0,0.0,,,,,
pylon_camera_1771861187911703939.png,1771861187911703939,1771861187.911704,42.300615975102254,-83.69863050828994,236.93939208984375,0.7176761072911191,0.696159682718322,-0.017398243614095442,4.795973442611495e-05,0.015500000000000002,-0.011680000000000003,0.0030100000000000005,-1.2750000000000001,-0.5654,-10.0204,10.474511127913916,23.430852922475754,29.279998779296875,29.10999870300293,29.369998931884766,29.229999542236328,23.77562897037781,23.63758734102642,23.848709924080584,23.73502912889168,23.749238841094122,0.013588319625913423,0.30000001192092896,0.0,0.0,0.0,0.0,0.0,0.0,,,,,
pylon_camera_1771861187970726999.png,1771861187970726999,1771861187.970727,42.3006235076239,-83.6986303658735,236.94964599609375,0.7177915455781646,0.696032010797049,-0.01774082969457043,2.0184696053759526e-06,0.034420000000000006,-0.028520000000000004,0.005680000000000001,-0.8564,-0.7003,-10.767900000000001,10.461461686285567,23.401662104519637,29.19999885559082,29.09000015258789,29.209999084472656,29.78999900817871,23.710668294729196,23.621348333702773,23.718788572783353,24.18975385843197,23.810139764911824,0.01745507043763768,0.6000000238418579,0.0,0.0,0.0,0.0,0.0,0.0,,,,,
pylon_camera_1771861188024795624.png,1771861188024795624,1771861188.0247955,42.300629147547,-83.69863026544776,236.9578094482422,0.7178625038913746,0.6959606606710119,-0.01766825176018876,0.00013109123954565852,0.01403,-0.01946,0.0008400000000000001,-0.7276,0.7407,-9.9482,10.45062891391355,23.377429842689775,29.149999618530273,29.19999885559082,29.15999984741211,29.17999839782715,23.670068453243065,23.710668294729196,23.678188731297226,23.694427738620874,23.68833830447259,0.013299514269745029,0.699999988079071,0.0,0.0,0.0,0.0,0.0,0.0,,,,,
pylon_camera_1771861188073507858.png,1771861188073507858,1771861188.0735078,42.30063290386969,-83.69863019511322,236.96243286132812,0.717966750513265,0.6958548618700765,-0.017596212555656483,0.00036010123035091286,-0.011730000000000003,-0.03595000000000001,0.011860000000000002,-0.9159,1.9635,-9.042300000000001,10.427696246157627,23.326130840879845,29.279998779296875,29.09000015258789,29.19999885559082,29.1299991607666,23.77562897037781,23.621348333702773,23.710668294729196,23.653827897134743,23.69036837398613,0.015615000001112269,1.0,0.0,0.0,0.0,0.0,0.0,0.0,,,,,
pylon_camera_1771861188124610753.png,1771861188124610753,1771861188.124611,42.30063665539109,-83.69863012842922,236.96620178222656,0.7179220652787387,0.6959006998112116,-0.01761024774234979,5.798818676103666e-05,-0.016150000000000005,-0.0020800000000000003,0.006670000000000001,-0.9101,0.3527,-10.2497,10.413849929908311,23.2951574622091,29.10999870300293,29.15999984741211,29.19999885559082,29.01999855041504,23.63758734102642,23.678188731297226,23.710668294729196,23.56450638732365,23.647737688594123,0.01513534420005534,1.2000000476837158,0.0,0.0,0.0,0.0,0.0,0.0,,,,,
pylon_camera_1771861188175579518.png,1771861188175579518,1771861188.1755793,42.3006422688687,-83.6986300173164,236.97091674804688,0.7179526224490091,0.6958645981483259,-0.017780567416389906,-0.0005868430886237896,0.02187,0.018540000000000004,0.009830000000000002,-0.37220000000000003,1.0905,-9.0603,10.398102668125574,23.259931782436823,29.049999237060547,29.03999900817871,28.989999771118164,29.119998931884766,23.58886722148613,23.58074694343197,23.54014710194584,23.645707619080586,23.588867221486133,0.014141719852234638,1.7000000476837158,0.0,0.0,0.0,0.0,0.0,0.0,,,,,
pylon_camera_1771861188225566285.png,1771861188225566285,1771861188.2255661,42.30064600441162,-83.69862993987014,236.9738006591797,0.7178691122938321,0.6959438806470107,-0.018032051887159888,-0.0009474751624788294,-0.00289,-0.00415,0.0072000000000000015,-0.8310000000000001,1.4147,-9.6148,10.380826869493623,23.221286857445065,29.15999984741211,28.959999084472656,29.0,28.889999389648438,23.678188731297226,23.515786267783355,23.54826738,23.458945870188906,23.55029706231737,0.014168474249170176,2.0,0.0,0.0,0.0,0.0,0.0,0.0,,,,,
pylon_camera_1771861188264755215.png,1771861188264755215,1771861188.2647552,42.30065160536483,-83.69862981924804,236.97833251953125,0.7177604171345845,0.6960537724782632,-0.018112518631385605,-0.001032512660092871,-0.031070000000000004,0.0010500000000000002,-0.0004700000000000001,-1.5118,-2.0024,-10.7997,10.368283166931326,23.19322734743536,28.8799991607666,29.059999465942383,28.94999885559082,29.03999900817871,23.450825592134745,23.59698749954029,23.507665989729194,23.58074694343197,23.534056506209048,0.01469520190821459,2.4000000953674316,0.0,0.0,0.0,0.0,0.0,0.0,,,,,
pylon_camera_1771861188315497388.png,1771861188315497388,1771861188.3154974,42.30065533515761,-83.69862974679337,236.9817352294922,0.7177279972819658,0.69609109548651,-0.01797607948734594,-0.0007544986903584509,-0.03257,0.007020000000000001,0.00858,-0.9690000000000001,-0.46080000000000004,-10.2095,10.351419403076667,23.155504119518323,28.94999885559082,28.94999885559082,28.889999389648438,29.06999969482422,23.507665989729194,23.507665989729194,23.458945870188906,23.605107777594455,23.519846406810437,0.015734586706104208,2.9000000953674316,0.0,0.0,0.0,0.0,0.0,0.0,,,,,
pylon_camera_1771861188374374839.png,1771861188374374839,1771861188.3743749,42.300660922218846,-83.69862963255285,236.9879608154297,0.7176133681380632,0.6962008232926088,-0.018300897403694616,-0.0007380179248446968,-0.005220000000000001,-0.0004900000000000001,0.0014900000000000002,-0.40890000000000004,0.8490000000000001,-9.442300000000001,10.3372437248441,23.123793977852763,28.84000015258789,28.849998474121094,28.939998626708984,28.989999771118164,23.418346028702775,23.42646475797226,23.499545711675033,23.54014710194584,23.47112590007398,0.015020542154712109,3.1000001430511475,0.0,0.0,0.0,0.0,0.0,0.0,,,,,
pylon_camera_1771861188418824904.png,1771861188418824904,1771861188.418825,42.30066464612601,-83.69862955430995,236.99212646484375,0.717480130439513,0.6963285314586496,-0.01865613947243199,-0.0008872210125570816,0.01973,-0.0091,-0.00868,-0.6352,-1.104,-10.0565,10.332012468490765,23.112091971265734,28.84000015258789,28.849998474121094,28.920000076293945,28.989999771118164,23.418346028702775,23.42646475797226,23.48330670435139,23.54014710194584,23.467066148243063,0.015358807736601827,3.0,0.0,0.0,0.0,0.0,0.0,0.0,,,,,
pylon_camera_1771861188468369056.png,1771861188468369056,1771861188.4683692,42.300670217647095,-83.69862944253329,236.99880981445312,0.7173404104971334,0.6964646313338794,-0.01894752359187194,-0.0008626230364541163,0.0030600000000000007,-0.029940000000000005,-0.005450000000000001,-0.6173000000000001,0.2737,-9.376800000000001,10.317783147525452,23.080261834025585,28.78999900817871,28.799999237060547,28.799999237060547,28.869998931884766,23.37774463843197,23.38586491648613,23.38586491648613,23.442705314080584,23.398044946371204,0.013768609499790615,2.700000047683716,0.0,0.0,0.0,0.0,0.0,0.0,,,,,
pylon_camera_1771861188517780299.png,1771861188517780299,1771861188.5177803,42.30067392368745,-83.69862936673854,237.00318908691406,0.7170638393587629,0.6967376396812152,-0.019364002537180097,-0.001071046805406198,0.021440000000000004,-0.0014700000000000002,-0.018730000000000004,-0.1978,0.10930000000000001,-9.8419,10.297958029077737,23.035914233565155,28.739999771118164,28.829999923706055,28.889999389648438,28.829999923706055,23.33714479694584,23.410225750648614,23.458945870188906,23.410225750648614,23.404135542107994,0.01598466224562999,2.4000000953674316,0.0,0.0,0.0,0.0,0.0,0.0,,,,,
pylon_camera_1771861188576436297.png,1771861188576436297,1771861188.5764363,42.30067948111647,-83.69862926055286,237.0091552734375,0.7168693304655234,0.6969295911029508,-0.01965716844723838,-0.0010506243967437826,0.006270000000000001,-0.01386,-0.007980000000000001,-0.6022000000000001,-0.0869,-9.189,10.282298722284409,23.000885303826887,28.69999885559082,28.760000228881836,28.649999618530273,28.799999237060547,23.304663684729196,23.35338535305416,23.264063843243065,23.38586491648613,23.326994449378137,0.014178112765815666,1.600000023841858,0.0,0.0,0.0,0.0,0.0,0.0,,,,,
pylon_camera_1771861188627115293.png,1771861188627115293,1771861188.6271152,42.30068502868919,-83.69862917706077,237.01402282714844,0.7166141818812425,0.6972007531272546,-0.019353471164289128,-0.0008168961742657926,-0.007230000000000001,0.024190000000000003,-0.016530000000000003,0.046700000000000005,-1.3031000000000001,-8.9138,10.266097104359908,22.964643256626854,28.689998626708984,28.760000228881836,28.799999237060547,28.719999313354492,23.296543406675035,23.35338535305416,23.38586491648613,23.32090424083752,23.33917447926321,0.01630903726441642,0.699999988079071,0.0,0.0,0.0,0.0,0.0,0.0,,,,,
pylon_camera_1771861188680324945.png,1771861188680324945,1771861188.6803248,42.30069056281866,-83.69862910791234,237.0174560546875,0.7164810046406949,0.6973508206067501,-0.01888292540840444,-0.0004879714882315567,-0.017350000000000004,0.009700000000000002,-0.00786,-0.639,-0.1824,-10.108,10.250887419726526,22.930620104683058,28.68000030517578,28.68000030517578,28.489999771118164,28.670000076293945,23.28842467740555,23.28842467740555,23.13414249194584,23.28030439935139,23.247824061527083,0.013833204483608525,0.10000000149011612,0.0,0.0,0.0,0.0,0.0,0.0,,,,,
pylon_camera_1771861188719532373.png,1771861188719532373,1771861188.7195323,42.30069240901045,-83.6986290861114,237.0186004638672,0.7163953153326561,0.6974445856511607,-0.018671290100680644,-0.00043016424911484764,-0.021220000000000006,-0.012100000000000001,-0.004300000000000001,-0.5114000000000001,-0.7558,-9.8373,10.241091642190053,22.90870753808062,28.56999969482422,28.719999313354492,28.69999885559082,28.6299991607666,23.199103167594455,23.32090424083752,23.304663684729196,23.247823287134747,23.26812359507398,0.015689058686349355,-0.10000000149011612,0.0,0.0,0.0,0.0,0.0,0.0,,,,,
pylon_camera_1771861188779885009.png,1771861188779885009,1771861188.779885,42.30069793390461,-83.69862902443792,237.0222625732422,0.716329042411145,0.6975176202599528,-0.018479335673080848,-0.0006217542166204899,-0.00192,-0.00496,-0.0011,-1.0988,-0.2831,-9.6407,10.217487359679685,22.855906174361877,28.51999855041504,28.59000015258789,28.649999618530273,28.59000015258789,23.158501777323647,23.215343723702777,23.264063843243065,23.215343723702777,23.213313266993065,0.01563740636247895,-0.4000000059604645,0.0,0.0,0.0,0.0,0.0,0.0,,,,,
pylon_camera_1771861188831554816.png,1771861188831554816,1771861188.831555,42.30070344966966,-83.69862896069719,237.02642822265625,0.7163119600449792,0.6975394584173619,-0.01831358048706329,-0.0007018668516456163,-0.012340000000000002,-0.02034,0.00169,-1.1709,0.0329,-9.4765,10.208549312751845,22.835912299667115,28.469999313354492,28.53999900817871,28.529998779296875,28.51999855041504,23.117901935837516,23.17474233343197,23.16662205537781,23.158501777323647,23.154442025492738,0.013948631508374935,-1.3000000715255737,0.0,0.0,0.0,0.0,0.0,0.0,,,,,
pylon_camera_1771861188881172077.png,1771861188881172077,1771861188.881172,42.300708958304504,-83.69862889921023,237.03106689453125,0.7163106841016679,0.6975466079812636,-0.01809260691746967,-0.0006253883304923417,-0.020370000000000003,-0.006470000000000001,0.005640000000000001,-0.5860000000000001,-0.3917,-9.800500000000001,10.202423309388816,22.82220879770422,28.529998779296875,28.529998779296875,28.529998779296875,28.529998779296875,23.16662205537781,23.16662205537781,23.16662205537781,23.16662205537781,23.16662205537781,0.015091144802261045,-2.700000047683716,0.0,0.0,0.0,0.0,0.0,0.0,,,,,
pylon_camera_1771861188921300368.png,1771861188921300368,1771861188.9213004,42.30071079151749,-83.69862887821378,237.03302001953125,0.716328887096993,0.6975269498927928,-0.018135460582348384,-0.0004298291597416524,0.0026300000000000004,-0.015600000000000003,-4e-05,-0.1072,-0.7886000000000001,-10.092,10.196939186647075,22.80994114417831,28.51999855041504,28.489999771118164,28.53999900817871,28.439998626708984,23.158501777323647,23.13414249194584,23.17474233343197,23.093541101675036,23.140231926094124,0.014480124250566618,-3.6000001430511475,0.0,0.0,0.0,0.0,0.0,0.0,,,,,
pylon_camera_1771861188980256933.png,1771861188980256933,1771861188.980257,42.30071629299536,-83.69862881669896,237.0388641357422,0.7163936113532231,0.6974491325638927,-0.018571360784569863,-7.521150227931458e-05,0.011600000000000003,-0.024020000000000003,0.0022600000000000003,-0.5244,-1.0328,-9.728200000000001,10.18138168655243,22.775139949916593,28.5,28.459999084472656,28.469999313354492,28.51999855041504,23.142262770000002,23.109781657783355,23.117901935837516,23.158501777323647,23.13211203523613,0.01567376034151853,-4.400000095367432,0.0,0.0,0.0,0.0,0.0,0.0,,,,,
pylon_camera_1771861189034752435.png,1771861189034752435,1771861189.0347526,42.30072178399002,-83.69862875333166,237.0446014404297,0.7165183336971962,0.6973139588096058,-0.018834006363249146,-2.3008214866839897e-05,0.01641,-0.006720000000000001,0.005660000000000001,-0.1432,-0.548,-9.740300000000001,10.16415406318521,22.736602790101525,28.510000228881836,28.35999870300293,28.5,28.389999389648438,23.15038304805416,23.02858042602642,23.142262770000002,23.052941260188906,23.09354187606737,0.01569887503691799,-5.400000095367432,0.0,0.0,0.0,0.0,0.0,0.0,,,,,
pylon_camera_1771861189076212318.png,1771861189076212318,1771861189.0762122,42.30072543924615,-83.69862870777912,237.04820251464844,0.7166640003037821,0.6971610178667259,-0.01895325186311419,8.912029065422892e-06,0.00234,0.00591,0.010560000000000002,-0.7383000000000001,0.43910000000000005,-9.4968,10.14433809427157,22.692275656599847,28.389999389648438,28.229999542236328,28.43000030517578,28.369998931884766,23.052941260188906,22.923019908891682,23.08542237240555,23.03670070408058,23.02452106139168,0.01464134359284515,-6.300000190734863,0.0,0.0,0.0,0.0,0.0,0.0,,,,,
pylon_camera_1771861189124624877.png,1771861189124624877,1771861189.124625,42.300730912053616,-83.6986286371636,237.0535125732422,0.7169069222340401,0.6969119472393112,-0.018926235141580823,1.647401852992594e-05,-0.009500000000000001,-0.00068,0.01964,-0.6788000000000001,0.4652,-10.0744,10.129876235277498,22.659925345741648,28.389999389648438,28.229999542236328,28.389999389648438,28.309999465942383,23.052941260188906,22.923019908891682,23.052941260188906,22.987980584540292,23.004220753452447,0.015194022153982984,-7.599999904632568,0.0,0.0,0.0,0.0,0.0,0.0,,,,,
pylon_camera_1771861189176546514.png,1771861189176546514,1771861189.1765466,42.30073455178265,-83.698628585183,237.05743408203125,0.7171936487992536,0.6966179207963593,-0.018887611289505057,2.621347813620597e-05,-0.006560000000000001,0.0008300000000000001,0.022800000000000004,-0.7642,0.5141,-9.5601,10.117068670132022,22.631275590965128,28.40999984741211,28.25,28.369998931884766,28.349998474121094,23.069181816297224,22.939260465,23.03670070408058,23.020460147972262,23.016400783337513,0.01701738776607603,-9.0,0.0,0.0,0.0,0.0,0.0,0.0,,,,,
pylon_camera_1771861189234949767.png,1771861189234949767,1771861189.2349498,42.30074183597689,-83.69862847198016,237.06369018554688,0.7176958989738172,0.6960892325967418,-0.019297057723712346,2.0548749861502533e-05,0.013310000000000002,-0.00529,0.024420000000000004,-0.317,0.39530000000000004,-9.286800000000001,10.109032373067272,22.613298876609104,28.44999885559082,28.229999542236328,28.369998931884766,28.229999542236328,23.101661379729194,22.923019908891682,23.03670070408058,22.923019908891682,22.996100475398286,0.016928162532939734,-11.100000381469727,0.0,0.0,0.0,0.0,0.0,0.0,,,,,
pylon_camera_1771861189283263410.png,1771861189283263410,1771861189.2832634,42.30074546770246,-83.69862841403378,237.06637573242188,0.7181891882951876,0.6955828108482257,-0.019204415538744263,0.0001830087327161684,-0.008230000000000001,0.010460000000000002,0.029630000000000004,-0.338,0.43910000000000005,-9.2707,10.088555671597785,22.56749372402395,28.389999389648438,28.18000030517578,28.35999870300293,28.1299991607666,23.052941260188906,22.88242006740555,23.02858042602642,22.841818677134746,22.951440107688903,0.017013248717832885,-13.100000381469727,0.0,0.0,0.0,0.0,0.0,0.0,,,,,
pylon_camera_1771861189328962125.png,1771861189328962125,1771861189.328962,42.30074728392555,-83.69862838558406,237.0672149658203,0.7185140579241122,0.6952545560490586,-0.01893714703274689,0.00018793805414042615,-0.020810000000000002,0.022920000000000003,0.033170000000000005,-0.5835,-0.5811000000000001,-9.902800000000001,10.074678974775967,22.536452385835354,28.349998474121094,28.099998474121094,28.349998474121094,28.1299991607666,23.020460147972262,22.81745784297226,23.020460147972262,22.841818677134746,22.92504920401288,0.01724303415304917,-15.199999809265137,0.0,0.0,0.0,0.0,0.0,0.0,,,,,
pylon_camera_1771861189376602167.png,1771861189376602167,1771861189.3766022,42.30075452679374,-83.6986282550218,237.0718231201172,0.7193055442992452,0.6944537573057088,-0.018262331775619433,1.193597596383267e-05,-0.01984,0.02121,0.045470000000000003,-0.8312,0.09970000000000001,-10.3366,10.051839347438912,22.485361509860002,28.420000076293945,28.010000228881836,28.369998931884766,28.149999618530273,23.07730209435139,22.74437843805416,23.03670070408058,22.858059233243065,22.9291101174323,0.019734999918845524,-18.899999618530273,0.0,0.0,0.0,0.0,0.0,0.0,,,,,
pylon_camera_1771861189426967868.png,1771861189426967868,1771861189.4269679,42.3007581461779,-83.698628179938,237.07479858398438,0.7200744065125873,0.6936631807157957,-0.0180028677137739,-0.0003708892974827798,-0.0017300000000000002,0.021310000000000003,0.04975,-0.6899000000000001,-0.5649000000000001,-10.23,10.041695653275145,22.462670674637305,28.19999885559082,27.939998626708984,28.309999465942383,28.029998779296875,22.898659074729196,22.687536491675036,22.987980584540292,22.76061744537781,22.833698399080582,0.016517525000364523,-23.80000114440918,0.0,0.0,0.0,0.0,0.0,0.0,,,,,
pylon_camera_1771861189476488193.png,1771861189476488193,1771861189.476488,42.300763565130666,-83.69862804947857,237.0803985595703,0.7209790891513674,0.6927293208933815,-0.017743129901735412,-0.0006498633308835667,-0.00068,0.01365,0.05845000000000001,-0.7190000000000001,-0.3425,-9.5663,10.027697849953114,22.43135842847412,28.43000030517578,27.939998626708984,28.279998779296875,27.920000076293945,23.08542237240555,22.687536491675036,22.96361975037781,22.671297484351385,22.851969024702445,0.01875100866358619,-29.700000762939453,0.0,0.0,0.0,0.0,0.0,0.0,,,,,
pylon_camera_1771861189530898243.png,1771861189530898243,1771861189.530898,42.30076717106226,-83.69862795438515,237.0836181640625,0.7220359862303032,0.6916455496406188,-0.017022996545792386,-0.0008281541896279022,-0.025900000000000006,0.01666,0.06432000000000002,-0.3689,-0.6108,-10.225200000000001,10.019177869098508,22.41229974250122,28.35999870300293,27.899999618530273,28.260000228881836,27.829999923706055,23.02858042602642,22.655056928243066,22.94738074305416,22.598216530648617,22.807308656993065,0.017624648921805087,-35.900001525878906,0.0,0.0,0.0,0.0,0.0,0.0,,,,,
pylon_camera_1771861189589130911.png,1771861189589130911,1771861189.589131,42.30077257797951,-83.69862780217552,237.08847045898438,0.7237145912918493,0.6899150897794457,-0.015947590066157837,-0.00018334931848904972,-0.043730000000000005,-0.0036000000000000008,0.09204000000000001,-0.1527,-0.4395,-10.3101,10.009510027409528,22.39067336071347,28.25,27.670000076293945,28.309999465942383,27.670000076293945,22.939260465,22.468295179351387,22.987980584540292,22.468295179351387,22.715957852060768,0.014527677935672941,-42.70000076293945,0.0,0.0,0.0,0.0,0.0,0.0,,,,,
pylon_camera_1771861189628851097.png,1771861189628851097,1771861189.6288512,42.30077618236435,-83.6986276806803,237.09217834472656,0.7251118081441638,0.6884568348535642,-0.015489705804600597,0.0003482059738109568,-0.02034,-0.00525,0.10689000000000001,-0.0596,0.639,-10.189300000000001,10.001472472501622,22.37269383263778,28.309999465942383,27.639999389648438,28.25,27.670000076293945,22.987980584540292,22.443934345188907,22.939260465,22.468295179351387,22.70986764352015,0.015070773926673622,-47.20000076293945,0.0,0.0,0.0,0.0,0.0,0.0,,,,,
pylon_camera_1771861189678630025.png,1771861189678630025,1771861189.67863,42.30077978324739,-83.6986275486197,237.0963592529297,0.7272146397399817,0.6862364388953718,-0.015415549786617229,0.0008823292035892009,-0.00458,-0.013000000000000003,0.13177000000000003,-0.0076,0.8174,-9.712,9.987597015041505,22.341655266826944,28.34000015258789,27.649999618530273,28.25,27.56999969482422,23.012341418702775,22.452054623243065,22.939260465,22.38709394759445,22.697687613635072,0.01593580880897251,-53.0,0.0,160.0,0.0,0.0,0.0,0.0,,,,,
pylon_camera_1771861189729350743.png,1771861189729350743,1771861189.7293506,42.30078517779484,-83.69862730852081,237.10330200195312,0.7297032647847616,0.6835914128679785,-0.01528956637241281,0.0014679154487700597,-0.010780000000000001,-0.0031300000000000004,0.15063000000000001,-0.11330000000000001,1.0273,-9.603900000000001,9.968392942198033,22.29869690812047,28.369998931884766,27.44999885559082,28.349998474121094,27.510000228881836,23.03670070408058,22.289652159729197,23.020460147972262,22.338373828054163,22.671296709959048,0.016709487705664536,-59.900001525878906,0.0,256.0,0.0,0.0,0.0,0.0,,,,,
pylon_camera_1771861189779204018.png,1771861189779204018,1771861189.7792041,42.300788766757,-83.69862711669113,237.10816955566406,0.732525301612746,0.680574475701554,-0.014844034247179921,0.0021725947571385306,-0.038520000000000006,0.006310000000000001,0.17183,-0.006200000000000001,1.4123,-10.2255,9.952167254948153,22.262401019283722,28.389999389648438,27.260000228881836,28.209999084472656,27.44999885559082,23.052941260188906,22.13537152305416,22.906779352783357,22.289652159729197,22.596186073938906,0.014993219031768366,-68.0,0.0,300.0,0.0,0.0,0.0,0.0,,,,,
pylon_camera_1771861189830566296.png,1771861189830566296,1771861189.8305664,42.300794138946756,-83.69862678544813,237.11575317382812,0.7357300463196933,0.6771197170589691,-0.014160928097169258,0.003107382794312636,-0.06015000000000001,0.011170000000000003,0.20149000000000003,-0.6036,1.3709,-9.4915,9.92335896504056,22.19795860325783,28.349998474121094,27.229999542236328,28.309999465942383,27.260000228881836,23.020460147972262,22.111010688891678,22.987980584540292,22.13537152305416,22.5637057361146,0.01647661117824997,-77.20000457763672,0.0,308.0,0.0,0.0,0.0,0.0,,,,,
pylon_camera_1771861189880281246.png,1771861189880281246,1771861189.8802814,42.300797710565796,-83.69862652322418,237.12030029296875,0.739210367084486,0.6733307415681355,-0.013388880464310318,0.0038057238518456426,-0.03579,0.01276,0.21364000000000002,-0.5154,0.4066,-10.0821,9.906555838267876,22.160371016854942,28.260000228881836,26.979999542236328,28.329999923706055,27.1299991607666,22.94738074305416,21.908008383891676,23.004221140648614,22.029809457134743,22.4723549311823,0.014078460784346299,-87.5999984741211,0.0,308.0,0.0,0.0,0.0,0.0,,,,,
pylon_camera_1771861189940219797.png,1771861189940219797,1771861189.9402199,42.30080306622155,-83.69862606416383,237.12620544433594,0.7438736922347945,0.6681841665064328,-0.012742138594947909,0.0044144688361590695,-0.038630000000000005,0.0018900000000000002,0.25102,-1.2426000000000001,1.5774000000000001,-9.856900000000001,9.881803655810204,22.10500186982808,27.920000076293945,26.84000015258789,28.06999969482422,26.84000015258789,22.671297484351385,21.794327588702778,22.79309855759445,21.794327588702778,22.26326280483785,0.007159507877074072,-102.20000457763672,0.0,308.0,0.0,0.0,0.0,0.0,,,,,
pylon_camera_1771861189991427184.png,1771861189991427184,1771861189.9914272,42.30080839985548,-83.69862551015393,237.1313934326172,0.7481645720866797,0.6633805907823216,-0.012355311066746148,0.004828160736483785,-0.024550000000000002,-0.0004300000000000001,0.26968000000000003,-1.122,1.6052000000000002,-9.7852,9.860534759190493,22.057424624223582,28.149999618530273,26.729999542236328,28.1299991607666,26.799999237060547,22.858059233243065,21.705006078891678,22.841818677134746,21.76184647648613,22.2916826164389,0.010620369159419264,-114.5999984741211,0.0,332.0,0.0,0.0,0.0,0.0,,,,,
pylon_camera_1771861190044416508.png,1771861190044416508,1771861190.0444164,42.300811944356894,-83.69862509041545,237.1346435546875,0.7526771937622839,0.6582567473001413,-0.012088161127560011,0.005382655898868017,-0.020370000000000003,-0.01923,0.27410000000000007,-1.1258000000000001,1.9432,-9.8002,9.832749691012202,21.995271093812836,27.93000030517578,26.43000030517578,28.099998474121094,26.529998779296875,22.67941776240555,21.46140393240555,22.81745784297226,21.542603615377807,22.125220788290292,0.005908074236648576,-128.5,0.0,536.0,0.0,0.0,0.0,0.0,,,,,
pylon_camera_1771861190091555277.png,1771861190091555277,1771861190.0915554,42.30081723366123,-83.6986243632871,237.13931274414062,0.7575114619832406,0.6526950063199247,-0.011460909321883886,0.005853310735162326,-0.026150000000000007,-0.00319,0.2962600000000001,-0.3121,2.7806,-9.6425,9.789712191438662,21.898998789516803,27.25,26.31999969482422,27.899999618530273,26.469999313354492,22.127251245,21.372082422594453,22.655056928243066,21.49388349583752,21.912068522918762,0.0005968187645279908,-137.10000610351562,0.0,860.0,28.0,0.0,0.0,0.0,,,,,
pylon_camera_1771861190158475036.png,1771861190158475036,1771861190.158475,42.30082422832504,-83.69862321104983,237.14541625976562,0.7646600862033865,0.644322183200212,-0.010299415238720805,0.006148076876719997,-0.01881,0.031950000000000006,0.33498000000000006,-1.5347000000000002,3.4309000000000003,-10.4746,9.715649428447442,21.733324832471222,27.649999618530273,25.84000015258789,27.889999389648438,26.09000015258789,22.452054623243065,20.982318368702774,22.646936650188906,21.185320673702773,21.81665757895938,0.0038343303259173503,-149.8000030517578,0.0,1920.0,492.0,0.0,0.0,0.0,,,,,
pylon_camera_1771861190191646482.png,1771861190191646482,1771861190.1916466,42.300825974435874,-83.69862290493414,237.1471710205078,0.7678516845349328,0.6405252451900143,-0.009674249124927274,0.006132677637575801,-0.044360000000000004,0.02934,0.33471000000000006,-0.3211,0.9365,-10.449100000000001,9.691582816013966,21.679489264454283,27.3799991607666,25.53999900817871,27.6299991607666,25.65999984741211,22.23281176213474,20.738714673431968,22.435814067134743,20.83615646129723,21.560874240999674,0.00547130156101465,-154.8000030517578,0.0,2112.0,736.0,0.0,0.0,0.0,,,,,
pylon_camera_1771861190243333303.png,1771861190243333303,1771861190.2433333,42.300831154028714,-83.69862188486076,237.1531982421875,0.7744806719081693,0.632511982292973,-0.008051315018560878,0.006592224431593014,-0.06080000000000001,0.011270000000000002,0.3572,-2.4576000000000002,2.3237,-10.816,9.62155657534643,21.522844765655446,26.8799991607666,25.029998779296875,27.469999313354492,25.239999771118164,21.82680715213474,20.32458978537781,22.305892715837516,20.49511252694584,21.238100545073976,0.013229859885243564,-162.5,0.0,2260.0,1416.0,0.0,0.0,0.0,,,,,
pylon_camera_1771861190287817438.png,1771861190287817438,1771861190.2878175,42.300832867381395,-83.69862152121226,237.15553283691406,0.77787253065864,0.6283446278329752,-0.007234478859720756,0.006709473585222816,-0.00948,0.03581,0.35481000000000007,-0.4928,4.7843,-9.0359,9.589217544482517,21.450504293954722,25.829999923706055,24.719999313354492,27.15999984741211,25.010000228881836,20.974198090648613,20.07286736083752,22.054170291297226,20.30835077805416,20.85239663020938,0.02788315162892946,-169.90000915527344,0.0,2416.0,1536.0,0.0,0.0,0.0,,,,,
pylon_camera_1771861190344435178.png,1771861190344435178,1771861190.3444352,42.30083797974128,-83.69862033433226,237.1632080078125,0.7835329977267574,0.6212761587325275,-0.006888343374107908,0.006672839683138687,0.0159,0.029350000000000005,0.36729,-0.5974,4.2801,-9.697700000000001,9.517406526230266,21.28986735478553,25.43000030517578,23.51999855041504,26.69999885559082,24.549999237060547,20.64939471240555,19.098455677323646,21.680645244729195,19.93482573148613,20.34083034148613,0.04457693406370983,-179.1999969482422,0.0,2776.0,1712.0,0.0,0.0,0.0,,,,,
pylon_camera_1771861190384938970.png,1771861190384938970,1771861190.384939,42.300843035410026,-83.69861903664018,237.1718292236328,0.7904741787053261,0.6124171169705714,-0.0071378687892108455,0.006700632115112439,-0.00393,0.011360000000000002,0.3672000000000001,-0.2501,2.2848,-10.0214,9.424309104204003,21.0816140075581,25.920000076293945,22.189998626708984,26.6299991607666,23.420000076293945,21.047279044351388,18.018483476675033,21.623804847134743,19.017255994351387,19.926705840628138,0.05478272045564967,-186.1999969482422,0.0,2944.0,2112.0,0.0,0.0,0.0,,,,,
pylon_camera_1771861190436526853.png,1771861190436526853,1771861190.4365268,42.30084802413417,-83.69861765433404,237.18035888671875,0.7962534148519216,0.6048689977543936,-0.006710133613798935,0.008304757620434663,-0.10633000000000002,-0.018670000000000003,0.36611000000000005,-2.2560000000000002,2.2592000000000003,-9.7324,9.318107472910892,20.844047330453293,25.309999465942383,22.389999389648438,26.219999313354492,23.5,20.551952924540288,18.180885940188904,21.290881190837517,19.08221667,19.776484181391677,0.05121669185148602,-196.1999969482422,0.0,3072.0,2328.0,0.0,0.0,0.0,,,,,
pylon_camera_1771861190485923339.png,1771861190485923339,1771861190.4859233,42.300851310180114,-83.69861668559864,237.18606567382812,0.8020630031533417,0.5971201939793664,-0.006669729541077765,0.009895838647397187,-0.07920000000000002,-0.024040000000000002,0.37729000000000007,-3.9130000000000003,0.6694,-10.4026,9.205667778477553,20.59252648038758,25.559999465942383,22.559999465942383,25.829999923706055,21.85999870300293,20.754955229540293,18.318927569540293,20.974198090648613,17.75052049602642,19.449650346438904,0.055499558785909835,-206.6999969482422,0.0,3100.0,2440.0,0.0,0.0,0.0,,,,,
pylon_camera_1771861190540068756.png,1771861190540068756,1771861190.5400689,42.30085615838842,-83.69861516921046,237.19540405273438,0.8081150932219207,0.5888822084365961,-0.006386990895146007,0.01126707775198894,-0.03789000000000001,-0.045950000000000005,0.40481,-3.1582000000000003,1.7750000000000001,-10.4148,9.107047568911772,20.3719189888015,22.85999870300293,21.239999771118164,25.35999870300293,20.739999771118164,18.56252971602642,17.247075646945838,20.59255276602642,16.84107103694584,18.310807291486128,0.10117415538753963,-218.60000610351562,0.0,3100.0,2592.0,0.0,1.0,0.0,,,,,
pylon_camera_1771861190587026676.png,1771861190587026676,1771861190.5870266,42.30085933487531,-83.6986141382352,237.2017059326172,0.8147202518444233,0.5796772243359396,-0.004146429029609101,0.013712547066193227,-0.18272000000000002,-0.004320000000000001,0.48478000000000004,-2.3065,5.3238,-8.6624,8.956925777359668,20.036105548406937,20.56999969482422,20.10999870300293,25.420000076293945,20.0,16.703029407594453,16.32950436102642,20.641274434351388,16.2401844,17.478498150743064,0.12764992635343883,-230.8000030517578,0.0,3040.0,2704.0,1.0,1.0,0.0,,,,,
pylon_camera_1771861190641161149.png,1771861190641161149,1771861190.6411612,42.30086402192986,-83.69861249357324,237.21075439453125,0.8212716328348734,0.5703737396073529,-0.003047887451287184,0.013319633972035748,0.010530000000000001,0.04868000000000001,0.45271000000000006,-2.1968,3.3601,-10.3138,8.840619048219116,19.77593437372327,19.93000030517578,18.760000228881836,25.28999900817871,20.670000076293945,16.183344002405548,15.233293153054163,20.53571236843197,16.78423063935139,17.18414504081077,0.13105774341344248,-242.10000610351562,0.0,2120.0,2228.0,1.0,1.0,0.0,,,,,
pylon_camera_1771861190688261527.png,1771861190688261527,1771861190.6882617,42.30086709659617,-83.69861133233653,237.2165985107422,0.8275095706400735,0.5613471336044663,-0.003519127416491221,0.010243136011848062,0.14887000000000003,0.02721,0.42413000000000006,-2.5558,1.4774,-10.024700000000001,8.735512881005677,19.54081818403684,20.31999969482422,18.889999389648438,24.889999389648438,20.43000030517578,16.50002710259445,15.338853670188904,20.210908990188905,16.589348612405548,17.159784593844453,0.12184922697543374,-249.0,0.0,1128.0,1996.0,1.0,1.0,0.0,,,,,
pylon_camera_1771861190742287925.png,1771861190742287925,1771861190.7422879,42.300871637284644,-83.69860953428784,237.2236328125,0.8337747914394698,0.552042255143116,-0.0035110357134691354,0.007524514920591044,0.06699000000000001,0.01058,0.4525600000000001,-2.3722000000000003,5.0825000000000005,-9.2372,8.630833790214488,19.3066573386824,22.559999465942383,19.809999465942383,24.44999885559082,21.670000076293945,18.318927569540293,16.08590221454029,19.853624499729197,17.59623985935139,17.963673535790292,0.0695606587579163,-252.10000610351562,0.0,0.0,784.0,1.0,1.0,0.0,,,,,
pylon_camera_1771861190792084256.png,1771861190792084256,1771861190.7920842,42.300874622841924,-83.69860829641293,237.22720336914062,0.8395621906387336,0.5432202850770913,-0.0021560625008872404,0.006511629991525567,-0.05836000000000001,0.05812000000000001,0.43103,-0.5281,3.478,-7.3925,8.514090890934211,19.045510477566374,22.469999313354492,20.75,24.26999855041504,22.059999465942383,18.245846615837518,16.849191315,19.707462592323647,17.912922959540293,18.178855870675367,0.04550440419603539,-254.3000030517578,0.0,0.0,408.0,1.0,1.0,0.0,,,,,
pylon_camera_1771861190840275448.png,1771861190840275448,1771861190.8402755,42.300877555001904,-83.69860702791286,237.23045349121094,0.8448562089133033,0.5349428426573273,-3.2365280314952585e-05,0.0073580094337895915,-0.08132,0.051730000000000005,0.37177000000000004,-0.37160000000000004,1.9011,-11.2227,8.412919825754134,18.819196875022453,23.26999855041504,21.139999389648438,23.829999923706055,22.299999237060547,18.895453372323647,17.165874415188906,19.350179650648617,18.107804986486133,18.379828106161824,0.023346839494716977,-259.1000061035156,0.0,0.0,168.0,1.0,1.0,0.0,,,,,
pylon_camera_1771861190892919267.png,1771861190892919267,1771861190.8929193,42.300881901271886,-83.69860503419928,237.23643493652344,0.8498051909976926,0.5269871349551651,0.0028624471018279924,0.010368381827033342,-0.17596000000000003,0.01043,0.35616000000000003,-1.9963000000000002,5.439500000000001,-9.3421,8.336556556508564,18.648376823516266,22.81999969482422,20.829999923706055,23.649999618530273,22.10999870300293,18.530050152594452,16.914151990648616,19.204017743243067,17.953522801026423,18.15043567187814,0.02670158139502015,-271.3000183105469,0.0,0.0,136.0,0.0,1.0,0.0,,,,,
pylon_camera_1771861190941028311.png,1771861190941028311,1771861190.9410284,42.30088474910267,-83.69860363211451,237.24346923828125,0.8539326542113383,0.5201393150524597,0.005905679127752713,0.01480668640773828,-0.18252000000000002,0.009430000000000001,0.31029000000000007,-1.2323,5.5347,-11.6966,8.28976936275485,18.543716678320834,21.850000381469727,20.439998626708984,23.799999237060547,21.420000076293945,17.742401766756934,16.597467341675035,19.32581881648613,17.393237554351387,17.764731369817373,0.04200804628417133,-283.1000061035156,0.0,0.0,132.0,0.0,1.0,0.0,,,,,
pylon_camera_1771861190990719612.png,1771861190990719612,1771861190.9907196,42.300888930013215,-83.6986013566218,237.25877380371094,0.8577462826419775,0.5137447006066469,0.0070629343458540154,0.016965027877414437,-0.03151,0.02033,0.30757,-0.9481,2.7927,-11.782,8.223961485781569,18.396508406004223,21.279998779296875,19.989999771118164,23.760000228881836,21.279998779296875,17.279555210377808,16.23206412194584,19.29333925305416,17.279555210377808,17.521128448938903,0.047584027237452024,-298.6000061035156,0.0,0.0,144.0,0.0,1.0,0.0,,,,,
pylon_camera_1771861191041731424.png,1771861191041731424,1771861191.0417314,42.300891668186374,-83.69859975977566,237.27085876464844,0.861865706466091,0.5068678910177424,0.005750518701869457,0.015471800399163658,0.15757000000000002,0.0171,0.32559000000000005,-2.1602,2.8494,-8.0379,8.137835484100343,18.20384970780342,21.60999870300293,19.439998626708984,23.34000015258789,20.770000457763672,17.54751819102642,15.785458121675035,18.952295318702777,16.86543187110832,17.28767587562814,0.050328575926582554,-314.3000183105469,0.0,0.0,156.0,0.0,1.0,0.0,,,,,
pylon_camera_1771861191091729744.png,1771861191091729744,1771861191.0917296,42.30089569842146,-83.69859729906713,237.2874298095703,0.8661193414889378,0.4996880184221499,0.003546326630386611,0.011687348353869368,0.20929000000000003,-0.003940000000000001,0.31667,-1.0803,0.7193,-9.0868,8.0823157748221,18.07965544933055,20.75,19.229999542236328,23.189998626708984,20.600000381469727,16.849191315,15.614936928891678,18.830492696675037,16.727390241756936,17.005502795580913,0.059412230324854404,-330.20001220703125,0.0,0.0,164.0,0.0,1.0,0.0,,,,,
pylon_camera_1771861191142701131.png,1771861191142701131,1771861191.1427011,42.30089834041208,-83.69859563112576,237.29737854003906,0.870559533649317,0.4919787115960167,0.002073684241420019,0.008873868506693722,0.06457,-0.012210000000000002,0.36000000000000004,-0.3249,0.606,-8.7798,8.010486192679776,17.9189769838531,20.600000381469727,19.100000381469727,23.010000228881836,20.119998931884766,16.727390241756936,15.509376411756936,18.684332338054162,16.337624639080584,16.814680907662154,0.06162718313584714,-345.6000061035156,0.0,0.0,252.0,0.0,1.0,0.0,,,,,
pylon_camera_1771861191193017179.png,1771861191193017179,1771861191.193017,42.30090227286029,-83.69859313530968,237.31103515625,0.8752106029046296,0.4836569265220248,0.0020557449592887946,0.008840356511229896,-0.09594000000000001,0.023850000000000003,0.39838000000000007,-1.7903,-0.4879,-8.5505,7.904653607759949,17.682235841342543,19.510000228881836,18.53999900817871,22.18000030517578,19.389999389648438,15.842300068054161,15.05465013343197,18.010364747405546,15.744858280188904,16.163043307270147,0.0859163144131579,-361.70001220703125,0.0,0.0,276.0,0.0,1.0,0.0,,,,,
pylon_camera_1771861191252247513.png,1771861191252247513,1771861191.2522476,42.30090615345214,-83.69859065037656,237.3221435546875,0.8810929560904576,0.47268099115010953,0.005390722060813158,0.014792682271721754,-0.29614,-0.04826000000000001,0.44094000000000005,-2.7498,2.0288,-10.579,7.794101256273526,17.434936864208503,19.31999969482422,17.559999465942383,22.459999084472656,18.600000381469727,15.688017882594451,14.258881469540292,18.237726337783357,15.103371801756936,15.821999372918759,0.09251180568372919,-373.1000061035156,0.0,0.0,284.0,0.0,1.0,0.0,,,,,
pylon_camera_1771861191306129261.png,1771861191306129261,1771861191.3061292,42.30090992020754,-83.69858809268781,237.3319854736328,0.8870717784037006,0.4611820336605824,0.008147399508297765,0.018665788749411046,0.018910000000000003,0.021170000000000005,0.41606000000000004,-2.0279000000000003,8.3024,-11.803700000000001,7.638792115920328,17.08751963578682,17.60999870300293,15.979999542236328,22.18000030517578,18.389999389648438,14.29948131102642,12.975906963891678,18.010364747405546,14.932849060188905,15.054650520628138,0.11896806315301561,-386.5,0.0,0.0,296.0,0.0,1.0,0.0,,,,,
pylon_camera_1771861191347219981.png,1771861191347219981,1771861191.34722,42.300911167250234,-83.6985872211056,237.3356475830078,0.8897591543177532,0.4559967070151114,0.007721171405031055,0.018331230489663747,0.012390000000000002,-0.04651000000000001,0.41120000000000007,-2.9517,6.3156,-9.6658,7.6088377238179135,17.020513457917243,16.90999984741211,15.229999542236328,21.69999885559082,18.479999542236328,13.731075786297227,12.36690004889168,17.620599144729194,15.005930013891678,14.681126248452445,0.1374451608201403,-397.5,0.0,0.0,256.0,0.0,1.0,0.0,,,,,
pylon_camera_1771861191395366543.png,1771861191395366543,1771861191.3953667,42.30091594375833,-83.69858353821941,237.35426330566406,0.8947610799787606,0.44633037947471893,0.0037682144303749334,0.013326765294024673,0.23892000000000005,-0.04835000000000001,0.3405,-0.07640000000000001,0.5374,-11.3011,7.548289195801791,16.88507003365686,16.170000076293945,14.359999656677246,21.149999618530273,18.43000030517578,13.130189149351388,11.66045212041876,17.173994693243067,14.965330172405547,14.232491533854692,0.15709609107423345,-415.3999938964844,0.0,0.0,256.0,0.0,1.0,0.0,,,,,
pylon_camera_1771861191446346164.png,1771861191446346164,1771861191.4463463,42.30091828327697,-83.6985816479691,237.36386108398438,0.8985295202128869,0.4387872900719037,-0.0005692188932975755,0.010492443338226073,0.10696000000000001,-0.10448000000000002,0.30591000000000007,-0.1326,-0.5966,-9.9756,7.480004413194949,16.732321072052308,16.520000457763672,12.170000076293945,20.760000228881836,18.270000457763672,13.414392686108322,9.882152269351387,16.857311593054163,14.835408821108322,13.747316342405549,0.17839752875843137,-436.20001220703125,0.0,0.0,252.0,0.0,1.0,0.0,,,,,
pylon_camera_1771861191499002169.png,1771861191499002169,1771861191.4990022,42.3009217289063,-83.69857883108727,237.37680053710938,0.9020061729441208,0.43155160170685897,-0.0036162927688717884,0.011619012933768434,-0.069,-0.07708000000000001,0.3216200000000001,-3.5392,-3.1742000000000004,-8.2574,7.305087475280825,16.34104237695469,16.1299991607666,12.109999656677246,20.049999237060547,17.899999618530273,13.097708037134742,9.833431375418758,16.28078424148613,14.534964728243066,13.436722095570675,0.1777316412495139,-455.5,0.0,0.0,240.0,0.0,1.0,0.0,,,,,
pylon_camera_1771861191549966414.png,1771861191549966414,1771861191.5499663,42.300923987209735,-83.69857699462987,237.38096618652344,0.9055040188450869,0.4239170676756433,-0.002827858319254797,0.018676048993480743,-0.27717,-0.10794000000000001,0.30898000000000003,-4.2620000000000005,5.214300000000001,-8.6616,7.188846225819262,16.08101767638414,15.289999961853027,11.539999961853027,19.329999923706055,17.559999465942383,12.415620942824306,9.370586367824306,15.696138160648614,14.258881469540292,12.93530673520938,0.1956164096377065,-471.5,0.0,0.0,244.0,0.0,1.0,0.0,,,,,
pylon_camera_1771861191599952655.png,1771861191599952655,1771861191.5999527,42.300927278780925,-83.69857423466794,237.38690185546875,0.9086087118635285,0.41689346952758544,-0.0014393759036508986,0.025059369264991853,-0.31057000000000007,-0.07713000000000002,0.31006000000000006,-2.2652,5.592700000000001,-10.2222,7.030027281253079,15.725749226526263,14.710000038146973,8.420000076293945,19.229999542236328,16.809999465942383,11.944655657175694,6.837117694351387,15.614936928891678,13.649874554540292,12.011646208739762,0.23617971800806384,-482.3999938964844,0.0,0.0,244.0,0.0,1.0,0.0,,,,,
pylon_camera_1771861191651648608.png,1771861191651648608,1771861191.6516485,42.300929391477226,-83.69857236561253,237.39308166503906,0.9113494146622838,0.4105517748682785,-0.00114341595537182,0.029802301038208814,-0.12792,-0.07084,0.24902000000000002,-4.005,6.8707,-12.1209,6.843405982824662,15.3082885792198,14.199999809265137,6.239999771118164,19.549999237060547,15.869999885559082,11.530530769121533,5.0669373469458385,15.874779631486131,12.88658622847292,11.339708494006606,0.25924387724179265,-485.3000183105469,0.0,0.0,256.0,0.0,1.0,0.0,,,,,
pylon_camera_1771861191701128162.png,1771861191701128162,1771861191.7011282,42.30093237227927,-83.69856944294743,237.40713500976562,0.9136496198809256,0.405464207108424,-0.003512596931128738,0.028823783724150183,0.12056000000000001,-0.12002000000000002,0.19915000000000005,-3.5892000000000004,4.0635,-10.852300000000001,6.7201230478970455,15.032512050762818,12.859999656677246,5.179999828338623,19.079999923706055,15.489999771118164,10.442438290418758,4.206207620209379,15.493135855648614,12.578022631945839,10.679951099555648,0.28954315396582714,-484.1000061035156,0.0,0.0,256.0,0.0,1.0,0.0,,,,,
pylon_camera_1771861191752498243.png,1771861191752498243,1771861191.7524981,42.300934267445435,-83.6985674511869,237.4158935546875,0.9156460492519559,0.40124740795251496,-0.0068428086322884045,0.023366772791608273,0.32905,-0.027170000000000007,0.17881000000000002,-1.9160000000000001,2.3374,-5.548100000000001,6.571910087581508,14.70096855131458,11.880000114440918,5.639999866485596,17.989999771118164,15.839999198913574,9.64666962652708,4.579731892385073,14.60804568194584,12.862225394310435,10.424168148792107,0.2909196348250153,-484.20001220703125,0.0,0.0,276.0,0.0,1.0,0.0,,,,,
pylon_camera_1771861191799015101.png,1771861191799015101,1771861191.7990153,42.300936103381645,-83.69856547823831,237.41712951660156,0.9176210948964001,0.39705439263704895,-0.009433311630654424,0.015177223739358623,0.34016,0.06990000000000002,0.17456000000000002,-3.1435,1.2044000000000001,-3.8194000000000004,6.404143760780008,14.325685344239233,11.920000076293945,6.029999732971191,17.579999923706055,16.15999984741211,9.679149964351387,4.896415379770145,14.275122025648614,13.122068871297225,10.493189060266843,0.2675262084765491,-485.0,0.0,0.0,280.0,0.0,1.0,0.0,,,,,
pylon_camera_1771861191852949568.png,1771861191852949568,1771861191.8529496,42.300938784790645,-83.69856257657074,237.40835571289062,0.9193440093227079,0.3931948792689759,-0.010196148893181137,0.010020877549011053,0.051620000000000006,0.03973000000000001,0.15052000000000001,-3.6295,-1.3109,-12.2201,6.214844911572847,13.902235176493765,11.719999313354492,7.829999923706055,16.989999771118164,15.829999923706055,9.516747500837518,6.358032130648613,13.796036461945839,12.854105890648613,10.631230496020146,0.23528624274780735,-485.8999938964844,0.0,0.0,272.0,0.0,1.0,0.0,,,,,
pylon_camera_1771861191899702020.png,1771861191899702020,1771861191.899702,42.300940531299744,-83.69856068239906,237.40109252929688,0.9209339326025896,0.3895147223195255,-0.008858609692244092,0.008972062850440823,-0.08052000000000001,0.05364000000000001,0.15098000000000003,-3.7608,-0.6675,-8.7585,6.109450985475605,13.666475287449801,11.050000190734863,8.510000228881836,16.119998931884766,15.699999809265137,8.972702035878468,6.910198648054161,13.089587759080583,12.748544599121534,10.430258260533687,0.23679968381371874,-486.70001220703125,0.0,0.0,252.0,0.0,1.0,0.0,,,,,
pylon_camera_1771861191950717086.png,1771861191950717086,1771861191.9507172,42.300943095134365,-83.69855790101687,237.39537048339844,0.9223500123527233,0.3860785649761437,-0.007362284586073219,0.012633018030804011,-0.13816000000000003,-0.01819,0.13837000000000002,-3.2814,0.183,-15.2909,5.959222605271747,13.330423414636583,11.1899995803833,7.099999904632568,16.119998931884766,15.25999927520752,9.086382831067372,5.765265384560767,13.089587759080583,12.391260108661823,10.083124020842636,0.24360061888420334,-486.8999938964844,2.1000001430511475,0.0,244.0,0.0,1.0,0.0,,,,,
pylon_camera_1771861192000667450.png,1771861192000667450,1771861192.0006673,42.30094473295241,-83.69855606461422,237.3963623046875,0.9237369936583506,0.3825731952539645,-0.006301549878842011,0.01755013644758415,-0.11931000000000001,-0.05433000000000001,0.14472000000000002,-4.0533,5.6849,-11.065000000000001,5.754550306444206,12.872583762497303,10.619999885559082,5.039999961853027,15.309999465942383,14.50999927520752,8.623537823472919,4.092526437824306,12.431860724540291,11.782253193661825,9.232544544874836,0.2827745606307318,-487.3999938964844,8.77500057220459,0.0,240.0,0.0,1.0,0.0,,,,,
pylon_camera_1771861192051783672.png,1771861192051783672,1771861192.0517836,42.30094705298011,-83.69855333076048,237.40089416503906,0.9248996969575076,0.37963393844157334,-0.0063322631529885405,0.019963110845053634,-0.07586000000000001,0.004700000000000001,0.13885000000000003,-3.9607,4.6222,-8.3472,5.550788766353084,12.416781423005869,10.09999942779541,5.049999713897705,14.84999942779541,14.219999313354492,8.201292657364597,4.1006463286822985,12.058336452364598,11.546770550837518,8.976761497312253,0.27704602412666546,-487.6000061035156,16.850000381469727,0.0,228.0,0.0,1.0,0.0,,,,,
pylon_camera_1771861192101644604.png,1771861192101644604,1771861192.1016445,42.30094850577955,-83.69855152214998,237.4044952392578,0.9258062834190504,0.3773766080643435,-0.006640198921011527,0.02062835490156359,-0.014040000000000002,0.03200000000000001,0.10874000000000002,-5.0013000000000005,4.5758,-10.312100000000001,5.35292844684131,11.9741797598772,9.510000228881836,3.18999981880188,14.059999465942383,14.019999504089355,7.722207868054161,2.590309264665456,11.416849199540291,11.384368861715986,8.278433798493973,0.30864293300212897,-487.8000183105469,23.350000381469727,0.0,208.0,1.0,1.0,0.0,,,,,
pylon_camera_1771861192152763539.png,1771861192152763539,1771861192.1527636,42.30095057529075,-83.69854882870152,237.41156005859375,0.9265295721090459,0.37564799900261264,-0.007736235411372083,0.019279095269790634,0.07108000000000002,0.0012300000000000002,0.06578,-3.5825,1.4917,-10.2887,5.200087563024583,11.632283873232213,9.449999809265137,3.0299999713897705,13.90999984741211,13.569999694824219,7.673486974121532,2.46038791336823,11.295048126297226,11.018964867594454,8.11197197034536,0.30263290865757375,-489.20001220703125,29.149999618530273,0.0,208.0,1.0,1.0,0.0,,,,,
pylon_camera_1771861192202702997.png,1771861192202702997,1771861192.202703,42.30095189531178,-83.69854704949385,237.41757202148438,0.927120995834043,0.3742659872078771,-0.009972150863616684,0.016498063830611934,0.13286000000000003,-0.043300000000000005,0.048400000000000006,-5.5200000000000005,-0.0543,-10.095500000000001,5.03944649677132,11.272939446487637,10.010000228881836,2.2100000381469727,13.579999923706055,13.25,8.128212478054161,1.7945404071756936,11.027085145648613,10.759122165,7.927240048969617,0.2967903281482147,-489.8999938964844,33.67499923706055,0.0,192.0,1.0,1.0,0.0,,,,,
pylon_camera_1771861192262578804.png,1771861192262578804,1771861192.2625787,42.30095435319607,-83.69854360825039,237.42617797851562,0.9275047157918779,0.3734371837084021,-0.011715214718895972,0.011934226068542901,0.12212000000000002,0.04422,0.027180000000000003,-6.9518,0.38680000000000003,-7.7203,4.75352739014907,10.633355560120062,10.039999961853027,1.649999976158142,13.119999885559082,12.819999694824219,8.152572537824307,1.3398151936401916,10.65356087347292,10.409957952594452,7.6389766393829674,0.2816024446664215,-489.20001220703125,33.22500228881836,0.0,188.0,1.0,1.0,0.0,,,,,
pylon_camera_1771861192316108819.png,1771861192316108819,1771861192.3161087,42.30095552492427,-83.69854192259452,237.4257354736328,0.927453091835946,0.3736620875633647,-0.011595279147863749,0.008541443860112786,0.15821000000000002,0.017830000000000002,-0.019280000000000002,-0.5466,-0.8988,-7.6109,4.695529581969222,10.503617943090232,9.59000015258789,2.6499998569488525,12.609999656677246,12.389999389648438,7.787168543702775,2.1518243168411493,10.23943598541876,10.060793740188904,7.559805646537898,0.28026650555096694,-489.20001220703125,33.67499923706055,0.0,176.0,1.0,1.0,0.0,,,,,
pylon_camera_1771861192378132546.png,1771861192378132546,1771861192.3781326,42.30095782503162,-83.69853870570684,237.4190673828125,0.9274904291901638,0.37360876603926496,-0.01133348735768844,0.007038875164181627,-0.03851,-0.03554000000000001,0.006790000000000001,-3.3386,-1.1718,-9.3085,4.5539390072338275,10.18688832284164,9.559999465942383,5.029999732971191,12.40999984741211,12.199999809265137,7.762807709540291,4.084406159770146,10.077034296297228,9.906512329121533,7.957690123682299,0.21883014012835508,-489.3999938964844,33.875,0.0,172.0,1.0,1.0,0.0,,,,,
pylon_camera_1771861192428535805.png,1771861192428535805,1771861192.4285357,42.3009589639079,-83.69853715161804,237.41458129882812,0.9277028894798778,0.3730823384386379,-0.010409587571768228,0.008279980822968916,-0.05577000000000001,0.017630000000000003,0.023340000000000003,-1.5188000000000001,-2.7568,-9.319600000000001,4.41894336115829,9.884911162309425,9.529999732971191,5.210000038146973,12.130000114440918,11.920000076293945,7.738447649770146,4.230568067175693,9.84967193152708,9.679149964351387,7.874459403206076,0.20338592083347,-489.3000183105469,33.72500228881836,0.0,160.0,1.0,1.0,0.0,,,,,
pylon_camera_1771861192479342730.png,1771861192479342730,1771861192.479343,42.30096009032109,-83.69853565755676,237.40928649902344,0.9283017701288592,0.371575728208385,-0.008894688205058041,0.010401264527453007,-0.07690000000000001,0.04327000000000001,0.08191000000000001,-1.8751,-0.20500000000000002,-9.4422,4.286643046277391,9.588963295939747,10.609999656677246,6.059999942779541,11.679999351501465,11.569999694824219,8.615417545418758,4.92077582673646,9.484267163013211,9.394946427594453,8.10385174069072,0.1548771759172201,-489.20001220703125,33.57500076293945,0.0,144.0,1.0,1.0,0.0,,,,,
pylon_camera_1771861192526564006.png,1771861192526564006,1771861192.5265641,42.30096174962266,-83.69853349573265,237.4017333984375,0.9291302387827,0.3694980974108913,-0.007677504690550861,0.011367115335955106,-0.04036000000000001,0.004890000000000001,0.09944000000000001,-1.709,0.2185,-11.942400000000001,4.1983957733385155,9.391559441211859,9.6899995803833,7.139999866485596,11.559999465942383,11.289999961853027,7.8683690010673715,5.797745722385073,9.38682614954029,9.167584062824305,8.05513123395426,0.1423009901202468,-488.8999938964844,33.150001525878906,0.0,144.0,1.0,1.0,0.0,,,,,
pylon_camera_1771861192558746554.png,1771861192558746554,1771861192.5587466,42.30096228666121,-83.69853278266883,237.40008544921875,0.9294835862340161,0.36861437846409584,-0.007279644762844455,0.011432833559873602,-0.0049700000000000005,0.028890000000000002,0.09441000000000001,-1.5521,4.4386,-10.4342,4.167241002360755,9.321868087820867,9.319999694824219,8.309999465942383,11.449999809265137,11.15999984741211,7.567925682594453,6.747796184540291,9.297505414121533,9.062022771297226,8.168812513138377,0.12369361632449735,-488.8999938964844,33.04999923706055,0.0,132.0,1.0,1.0,0.0,,,,,
pylon_camera_1771861192615187230.png,1771861192615187230,1771861192.6151872,42.30096384586427,-83.69853061325527,237.39959716796875,0.9301909776355862,0.3668354206674953,-0.008471208089139624,0.010235130803484456,0.12178000000000001,-0.034640000000000004,0.023810000000000005,-2.5387,3.5998,-10.338000000000001,4.060748889304204,9.083651620440147,8.739999771118164,8.380000114440918,11.079999923706055,11.010000228881836,7.096960396945839,6.804637356527081,8.997062095648614,8.940221698054161,7.959720386793924,0.12373121301978808,-489.20001220703125,33.025001525878906,0.0,132.0,1.0,1.0,0.0,,,,,
pylon_camera_1771861192657311177.png,1771861192657311177,1771861192.6573112,42.30096531441778,-83.69852843941486,237.40415954589844,0.9302897589600161,0.3665952426521165,-0.009688182147271908,0.008662076288767254,0.08632000000000002,-0.04168,0.019810000000000005,-3.0987,1.5216,-10.048300000000001,3.988652196716601,8.922375644923234,8.9399995803833,9.429999351501465,10.829999923706055,10.789999961853027,7.259362086067371,7.6572464180132105,8.794059790648614,8.761579452824307,8.118061936888376,0.09014568989734326,-488.8999938964844,31.575000762939453,0.0,148.0,0.0,1.0,0.0,,,,,
pylon_camera_1771861192708028223.png,1771861192708028223,1771861192.708028,42.3009662564584,-83.69852701705506,237.4067840576172,0.9302610138532847,0.36669338948435093,-0.010062074987391794,0.00701133796681196,0.045000000000000005,0.013030000000000002,-0.0019500000000000003,-1.6964000000000001,-0.1223,-8.6362,3.872568889282991,8.662704251192695,9.469999313354492,9.059999465942383,10.779999732971191,10.529999732971191,7.689726755837517,7.356803099540292,8.753459174770146,8.550456869770146,8.087611474979525,0.06638721114529453,-488.20001220703125,25.80000114440918,0.0,160.0,0.0,1.0,0.0,,,,,
pylon_camera_1771861192758313491.png,1771861192758313491,1771861192.7583134,42.30096718138788,-83.69852561619899,237.40872192382812,0.930259934282939,0.3667093484707312,-0.010639647416681074,0.0052446463105381095,0.08489000000000001,-0.01912,0.006810000000000001,-1.1574,-1.1582000000000001,-10.834200000000001,3.829510605086858,8.566385452942997,10.559999465942383,9.149999618530273,10.449999809265137,10.25,8.57481692954029,7.4298840532430654,8.485496194121533,8.323094505,8.203322920476221,0.04238223162629753,-487.8000183105469,25.05000114440918,0.0,164.0,0.0,1.0,0.0,,,,,
