image_filename,timestamp_ns,timestamp_sec,latitude,longitude,altitude,orientation_x,orientation_y,orientation_z,orientation_w,angular_velocity_x,angular_velocity_y,angular_velocity_z,linear_acceleration_x,linear_acceleration_y,linear_acceleration_z,vehicle_speed_mps,vehicle_speed_mph,wheel_speed_fl_rads,wheel_speed_fr_rads,wheel_speed_rl_rads,wheel_speed_rr_rads,wheel_speed_fl_mph,wheel_speed_fr_mph,wheel_speed_rl_mph,wheel_speed_rr_mph,avg_wheel_speed_mph,wheel_slip,steering_angle_deg,throttle_pedal,brake_pedal,brake_torque_actual,abs_active,esc_active,trac_active,marwis_road_condition,marwis_friction,marwis_surface_temp_c,marwis_ice_percent,marwis_water_film_height
pylon_camera_1771859897444256169.png,1771859897444256169,1771859897.4442563,42.30097182283644,-83.69729388149152,238.8905792236328,-0.01901722475868678,-0.9997089715137508,-0.009231101741358563,-0.011623433143302287,-5.000000000000001e-05,0.016150000000000005,0.00124,0.6294000000000001,0.12150000000000001,-9.898900000000001,0.09364002438307847,0.20946711614348357,0.0,0.0,0.0,0.0,0.0,0.0,0.0,0.0,0.0,0.0,-1.3000000715255737,24.350000381469727,0.0,0.0,0.0,0.0,0.0,,,,,
pylon_camera_1771859897491646027.png,1771859897491646027,1771859897.491646,42.3009718216807,-83.6972939436492,238.88999938964844,-0.01902249128634048,-0.999709789510692,-0.009235645291833275,-0.011540556216779317,-0.0008400000000000001,0.01635,0.0010700000000000002,0.7858,0.166,-9.8438,0.10363500481135919,0.23182528766272184,0.0,0.0,0.0,0.0,0.0,0.0,0.0,0.0,0.0,0.0,-1.3000000715255737,26.80000114440918,0.0,0.0,0.0,0.0,0.0,,,,,
pylon_camera_1771859897565585783.png,1771859897565585783,1771859897.5655856,42.30097182376919,-83.69729403516551,238.8893585205078,-0.019068384597348054,-0.9997173234411179,-0.009247925560333277,-0.010777095777857194,-0.0018800000000000004,0.013710000000000003,0.0011500000000000002,1.637,0.13720000000000002,-9.8141,0.23421986682168294,0.5239357888880954,0.0,0.0,0.0,0.0,0.0,0.0,0.0,0.0,0.0,0.0,-1.3000000715255737,29.700000762939453,0.0,0.0,0.0,0.0,0.0,,,,,
pylon_camera_1771859897582846229.png,1771859897582846229,1771859897.5828462,42.30097182376919,-83.69729403516551,238.8893585205078,-0.019068384597348054,-0.9997173234411179,-0.009247925560333277,-0.010777095777857194,-0.0018800000000000004,0.013710000000000003,0.0011500000000000002,1.637,0.13720000000000002,-9.8141,0.23421986682168294,0.5239357888880954,0.0,0.0,0.0,0.0,0.0,0.0,0.0,0.0,0.0,0.0,-1.3000000715255737,29.649999618530273,0.0,0.0,0.0,0.0,0.0,,,,,
pylon_camera_1771859897632698219.png,1771859897632698219,1771859897.632698,42.300971829415964,-83.69729443707679,238.88731384277344,-0.019068522419159295,-0.999727390446932,-0.009468492080086984,-0.009585609038905854,-0.005690000000000001,0.01959,-0.0018300000000000002,2.351,0.219,-10.027800000000001,0.4803294691968225,1.0744682028251402,0.0,0.699999988079071,0.0,0.7400000095367432,0.0,0.5684064443200959,0.0,0.6008868305439234,0.2923233187160048,0.7279367430814724,-1.3000000715255737,30.30000114440918,0.0,0.0,0.0,0.0,0.0,,,,,
pylon_camera_1771859897696611460.png,1771859897696611460,1771859897.6966116,42.30097184236801,-83.69729496301916,238.88638305664062,-0.01905076574879022,-0.9997279323661505,-0.009510374820539678,-0.009522727658573916,-0.00858,0.012420000000000002,-0.0035000000000000005,2.1897,0.027100000000000003,-10.0272,0.636607580555728,1.4240529612483301,1.3799999952316284,1.2200000286102295,2.990000009536743,1.2899999618530273,1.1205727197280384,0.9906512716317702,2.4279075755439234,1.0474918628243066,1.3966558574320098,0.01923882366868148,-1.399999976158142,30.5,0.0,0.0,0.0,0.0,0.0,,,,,
pylon_camera_1771859897734972293.png,1771859897734972293,1771859897.7349725,42.30097184996796,-83.69729531215826,238.8865966796875,-0.018715719483790305,-0.999737784701631,-0.009788845564874178,-0.008846591806249127,-0.004720000000000001,0.006070000000000001,-0.008280000000000001,2.7055000000000002,0.0366,-10.315800000000001,0.7457955714336565,1.6682999455628036,1.6699999570846558,1.5799999237060547,5.509999752044678,1.6399999856948853,1.3560553625523448,1.282974505648613,4.474170600857992,1.331695109184115,2.111223894560766,0.26549419376054795,-1.600000023841858,30.17500114440918,0.0,0.0,0.0,0.0,0.0,,,,,
pylon_camera_1771859897794633655.png,1771859897794633655,1771859897.7946336,42.300971864459754,-83.69729592223715,238.88746643066406,-0.018571757442134296,-0.9997429220825403,-0.009660677428159882,-0.008709241241528387,0.012580000000000001,0.0010600000000000002,0.00033000000000000005,2.3971,0.040100000000000004,-10.0944,0.9029081739007605,2.019751410525567,2.2200000286102295,2.1399998664855957,9.210000038146973,2.1499998569488525,1.8026604916317701,1.7376996223850727,7.478604947175694,1.7458197068411492,3.1911961920084213,0.5799945356532902,-1.8000000715255737,30.225000381469727,0.0,0.0,0.0,0.0,0.0,,,,,
pylon_camera_1771859897834695924.png,1771859897834695924,1771859897.834696,42.300971871676325,-83.6972963868061,238.88845825195312,-0.018627294774121284,-0.9997442938031411,-0.009359707880040981,-0.008761664559715984,0.014430000000000002,-0.008870000000000001,0.006660000000000001,2.3342,-0.2126,-10.2417,1.0034781601225127,2.2447204355044534,2.3999998569488525,2.379999876022339,12.079999923706055,2.3899998664855957,1.9488220118411492,1.9325818429289963,9.809071315648612,1.9407019273850727,3.9077942744509575,0.7408823890235415,-1.7000000476837158,30.200000762939453,0.0,0.0,0.0,0.0,0.0,,,,,
pylon_camera_1771859897885307737.png,1771859897885307737,1771859897.8853076,42.300971880216046,-83.69729690286067,238.8895263671875,-0.01886344757152636,-0.9997397791048928,-0.009244162267213715,-0.00889324940580999,-0.0015600000000000002,-0.0038200000000000005,0.00974,2.2126,0.2315,-9.424800000000001,1.1252542072304006,2.5171261463219725,2.7799999713897705,2.740000009536743,15.059999465942383,2.7200000286102295,2.2573856083682298,2.2249052705439234,12.228858419540291,2.20866510163177,4.729953600021053,0.8791086838982888,-1.7000000476837158,30.350000381469727,0.0,0.0,0.0,0.0,0.0,,,,,
pylon_camera_1771859897935172589.png,1771859897935172589,1771859897.9351726,42.30097189094842,-83.69729776559927,238.8903350830078,-0.01905241818319786,-0.9997346595010212,-0.00938095069185533,-0.008922651952563095,-0.004890000000000001,0.0020700000000000002,0.007210000000000001,2.0825,0.4455,-9.6346,1.2398048442707141,2.7733690483429316,3.119999885559082,3.2300000190734863,17.68000030517578,3.2200000286102295,2.5334686734729193,2.622789796087847,14.356323257405549,2.6146697116317705,5.531812859649522,0.9946183732578759,-1.7000000476837158,32.400001525878906,0.0,60.0,0.0,0.0,0.0,,,,,
pylon_camera_1771859897986188050.png,1771859897986188050,1771859897.986188,42.30097190324399,-83.6972984052224,238.8905029296875,-0.01899198366606769,-0.9997356377028359,-0.009507708890626515,-0.00880697081764371,-0.0029400000000000003,0.00192,-0.005550000000000001,2.3356,0.24550000000000002,-9.745700000000001,1.3674366592638225,3.0588737605736154,3.5899999141693115,3.509999990463257,18.209999084472656,3.569999933242798,2.91511303010469,2.850152354456077,14.786687152783356,2.8988728611925363,5.8627063496341645,0.9166225246689358,-1.7000000476837158,35.025001525878906,0.0,192.0,0.0,0.0,0.0,,,,,
pylon_camera_1771859898035953283.png,1771859898035953283,1771859898.0359535,42.30097192801883,-83.6972994477124,238.8899383544922,-0.018751544676232634,-0.9997392020469897,-0.009749231029667635,-0.008652164875554199,-0.011590000000000001,0.00111,-0.014790000000000001,2.7436000000000003,0.0975,-9.8137,1.4999242228143392,3.3552404909823084,3.9700000286102295,4.059999942779541,17.40999984741211,4.159999847412109,3.2236766266317702,3.29675738673646,14.137080396297227,3.3779582312972263,6.008868160240672,0.7908904522314778,-1.8000000715255737,37.04999923706055,0.0,240.0,0.0,0.0,0.0,,,,,
pylon_camera_1771859898086934646.png,1771859898086934646,1771859898.0869346,42.30097194494006,-83.69730020153273,238.88919067382812,-0.018433952577282586,-0.999744757550183,-0.009963270163870684,-0.008446442502399456,-0.013440000000000002,0.007370000000000001,-0.014650000000000003,2.8848000000000003,0.025400000000000002,-9.8886,1.6340484119484378,3.655268254623939,4.569999694824219,5.109999656677246,15.369999885559082,4.46999979019165,3.710881887594452,4.149366835418759,12.480581618472918,3.6296810430336857,5.992627846129953,0.6394495365830508,-1.8000000715255737,39.775001525878906,0.0,240.0,0.0,0.0,0.0,,,,,
pylon_camera_1771859898136737684.png,1771859898136737684,1771859898.1367378,42.300971969595196,-83.69730143683846,238.8875732421875,-0.018167292721253225,-0.9997474835267133,-0.010290016790446544,-0.008308682906265226,-0.020410000000000005,0.01682,-0.006590000000000001,2.0146,0.0632,-9.7162,1.755822040150361,3.9276685544939487,5.789999961853027,5.150000095367432,13.809999465942383,4.579999923706055,4.701533352824307,4.181847560439234,11.213846894540291,3.719002165648613,5.954057493363112,0.5159266650824228,-1.8000000715255737,41.32500076293945,0.0,208.0,0.0,0.0,0.0,,,,,
pylon_camera_1771859898187883116.png,1771859898187883116,1771859898.187883,42.30097198737709,-83.69730231826263,238.88656616210938,-0.017778010145667045,-0.9997533274647883,-0.010576212762622257,-0.008085190284976446,-0.0020800000000000003,0.008260000000000002,-0.016460000000000002,2.1015,0.4123,-9.9418,1.9062450313898869,4.264155760517294,8.09999942779541,8.239999771118164,11.050000190734863,5.199999809265137,6.5772742173645975,6.690955786945839,8.972702035878468,4.222447789121532,6.615844957327608,0.5515017107454409,-1.5,43.0,0.0,196.0,0.0,0.0,0.0,,,,,
pylon_camera_1771859898237713771.png,1771859898237713771,1771859898.2377136,42.30097201253476,-83.6973037329942,238.88653564453125,-0.01735515531467441,-0.9997637739148197,-0.010414964050616192,-0.007919815365597445,1e-05,-0.005220000000000001,-0.01566,1.8772,0.4963,-10.9883,2.0251753800190975,4.53019581457992,11.989999771118164,12.969999313354492,9.619999885559082,5.599999904632568,9.73599036194584,10.531759025837516,7.81152860347292,4.547251554560767,8.15663238645426,0.8005032718901613,-1.3000000715255737,43.95000076293945,0.0,124.0,0.0,0.0,0.0,,,,,
pylon_camera_1771859898297730219.png,1771859898297730219,1771859898.2977302,42.30097204016355,-83.69730525097101,238.8885498046875,-0.0167447746070733,-0.9997766834752314,-0.010106264574497002,-0.008003694083046709,0.0010600000000000002,-0.0055000000000000005,-0.025160000000000002,2.4925,0.372,-10.3726,2.172475652642108,4.859697686421237,18.69999885559082,18.079999923706055,10.260000228881836,6.199999809265137,15.184571484729195,14.681126635648614,8.331214783054161,5.034457009121533,10.807842478138374,1.2239742419239767,-1.3000000715255737,45.10000228881836,0.0,112.0,0.0,0.0,0.0,,,,,
pylon_camera_1771859898347268010.png,1771859898347268010,1771859898.347268,42.30097206222397,-83.69730633467712,238.8908233642578,-0.01599766982124179,-0.9997834217076079,-0.010155338903542937,-0.008605424491097123,-0.012480000000000002,-0.033620000000000004,-0.027970000000000002,1.5527,0.8089000000000001,-9.8454,2.308038702049601,5.162944094162834,20.369998931884766,20.40999984741211,14.09999942779541,6.37999963760376,16.540626944080582,16.573108056297226,11.449329537364598,5.180618529330912,12.43592076676833,1.4086878610264713,-1.399999976158142,45.375,0.0,80.0,0.0,0.0,0.0,,,,,
pylon_camera_1771859898398127385.png,1771859898398127385,1771859898.3981273,42.30097210264826,-83.69730803833359,238.89344787597656,-0.015045599224160655,-0.9997903007770388,-0.010630178961526262,-0.008943361302691653,-0.018160000000000003,-0.014880000000000003,-0.039720000000000005,2.6362,0.7111000000000001,-9.3016,2.431749473909555,5.43967766816724,20.600000381469727,21.020000457763672,14.639999389648438,6.829999923706055,16.727390241756936,17.068434176108322,11.887814485188905,5.546022910648613,12.807415453425694,1.3544438172089017,-1.399999976158142,45.17499923706055,0.0,148.0,0.0,0.0,0.0,,,,,
pylon_camera_1771859898448138339.png,1771859898448138339,1771859898.4481382,42.300972127419215,-83.6973092325774,238.8946533203125,-0.013967895045093437,-0.9997981203454909,-0.010752141156237896,-0.009644061498608355,-0.010160000000000002,-0.025410000000000002,-0.03914,1.7295,0.7247,-9.408900000000001,2.551923772637463,5.708500363963647,20.44999885559082,20.40999984741211,17.18000030517578,7.049999713897705,16.605587619729196,16.573108056297226,13.950318647405549,5.724664768682299,13.21341977302857,1.3146919384365159,-1.399999976158142,44.92499923706055,0.0,180.0,0.0,0.0,0.0,,,,,
pylon_camera_1771859898498959564.png,1771859898498959564,1771859898.4989595,42.300972168489984,-83.69731111759548,238.8951873779297,-0.012824095740213759,-0.9998102944450409,-0.010499821797801304,-0.010230905745882934,0.00877,-0.038310000000000004,-0.047310000000000005,2.1068000000000002,0.19940000000000002,-10.1713,2.681555083301017,5.998477828039378,19.579999923706055,19.189998626708984,18.889999389648438,9.289999961853027,15.899140465648614,15.582455816675035,15.338853670188904,7.543565622824306,13.591003893834214,1.2657421238275175,-1.600000023841858,45.025001525878906,0.0,220.0,0.0,0.0,0.0,,,,,
pylon_camera_1771859898549021006.png,1771859898549021006,1771859898.549021,42.300972204298326,-83.69731242963488,238.8946075439453,-0.011442483520288427,-0.9998297067850022,-0.009884771944713572,-0.010579143855037016,0.004980000000000001,-0.03737000000000001,-0.06054000000000001,2.1550000000000002,-1.7805000000000002,-10.228900000000001,2.796972869089802,6.256660489781742,17.829999923706055,18.420000076293945,18.029998779296875,13.880000114440918,14.478124330648614,14.957209894351388,14.640525245377807,11.27068806652708,13.836636884226222,1.2115051482854073,-2.4000000953674316,44.900001525878906,0.0,228.0,0.0,0.0,0.0,,,,,
pylon_camera_1771859898600098011.png,1771859898600098011,1771859898.6000981,42.30097225274559,-83.69731447240848,238.89320373535156,-0.010132977751795669,-0.999850540391253,-0.009229525652709033,-0.010537338251505362,0.026660000000000007,0.04297000000000001,-0.06500000000000002,2.5377,-1.2442,-9.871400000000001,2.8929077999682162,6.471261174060902,18.649999618530273,18.489999771118164,16.889999389648438,17.40999984741211,15.143971643243065,15.01405029194584,13.714835230188905,14.137080396297227,14.50248439041876,1.2410599727530447,-4.300000190734863,45.17499923706055,0.0,184.0,0.0,0.0,0.0,,,,,
pylon_camera_1771859898649994276.png,1771859898649994276,1771859898.6499941,42.3009722898686,-83.69731591442017,238.8921356201172,-0.008491718109748525,-0.9998698284518229,-0.008535009246982113,-0.010741065702298507,0.019500000000000003,-0.027110000000000002,-0.07502,2.4126000000000003,-2.5853,-11.1891,3.0619363335224223,6.849367861909648,20.010000228881836,19.03999900817871,22.84000015258789,8.90999984741211,16.24830467805416,15.46065474343197,18.546290708702777,7.235002026297226,14.372563039121534,1.0983780297521313,-6.599999904632568,44.900001525878906,0.0,0.0,0.0,0.0,0.0,,,,,
pylon_camera_1771859898702963419.png,1771859898702963419,1771859898.7029634,42.300972322799204,-83.69731815244621,238.89309692382812,-0.00694451132296825,-0.9998713351076003,-0.008917810308668811,-0.011382427330257391,-0.013920000000000002,-0.023230000000000004,-0.06994,1.2588000000000001,-1.1185,-11.183300000000001,3.141699929030543,7.027794239245583,19.619998931884766,19.94999885559082,21.43000030517578,8.9399995803833,15.931620029080582,16.199583009729196,17.401357832405548,7.259362086067371,14.197980739320673,1.0202613019081208,-8.5,45.45000076293945,0.0,136.0,0.0,0.0,0.0,,,,,
pylon_camera_1771859898742398427.png,1771859898742398427,1771859898.7423985,42.30097233991607,-83.69731970541011,238.895263671875,-0.005810013717965301,-0.9998667150353668,-0.00902147941710536,-0.012304828893899193,0.020310000000000005,-0.08829000000000001,-0.06174,3.0100000000000002,0.863,-10.2974,3.298786739073055,7.37918800810208,19.28999900817871,21.020000457763672,21.420000076293945,10.0,15.663657048431968,17.068434176108322,17.393237554351387,8.1200922,14.56135524472292,0.973300480857119,-9.300000190734863,45.20000076293945,0.0,160.0,0.0,0.0,0.0,,,,,
pylon_camera_1771859898793711083.png,1771859898793711083,1771859898.7937112,42.30097235611299,-83.69732213464559,238.89926147460938,-0.00447188508229257,-0.9998624009765092,-0.008652074585150393,-0.013428438579155535,-0.00012,-0.03694,-0.041760000000000005,3.4957000000000003,0.7821,-9.517000000000001,3.3849336476232534,7.571893473714361,21.489999771118164,21.489999771118164,15.960000038146973,11.429999351501465,17.45007795194584,17.45007795194584,12.959667182175693,9.28126485801321,14.285271986020145,0.8866181934031573,-9.90000057220459,45.025001525878906,0.0,244.0,0.0,0.0,0.0,,,,,
pylon_camera_1771859898844025035.png,1771859898844025035,1771859898.8440251,42.30097235614738,-83.6973238034395,238.90121459960938,-0.0034933014685739616,-0.9998466256448706,-0.008869226905409523,-0.014692135498836087,-0.05365000000000001,-0.025510000000000005,-0.034440000000000005,1.0188000000000001,-0.6629,-9.039100000000001,3.484810194757152,7.795311317060064,21.979999542236328,21.479999542236328,12.989999771118164,17.81999969482422,17.84796228389168,17.44195767389168,10.54799958194584,14.470004052594453,15.076980898080912,0.9341088873621878,-11.199999809265137,45.125,0.0,228.0,0.0,0.0,0.0,,,,,
pylon_camera_1771859898894227902.png,1771859898894227902,1771859898.894228,42.30097235044517,-83.69732638673767,238.90272521972656,-0.002544005044529285,-0.9998363019102199,-0.009450880710895398,-0.015217696100837765,-0.043140000000000005,-0.033580000000000006,-0.026650000000000004,1.6466,0.2306,-8.855,3.6198236238812385,8.097328257204898,21.84000015258789,22.34000015258789,12.6899995803833,16.649999618530273,17.734281488702777,18.140286098702774,10.304396661067372,13.519953203243064,14.924729362928996,0.8431671396857555,-13.300000190734863,44.45000076293945,0.0,4.0,0.0,0.0,0.0,,,,,
pylon_camera_1771859898944293639.png,1771859898944293639,1771859898.9442937,42.300972340634935,-83.6973281822932,238.90293884277344,-0.0016771328565360901,-0.9998256569666859,-0.009906265544589787,-0.015738767406525297,-0.010870000000000001,-0.0018600000000000003,-0.024090000000000004,1.0378,1.7806000000000002,-9.331000000000001,3.7464786676537236,8.380647990821322,22.119998931884766,20.3799991607666,16.440000534057617,12.649999618530273,17.961643079080584,16.548747222134743,13.34943201045971,10.271916323243065,14.532934658729523,0.734106321449884,-15.5,44.5,0.0,28.0,0.0,0.0,0.0,,,,,
pylon_camera_1771859898995060012.png,1771859898995060012,1771859898.99506,42.30097232558504,-83.69733095712466,238.9024658203125,-0.0006330671554155012,-0.9998193350735107,-0.01039680188190676,-0.015899778293045487,-0.022510000000000002,0.01119,-0.023710000000000005,2.6056,1.3759000000000001,-10.2459,3.864995820029992,8.64576374965789,21.770000457763672,18.94999885559082,15.269999504089355,14.50999927520752,17.677441091108324,15.387573789729194,12.399380386715984,11.782253193661825,14.31166211530383,0.6553380973277391,-18.399999618530273,44.57500076293945,0.0,8.0,0.0,0.0,0.0,,,,,
pylon_camera_1771859899045031580.png,1771859899045031580,1771859899.0450318,42.30097230698881,-83.69733285710623,238.90213012695312,0.00043025949756447785,-0.9998110759389038,-0.010800013897813836,-0.016155092276542625,0.008610000000000001,0.0032800000000000004,-0.028550000000000006,3.9673000000000003,-0.8451000000000001,-9.9235,3.9970433722693164,8.941146201164125,20.760000228881836,20.75,14.1899995803833,16.1299991607666,16.857311593054163,16.849191315,11.522410491067372,13.097708037134742,14.58165535906407,0.6308485546478995,-21.100000381469727,44.275001525878906,0.0,64.0,0.0,0.0,0.0,,,,,
pylon_camera_1771859899096000594.png,1771859899096000594,1771859899.0960004,42.30097227858667,-83.69733580561935,238.90240478515625,0.0013016563062850926,-0.9997970428741421,-0.010856163784593552,-0.01692106553569263,0.030700000000000005,-0.03848000000000001,-0.04581000000000001,2.8347,-1.7541,-10.545200000000001,4.117563392518526,9.210742255260392,21.559999465942383,22.1299991607666,15.299999237060547,15.380000114440918,17.506918349540292,17.96976335713474,12.42374044648613,12.48870189652708,15.097281012422062,0.6390949387167771,-23.5,44.42499923706055,0.0,112.0,0.0,0.0,0.0,,,,,
pylon_camera_1771859899146140039.png,1771859899146140039,1771859899.14614,42.300972254978475,-83.69733783080528,238.90293884277344,0.00198320054250628,-0.9997750046542395,-0.010850909157342555,-0.01811807811779382,0.024390000000000002,-0.04820000000000001,-0.03492000000000001,1.2298,0.0623,-10.6782,4.238096814610308,9.480368288474383,22.78999900817871,22.119998931884766,16.119998931884766,16.15999984741211,18.50568931843197,17.961643079080584,13.089587759080583,13.122068871297225,15.66974725697259,0.6528627137853762,-25.5,44.07500076293945,0.0,108.0,0.0,0.0,0.0,,,,,
pylon_camera_1771859899196899410.png,1771859899196899410,1771859899.1968994,42.300972206552125,-83.69734095790174,238.90394592285156,0.00244612626857682,-0.9997423180285254,-0.010343692971438005,-0.02005796662031085,0.04082000000000001,-0.07724000000000002,-0.024980000000000006,2.0122,-0.030000000000000002,-10.229800000000001,4.369662982201739,9.77467391140636,22.850000381469727,24.229999542236328,17.639999389648438,18.19999885559082,18.55441098675694,19.67498302889168,14.323842145188904,14.778566874729195,16.83295075889168,0.7220984466038101,-28.700000762939453,43.97500228881836,0.0,0.0,0.0,0.0,0.0,,,,,
pylon_camera_1771859899247003493.png,1771859899247003493,1771859899.2470033,42.300972163004545,-83.6973430994983,238.90518188476562,0.002583115793771073,-0.9997053945449588,-0.010475611780133226,-0.021741968363882015,-0.00021000000000000004,-0.09941000000000003,-0.0043100000000000005,1.2534,1.4167,-9.5365,4.4566885970420005,9.969344990267134,23.78999900817871,22.799999237060547,20.209999084472656,19.59000015258789,19.31769853843197,18.513809596486134,16.410705592783355,15.907260743702773,17.537368617851058,0.7591294749025568,-31.80000114440918,43.82500076293945,0.0,48.0,0.0,0.0,0.0,,,,,
pylon_camera_1771859899297801486.png,1771859899297801486,1771859899.2978015,42.30097208492471,-83.69734636797054,238.90383911132812,0.002693588144210168,-0.9996752729867082,-0.010934365526082374,-0.022858976626301684,-0.029740000000000003,-0.006970000000000001,0.00203,0.6467,-0.020900000000000002,-7.9915,4.55830280841405,10.196649884253725,22.90999984741211,20.079999923706055,21.93000030517578,22.44999885559082,18.603131106297226,16.305145075648614,17.807362442405548,18.229606059729196,17.736311171020144,0.7394253379641498,-34.79999923706055,43.92499923706055,0.0,84.0,0.0,0.0,0.0,,,,,
pylon_camera_1771859899347926685.png,1771859899347926685,1771859899.3479269,42.300972029387175,-83.69734859094673,238.900146484375,0.0026325093958580177,-0.999673008810787,-0.011581024358970935,-0.02264564470854988,-0.00557,0.012160000000000002,-0.0021600000000000005,1.6796,-0.8435,-9.5645,4.668188224412571,10.442456966717458,21.100000381469727,19.170000076293945,22.85999870300293,22.18000030517578,17.133394851756936,15.566216809351387,18.56252971602642,18.010364747405546,17.31812653113507,0.6584340817809423,-37.10000228881836,43.900001525878906,0.0,40.0,0.0,0.0,0.0,,,,,
pylon_camera_1771859899399002589.png,1771859899399002589,1771859899.3990026,42.300971936502656,-83.69735200297829,238.89248657226562,0.002206089139935807,-0.9996680464209571,-0.012675985479570568,-0.022321503706861222,-0.025610000000000004,-0.015060000000000002,0.0033200000000000005,2.3209,0.2767,-11.0256,4.787136440031118,10.708536988163209,18.989999771118164,20.10999870300293,21.770000457763672,23.25,15.42005490194584,16.32950436102642,17.677441091108324,18.879214365000003,17.076553679770146,0.5946672919602267,-38.20000076293945,43.70000076293945,0.0,20.0,0.0,0.0,0.0,,,,,
pylon_camera_1771859899448894925.png,1771859899448894925,1771859899.448895,42.3009718675835,-83.6973543342746,238.88796997070312,0.0013612238628106785,-0.9996572904395975,-0.013413534438423901,-0.02243938132896519,-0.035190000000000006,-0.03534000000000001,0.049940000000000005,2.6144000000000003,2.2089000000000003,-9.701,4.910314440533837,10.98407878460776,18.729999542236328,22.639999389648438,21.1299991607666,22.75,15.20893231889168,18.383888245188903,17.157754137134745,18.473209755000003,17.30594611405383,0.5755482506466585,-38.5,43.25,0.0,0.0,0.0,0.0,0.0,,,,,
pylon_camera_1771859899499980936.png,1771859899499980936,1771859899.4999812,42.30097177666112,-83.69735792485129,238.88119506835938,0.00027965681365421625,-0.9996624973253982,-0.012441847040703285,-0.022803808353667392,0.04519000000000001,-0.016760000000000004,0.05321000000000001,2.2396000000000003,2.0173,-9.1704,5.032771826008607,11.258008608471693,20.85999870300293,18.3799991607666,19.969999313354492,22.189998626708984,16.93851127602642,14.924728782134743,16.215823565837518,18.018483476675033,16.524386775168427,0.467789495447158,-37.20000076293945,43.22500228881836,0.0,0.0,0.0,0.0,0.0,,,,,
pylon_camera_1771859899550008235.png,1771859899550008235,1771859899.5500083,42.30097171109341,-83.697360389087,238.87777709960938,-0.000920620209091894,-0.9996514906833647,-0.01127915510841187,-0.02385016337466142,0.03087,-0.03248,0.05585000000000001,1.8188000000000002,-0.7582,-10.3934,5.158554117366629,11.539376047302108,20.459999084472656,16.649999618530273,18.56999969482422,20.489999771118164,16.613707897783357,13.519953203243064,15.079010967594453,16.63806873194584,15.462685200141678,0.3399931795928286,-35.10000228881836,42.775001525878906,0.0,0.0,0.0,0.0,0.0,,,,,
pylon_camera_1771859899601089282.png,1771859899601089282,1771859899.6010892,42.30097160740597,-83.69736416243852,238.8721466064453,-0.0022595339390975027,-0.9996276947007204,-0.011423027512267939,-0.024675512885349717,-0.036410000000000005,0.013600000000000001,0.062020000000000006,1.2936,-0.6949000000000001,-8.9312,5.267153770723861,11.782306955883035,19.619998931884766,14.210000038146973,18.479999542236328,18.06999969482422,15.931620029080582,11.538651047175694,15.005930013891678,14.673006357594453,14.287301861935601,0.21260648830760556,-33.400001525878906,42.150001525878906,0.0,0.0,0.0,0.0,0.0,,,,,
pylon_camera_1771859899650867273.png,1771859899650867273,1771859899.6508672,42.30097152964996,-83.69736673658174,238.867431640625,-0.003972226756480568,-0.9996056070464416,-0.013428483399773221,-0.024341890014785532,-0.10961000000000001,0.029870000000000004,0.07607000000000001,1.4937,0.6454000000000001,-11.2239,5.400150123570223,12.079811817419177,18.639999389648438,14.769999504089355,15.50999927520752,17.53999900817871,15.135851365188906,11.993375776715984,12.594262413661824,14.242640913431968,13.491532617249671,0.11686612516552472,-31.600000381469727,40.29999923706055,0.0,0.0,0.0,0.0,0.0,,,,,
pylon_camera_1771859899711552892.png,1771859899711552892,1771859899.7115529,42.30097140800009,-83.69737069041607,238.86134338378906,-0.0069346222527506,-0.9995740919963887,-0.01555368562342789,-0.023698702228903554,-0.026960000000000005,0.039220000000000005,0.09871,2.2562,2.2662,-9.5325,5.55262808981921,12.420895879240184,16.06999969482422,15.50999927520752,15.839999198913574,15.929999351501465,13.048987917594452,12.594262413661824,12.862225394310435,12.93530634801321,12.860195518394981,0.03536779016793994,-29.5,39.42499923706055,0.0,0.0,0.0,0.0,0.0,,,,,
pylon_camera_1771859899751749572.png,1771859899751749572,1771859899.7517495,42.3009713431755,-83.69737338639735,238.8574676513672,-0.008811356011871607,-0.9995563555163296,-0.01645497264394185,-0.023209610669548113,-0.019700000000000006,0.0032400000000000003,0.10619000000000002,2.7228000000000003,4.2746,-10.0099,5.67345373919119,12.691175607346342,15.9399995803833,15.84999942779541,16.119998931884766,16.100000381469727,12.943426626067373,12.870345672364598,13.089587759080583,13.073348751756935,12.994177202317374,0.02387498245597033,-28.399999618530273,39.29999923706055,0.0,0.0,0.0,0.0,0.0,,,,,
pylon_camera_1771859899802640541.png,1771859899802640541,1771859899.8026407,42.300971297938474,-83.6973775305118,238.85073852539062,-0.010739045991362384,-0.9995546187448159,-0.016339527443867404,-0.0225445532227347,0.013600000000000001,0.034690000000000006,0.08193000000000002,2.5819,1.9302000000000001,-9.1935,5.784206945114867,12.938923883805252,16.31999969482422,16.760000228881836,16.43000030517578,17.219999313354492,13.251990222594452,13.609274713054162,13.341311732405547,13.982798210837517,13.54634371972292,0.04694515876068586,-28.100000381469727,38.67499923706055,0.0,0.0,0.0,0.0,0.0,,,,,
pylon_camera_1771859899861427578.png,1771859899861427578,1771859899.8614275,42.30097130106202,-83.69738177813741,238.8416290283203,-0.012705585372994377,-0.9995676262544836,-0.015032708163477102,-0.02184367939652624,0.04743000000000001,0.021790000000000004,0.054610000000000006,2.4737,1.0379,-10.783800000000001,5.942933535078058,13.293985741957513,16.779998779296875,16.510000228881836,16.94999885559082,16.779998779296875,13.625513720377807,13.406272408054162,13.763555349729195,13.625513720377807,13.605213799634743,0.02341119237814093,-25.899999618530273,37.17499923706055,0.0,0.0,0.0,0.0,0.0,,,,,
pylon_camera_1771859899904872497.png,1771859899904872497,1771859899.9048724,42.3009713189687,-83.69738467953322,238.83499145507812,-0.01388322640716777,-0.9995683588674555,-0.014609971549765396,-0.021375235831770135,0.0012900000000000001,0.023700000000000002,0.05745000000000001,2.0111,1.8542,-9.2377,6.0410220841870865,13.513403941001462,16.979999542236328,16.920000076293945,17.18000030517578,16.84000015258789,13.78791618389168,13.739196064351386,13.950318647405549,13.674235388702774,13.787916571087846,0.02031409934054267,-22.600000381469727,33.375,0.0,0.0,0.0,0.0,0.0,,,,,
pylon_camera_1771859899953374781.png,1771859899953374781,1771859899.9533746,42.300971362650294,-83.69738911436521,238.8247528076172,-0.015328750678177239,-0.9995528610302882,-0.015100543476467172,-0.02076249010901623,-0.014870000000000001,0.03986000000000001,0.07644000000000001,2.4311000000000003,4.4477,-9.0139,6.1641004909301325,13.788722952181251,17.329999923706055,17.10999870300293,17.440000534057617,16.989999771118164,14.072119720648613,13.89347670102642,14.161441230459708,13.796036461945839,13.980768528520146,0.01392772753538537,-16.899999618530273,31.0,0.0,0.0,0.0,0.0,0.0,,,,,
pylon_camera_1771859900013127807.png,1771859900013127807,1771859900.0131276,42.30097142136435,-83.69739366021003,238.8144073486328,-0.01659715174065357,-0.999561984772174,-0.013969231986756687,-0.02013041753441362,0.10452000000000002,0.00477,0.02125,3.87,2.5606,-8.6449,6.3272499709161245,14.153678549941116,17.739999771118164,17.53999900817871,18.09000015258789,17.44999885559082,14.405043376945839,14.242640913431968,14.689246913702775,14.169559959729195,14.376622790952446,0.015751681813648194,-10.699999809265137,30.450000762939453,0.0,16.0,0.0,0.0,0.0,,,,,
pylon_camera_1771859900054109909.png,1771859900054109909,1771859900.05411,42.300971477226,-83.69739673195556,238.80645751953125,-0.017102235801959464,-0.9995762350413613,-0.012596955472957302,-0.019904285566774184,0.040870000000000004,0.012780000000000001,0.03143,1.616,0.8638,-8.6852,6.408737203076863,14.33596059905076,17.899999618530273,17.81999969482422,18.10999870300293,17.729999542236328,14.534964728243066,14.470004052594453,14.70548592102642,14.396923098891678,14.526844450188904,0.013315037371878903,-8.5,30.30000114440918,0.0,8.0,0.0,0.0,0.0,,,,,
pylon_camera_1771859900105299769.png,1771859900105299769,1771859900.1052997,42.300971536981216,-83.6973998494331,238.798095703125,-0.017395254672182503,-0.9995994391564753,-0.011123340961738087,-0.019355558343769314,0.01589,0.007490000000000002,0.01912,0.7008,-1.0063,-12.538400000000001,6.520818509424147,14.586679756471252,18.049999237060547,18.049999237060547,18.079999923706055,17.85999870300293,14.65676580148613,14.65676580148613,14.681126635648614,14.50248361602642,14.624285463661824,0.002578085473761673,-7.5,31.0,0.0,4.0,0.0,0.0,0.0,,,,,
pylon_camera_1771859900155222043.png,1771859900155222043,1771859900.155222,42.30097160636017,-83.69740461525109,238.7920684814453,-0.017577326709247942,-0.9995989367299545,-0.01108197143367446,-0.01924040496569349,0.02211,-0.00969,-0.007370000000000001,2.5896000000000003,-2.4975,-11.292100000000001,6.637429072808819,14.847530590128962,18.5,18.229999542236328,18.459999084472656,18.34000015258789,15.02217057,14.802927708891678,14.989689457783356,14.892249218702775,14.926759238844452,0.005336149889340122,-7.0,30.524999618530273,0.0,0.0,0.0,0.0,0.0,,,,,
pylon_camera_1771859900206190119.png,1771859900206190119,1771859900.20619,42.30097164757711,-83.69740785630644,238.79100036621094,-0.01782243737713668,-0.9995698594808481,-0.012028309240419817,-0.01994433554151549,-0.01908,-0.050440000000000006,0.0020900000000000003,2.2046,-0.4329,-9.7227,6.737360403124592,15.071070980165526,18.529998779296875,18.649999618530273,18.75,18.729999542236328,15.046529855377807,15.143971643243065,15.225172875,15.20893231889168,15.15615167312814,0.005645298404777247,-6.200000286102295,30.600000381469727,0.0,0.0,0.0,0.0,0.0,,,,,
pylon_camera_1771859900256063444.png,1771859900256063444,1771859900.2560635,42.30097168547413,-83.69741277577475,238.79080200195312,-0.018181448988678905,-0.9995403486010654,-0.012655623318181722,-0.02069689903248591,-0.033850000000000005,-0.014060000000000001,0.010910000000000001,1.6814,-0.3869,-8.3596,6.81281762770568,15.239864264119946,18.889999389648438,18.899999618530273,18.90999984741211,18.989999771118164,15.338853670188904,15.346973948243065,15.355094226297227,15.42005490194584,15.36524418666876,0.008227102313765477,-5.0,30.600000381469727,0.0,0.0,0.0,0.0,0.0,,,,,
pylon_camera_1771859900307121613.png,1771859900307121613,1771859900.3071218,42.30097170928036,-83.69741609210539,238.78985595703125,-0.018560133909207244,-0.9995187785966466,-0.013007829496706109,-0.021178504048321507,-0.020690000000000004,-0.016150000000000005,0.010540000000000002,1.1083,-0.8015,-9.0997,6.909176111695719,15.455412411296622,19.119998931884766,19.209999084472656,19.309999465942383,19.25,15.525615419080582,15.598696372783357,15.679897604540292,15.631177485000002,15.608846720351059,0.009927545443063582,-4.099999904632568,30.5,0.0,0.0,0.0,0.0,0.0,,,,,
pylon_camera_1771859900357012678.png,1771859900357012678,1771859900.3570127,42.300971749359874,-83.69742113762302,238.78546142578125,-0.018812261819371012,-0.9994973829464487,-0.01341037811852612,-0.021708110170111285,-0.009200000000000002,-0.05025,0.006950000000000001,1.5918,-0.5803,-10.1455,7.016332981449052,15.695115899522644,19.309999465942383,19.399999618530273,19.510000228881836,19.60999870300293,15.679897604540292,15.752978558243067,15.842300068054161,15.923499751026421,15.799668995465984,0.006661505184967734,-3.9000000953674316,29.80000114440918,0.0,0.0,0.0,0.0,0.0,,,,,
pylon_camera_1771859900407821915.png,1771859900407821915,1771859900.407822,42.300971779335995,-83.69742454127127,238.78134155273438,-0.019004400241960984,-0.9994596755768508,-0.01440945374148074,-0.02261763272607854,-0.014700000000000003,-0.03883,0.006150000000000001,1.4799,1.8137,-8.5694,7.124608436385012,15.93732159568709,19.69999885559082,19.670000076293945,19.65999984741211,19.829999923706055,15.996580704729196,15.972221419351389,15.964101141297226,16.102142770648612,16.008761509006604,0.004482554542844069,-4.400000095367432,29.774999618530273,0.0,0.0,0.0,0.0,0.0,,,,,
pylon_camera_1771859900457624280.png,1771859900457624280,1771859900.4576244,42.30097184122978,-83.69742972587086,238.77198791503906,-0.01891427923735517,-0.9994350126624854,-0.01507511686220348,-0.02333765962688519,-0.00205,-0.051680000000000004,-0.004700000000000001,1.9837,2.9037,-8.2001,7.220512249424461,16.151852671227555,19.959999084472656,20.139999389648438,19.959999084472656,20.029998779296875,16.207703287783357,16.353865195188906,16.207703287783357,16.26454368537781,16.258453864033356,0.006599935931541608,-4.700000286102295,29.5,0.0,0.0,0.0,0.0,0.0,,,,,
pylon_camera_1771859900508870212.png,1771859900508870212,1771859900.5088701,42.300971884463145,-83.69743323067749,238.76416015625,-0.018928014052062847,-0.9994219738763801,-0.014804779020717277,-0.024047181440510292,0.026270000000000005,-0.03962000000000001,0.006640000000000001,1.867,1.8092000000000001,-10.4776,7.300893779874123,16.331661331951622,20.329999923706055,20.10999870300293,20.229999542236328,20.18000030517578,16.508147380648612,16.32950436102642,16.426946148891677,16.38634630740555,16.412736049493063,0.0049642663960233,-4.300000190734863,29.975000381469727,0.0,0.0,0.0,0.0,0.0,,,,,
pylon_camera_1771859900558599584.png,1771859900558599584,1771859900.5585997,42.3009719625789,-83.69743854047584,238.75328063964844,-0.01912277801378509,-0.9994073751506226,-0.01435250101296962,-0.02476335135338002,0.023460000000000005,-0.019700000000000006,0.012480000000000002,1.6037000000000001,1.7944,-11.1701,7.373779398443415,16.494702087554014,20.44999885559082,20.34000015258789,20.389999389648438,20.44999885559082,16.605587619729196,16.516267658702777,16.556867500188904,16.605587619729196,16.571077599587518,0.004630305635597556,-3.1000001430511475,30.325000762939453,0.0,0.0,0.0,0.0,0.0,,,,,
pylon_camera_1771859900609698113.png,1771859900609698113,1771859900.609698,42.30097201085468,-83.69744212424784,238.74766540527344,-0.019238232951443945,-0.999387247654711,-0.013911563320842158,-0.025719409480343593,0.00232,-0.008960000000000003,0.009250000000000001,1.6099,0.6386000000000001,-9.0222,7.45212349646205,16.66995313417582,20.68000030517578,20.68000030517578,20.709999084472656,20.68000030517578,16.79235091740555,16.79235091740555,16.81671020278336,16.79235091740555,16.798440738750003,0.007707736400935903,-1.5,31.05000114440918,0.0,0.0,0.0,0.0,0.0,,,,,
pylon_camera_1771859900659882241.png,1771859900659882241,1771859900.6598823,42.30097209326578,-83.69744754951797,238.74179077148438,-0.019221122339387775,-0.9993634428755902,-0.013582073947870052,-0.026810161639486994,-0.014020000000000003,-0.05176000000000001,0.0021200000000000004,0.9098,0.018500000000000003,-12.473500000000001,7.54004416961825,16.86662640478585,20.850000381469727,20.93000030517578,20.84000015258789,20.899999618530273,16.930392546756934,16.995353222405548,16.922272268702773,16.970992388243065,16.95475260652708,0.005224886093180048,-0.30000001192092896,32.025001525878906,0.0,0.0,0.0,0.0,0.0,,,,,
pylon_camera_1771859900711179600.png,1771859900711179600,1771859900.7111795,42.300972150636795,-83.69745120747557,238.739990234375,-0.019074830638324658,-0.9993396410428399,-0.01260802170629807,-0.028239519562851152,0.020710000000000006,-0.03844,-0.00992,1.2965,-2.7088,-9.2052,7.630168334922735,17.068228755122064,20.969999313354492,21.439998626708984,21.25,21.279998779296875,17.027832785837518,17.409476561675035,17.255195925000002,17.279555210377808,17.24301512072259,0.010240451315024286,0.0,32.60000228881836,0.0,0.0,0.0,0.0,0.0,,,,,
pylon_camera_1771859900761203951.png,1771859900761203951,1771859900.761204,42.300972241233985,-83.69745676883693,238.73486328125,-0.018860611173478314,-0.9993123807207602,-0.011346999314379526,-0.029837705859008894,0.07539,-0.026840000000000003,-0.02009,0.7235,-3.3124000000000002,-9.102500000000001,7.712297949413232,17.251947774960435,21.229999542236328,21.40999984741211,21.53999900817871,21.5,17.23895536889168,17.385117276297226,17.49067779343197,17.45819823,17.39323716715522,0.008189764659492749,0.20000000298023224,32.35000228881836,0.0,0.0,0.0,0.0,0.0,,,,,
pylon_camera_1771859900822162140.png,1771859900822162140,1771859900.8221622,42.300972332693775,-83.69746238123248,238.72325134277344,-0.018739526677405804,-0.9992911737590264,-0.01115551088993112,-0.03068443846640082,0.005170000000000001,-0.011960000000000002,-0.00483,-0.5746,-1.7115,-9.0518,7.77547534971681,17.393271828795523,21.689998626708984,21.729999542236328,21.78999900817871,21.779998779296875,17.612478866675033,17.644959978891677,17.69368009843197,17.685559820377808,17.65916969109412,0.015287397616496114,0.6000000238418579,32.900001525878906,0.0,0.0,0.0,0.0,0.0,,,,,
pylon_camera_1771859900870776477.png,1771859900870776477,1771859900.8707767,42.30097238541789,-83.69746615997784,238.7113037109375,-0.018616890410195652,-0.9993167679421654,-0.011838805828142054,-0.029652173236417473,-0.011170000000000003,0.05163000000000001,-0.019750000000000004,0.6881,-1.8306,-8.313,7.846367461001707,17.551853228213158,22.029998779296875,22.149999618530273,21.90999984741211,22.079999923706055,17.88856212537781,17.986003913243067,17.791121886297226,17.929163515648614,17.89871286014168,0.019761994783033632,0.699999988079071,33.70000076293945,0.0,0.0,0.0,0.0,0.0,,,,,
pylon_camera_1771859900924067726.png,1771859900924067726,1771859900.9240677,42.30097244870367,-83.6974718623617,238.69158935546875,-0.018462091337274666,-0.9993602343087572,-0.012403464940890084,-0.02800762973298605,-0.012850000000000002,0.0751,-0.013160000000000002,0.6304000000000001,-1.4280000000000002,-9.663400000000001,7.91027466917039,17.69480981845401,22.299999237060547,22.34000015258789,22.18000030517578,22.299999237060547,18.107804986486133,18.140286098702774,18.010364747405546,18.107804986486133,18.091565204770145,0.022422133404471814,0.699999988079071,34.650001525878906,0.0,0.0,0.0,0.0,0.0,,,,,
pylon_camera_1771859900963590498.png,1771859900963590498,1771859900.9635904,42.30097249446042,-83.69747570163392,238.67840576171875,-0.018330876387587958,-0.9993995738359457,-0.012718935732683132,-0.026508479043904545,-0.0005000000000000001,0.0534,-0.016770000000000004,1.3008,0.0804,-11.2673,7.987886091039672,17.868421912490287,22.549999237060547,22.420000076293945,22.35999870300293,22.420000076293945,18.31080729148613,18.205246774351387,18.15652510602642,18.205246774351387,18.21945648655383,0.01964552750000633,0.699999988079071,34.85000228881836,0.0,0.0,0.0,0.0,0.0,,,,,
pylon_camera_1771859901014555004.png,1771859901014555004,1771859901.014555,42.300972565383965,-83.69748153322438,238.66293334960938,-0.018120997637614433,-0.9994380567996883,-0.01278121188171313,-0.02513644143301804,0.0027600000000000003,0.041890000000000004,-0.009020000000000002,0.919,0.2697,-11.9662,8.077093239399149,18.067972950941535,22.6299991607666,22.709999084472656,22.619998931884766,22.670000076293945,18.375767967134742,18.440728642783355,18.36764768908058,18.40824907935139,18.398098344587517,0.018271302184386943,0.9000000357627869,35.04999923706055,0.0,0.0,0.0,0.0,0.0,,,,,
pylon_camera_1771859901064528647.png,1771859901064528647,1771859901.0645287,42.30097262207902,-83.69748545869125,238.6551971435547,-0.017939348761982055,-0.9994690008739426,-0.012464157158280833,-0.024177279507271346,0.011270000000000002,0.03656000000000001,-0.007420000000000001,0.9216000000000001,0.37370000000000003,-9.8436,8.162967191182014,18.260067828642697,22.850000381469727,22.869998931884766,22.979999542236328,22.899999618530273,18.55441098675694,18.570649994080583,18.659971503891676,18.595010828243066,18.595010828243066,0.0183429219838372,1.100000023841858,35.29999923706055,0.0,0.0,0.0,0.0,0.0,,,,,
pylon_camera_1771859901123841940.png,1771859901123841940,1771859901.123842,42.30097270762848,-83.69749141728325,238.64215087890625,-0.017676197908294555,-0.9995240746531744,-0.011675078534245462,-0.022424735392899797,0.06515000000000001,0.05670000000000001,-0.027780000000000006,1.5961,-0.8326,-7.6184,8.26969351166288,18.498808203979163,23.119998931884766,23.209999084472656,23.25,23.25,18.77365229908058,18.846733252783356,18.879214365000003,18.879214365000003,18.844703570465985,0.018698251404780684,1.3000000715255737,34.775001525878906,0.0,0.0,0.0,0.0,0.0,,,,,
pylon_camera_1771859901173796972.png,1771859901173796972,1771859901.173797,42.30097278831612,-83.69749745088112,238.6267852783203,-0.01738270997346758,-0.9995689550777647,-0.011226427161712798,-0.020825771820194145,0.050660000000000004,0.060530000000000014,-0.023460000000000005,1.8655000000000002,-0.7712,-10.3919,8.35917042241194,18.698962684710168,23.489999771118164,23.579999923706055,23.53999900817871,23.40999984741211,19.07409639194584,19.14717734564861,19.11469623343197,19.009135716297227,19.086276421830913,0.020713113537439466,1.399999976158142,35.275001525878906,0.0,0.0,0.0,0.0,0.0,,,,,
pylon_camera_1771859901215383451.png,1771859901215383451,1771859901.2153835,42.300972847177526,-83.69750153070497,238.61700439453125,-0.017206374222045684,-0.9995950110775709,-0.011101208397221375,-0.019761520363660395,0.018800000000000004,0.028820000000000002,-0.015430000000000001,2.1927000000000003,0.7208,-10.8146,8.44275021157147,18.885925658272686,23.619998931884766,23.619998931884766,23.689998626708984,23.579999923706055,19.17965690908058,19.17965690908058,19.236497306675037,19.14717734564861,19.185747117621204,0.015875391271445882,1.399999976158142,35.45000076293945,0.0,0.0,0.0,0.0,0.0,,,,,
pylon_camera_1771859901265702611.png,1771859901265702611,1771859901.2657027,42.30097289874674,-83.69750564187666,238.60816955566406,-0.016976048511703812,-0.9996073749433882,-0.010995311574938462,-0.019391051005205835,-0.007180000000000001,-0.015160000000000003,-0.010910000000000001,1.8851,0.5904,-10.3541,8.551689993288486,19.129617413586747,23.809999465942383,23.84000015258789,23.8799991607666,23.84000015258789,19.33393909454029,19.358299928702774,19.390779492134744,19.358299928702774,19.360329611020145,0.012060471071916762,1.399999976158142,35.35000228881836,0.0,0.0,0.0,0.0,0.0,,,,,
pylon_camera_1771859901316453205.png,1771859901316453205,1771859901.3164532,42.30097297675516,-83.69751189598468,238.59939575195312,-0.01679876010336656,-0.9995958814070154,-0.010965127622690512,-0.020140543918664173,-0.01264,-0.039580000000000004,-0.004730000000000001,1.5647,-0.1236,-10.6724,8.654967532813814,19.360643072852532,23.94999885559082,23.989999771118164,24.0,24.049999237060547,19.447619889729197,19.48010100194584,19.48822128,19.528821121486132,19.486190823290293,0.006484689065612897,1.399999976158142,36.150001525878906,0.0,0.0,0.0,0.0,0.0,,,,,
pylon_camera_1771859901366583284.png,1771859901366583284,1771859901.3665833,42.300973029327466,-83.69751611055717,238.59625244140625,-0.016693758121022306,-0.999565725559165,-0.011043786599943218,-0.021626685014393864,-0.006450000000000001,-0.06517,-0.0022800000000000003,1.3088,-0.6359,-10.6211,8.748766173206235,19.570465003491957,24.189998626708984,24.209999084472656,24.329999923706055,24.28999900817871,19.642501916675034,19.658742472783356,19.756184260648617,19.72370314843197,19.695282949634745,0.006377873296343043,1.399999976158142,36.57500076293945,0.0,0.0,0.0,0.0,0.0,,,,,
pylon_camera_1771859901417324888.png,1771859901417324888,1771859901.4173248,42.30097309528973,-83.69752250216719,238.593017578125,-0.016644515326180054,-0.9995226686945425,-0.01124954612967505,-0.023470035943152324,-0.01711,-0.052980000000000006,-0.00288,0.9016000000000001,-0.1695,-9.739,8.841528692171453,19.77796919266601,24.53999900817871,24.619998931884766,24.51999855041504,24.559999465942383,19.92670545343197,19.99166612908058,19.910464897323646,19.94294600954029,19.942945622344123,0.008341424140719604,1.399999976158142,37.10000228881836,0.0,0.0,0.0,0.0,0.0,,,,,
pylon_camera_1771859901467317490.png,1771859901467317490,1771859901.4673176,42.30097313556581,-83.69752680706247,238.59112548828125,-0.016542365684534432,-0.9994951237635807,-0.01163258866939166,-0.02450572568262864,-0.030410000000000003,-0.024460000000000003,-0.0029000000000000007,0.9586,0.1416,-8.9021,8.918221617113275,19.94952666418537,24.779998779296875,24.829999923706055,24.969999313354492,24.8799991607666,20.12158748037781,20.162188870648613,20.27586966583752,20.202788712134744,20.19060868224967,0.012084598402883721,1.399999976158142,37.47500228881836,0.0,0.0,0.0,0.0,0.0,,,,,
pylon_camera_1771859901518276568.png,1771859901518276568,1771859901.5182767,42.30097319999252,-83.69753331476929,238.5872039794922,-0.01636156970270075,-0.9994783599996688,-0.01201657580556674,-0.025117898700820516,-0.01665,-0.013040000000000001,-0.0034100000000000007,0.6917,0.0995,-10.0098,9.000221413426168,20.13295528854953,25.0,25.10999870300293,25.09000015258789,25.35999870300293,20.3002305,20.38955046102642,20.373311453702776,20.59255276602642,20.413911295188903,0.013955030576120294,1.399999976158142,37.5,0.0,0.0,0.0,0.0,0.0,,,,,
pylon_camera_1771859901568367241.png,1771859901568367241,1771859901.5683672,42.30097324697945,-83.69753768847934,238.5823211669922,-0.016179594324616575,-0.999483009461956,-0.01188480564935477,-0.025113460913206476,0.017410000000000002,-0.0015500000000000002,-0.01322,1.0532000000000001,-0.5959,-7.538,9.070050274222666,20.28915826041965,25.399999618530273,25.459999084472656,25.43000030517578,25.60999870300293,20.625033878243066,20.673753997783358,20.64939471240555,20.795555071026424,20.6859344148646,0.019556067795034462,1.399999976158142,37.5,0.0,0.0,0.0,0.0,0.0,,,,,
pylon_camera_1771859901619114518.png,1771859901619114518,1771859901.6191144,42.30097332370521,-83.69754430412993,238.56944274902344,-0.015937070054009794,-0.9995114430499483,-0.011732530810047836,-0.024191583889748076,0.0068000000000000005,0.016010000000000003,-0.00305,0.9337000000000001,0.6643,-8.9587,9.175802662570025,20.525720008009394,25.869998931884766,25.3799991607666,25.760000228881836,25.689998626708984,21.006677654080583,20.608793322134744,20.917357693054164,20.860515746675034,20.84833610398613,0.01571765062813138,1.600000023841858,37.42499923706055,0.0,0.0,0.0,0.0,0.0,,,,,
pylon_camera_1771859901669604720.png,1771859901669604720,1771859901.6696045,42.30097338668119,-83.69754873916884,238.5579071044922,-0.015646895657495496,-0.9996014447283057,-0.010036093420978515,-0.02124625101547295,0.04410000000000001,0.12710000000000002,-0.009600000000000001,4.161700000000001,-1.4118000000000002,-8.7919,9.231789353199405,20.65095887574588,25.829999923706055,26.01999855041504,26.029998779296875,25.969999313354492,20.974198090648613,21.12847872732365,21.136599005377807,21.08787888583752,21.0817886772969,0.020862459905288996,1.7000000476837158,40.85000228881836,0.0,0.0,0.0,0.0,0.0,,,,,
pylon_camera_1771859901722241301.png,1771859901722241301,1771859901.7222412,42.30097347432125,-83.6975554586661,238.53866577148438,-0.015334997142020301,-0.9996722677122502,-0.008932793968936122,-0.01844993825491146,0.047900000000000005,0.11862000000000002,-0.02274,3.072,-0.8918,-9.5839,9.311441128310323,20.829135117562494,26.170000076293945,26.260000228881836,26.299999237060547,26.1299991607666,21.25028134935139,21.323362303054164,21.35584186648613,21.217800237134743,21.286821439006605,0.021973371379121927,1.399999976158142,40.875,0.0,0.0,0.0,0.0,0.0,,,,,
pylon_camera_1771859901770919894.png,1771859901770919894,1771859901.77092,42.300973527614694,-83.69755999420715,238.52838134765625,-0.015049425388749371,-0.9997080963510545,-0.008950547002608108,-0.016647059619441802,0.01203,0.040850000000000004,-0.014700000000000003,2.5069,-0.4229,-12.0136,9.43948165892226,21.11555410210956,26.35999870300293,26.439998626708984,26.510000228881836,26.469999313354492,21.404561986026422,21.469522661675033,21.526364608054163,21.49388349583752,21.473583187898285,0.016955704030184864,0.800000011920929,40.97500228881836,0.0,0.0,0.0,0.0,0.0,,,,,
pylon_camera_1771859901822114344.png,1771859901822114344,1771859901.8221142,42.300973602722095,-83.69756688939616,238.51573181152344,-0.014903854910002345,-0.9997096616582564,-0.00948377924034881,-0.01638674547543465,-0.014070000000000003,-0.013420000000000001,-0.006750000000000001,2.5091,-0.4953,-11.682400000000001,9.580318382048905,21.430597401540478,26.69999885559082,26.689998626708984,26.65999984741211,26.739999771118164,21.680645244729195,21.672524966675034,21.64816568129723,21.71312635694584,21.678615562411824,0.011573086658495038,-0.20000000298023224,40.60000228881836,0.0,0.0,0.0,0.0,0.0,,,,,
pylon_camera_1771859901880316173.png,1771859901880316173,1771859901.8803163,42.30097366193353,-83.69757390337223,238.5074005126953,-0.014992335718864103,-0.9996695558140334,-0.01000904322402706,-0.018325613277751025,-0.019770000000000003,-0.08718000000000001,0.0016200000000000001,2.3262,-0.7762,-10.6826,9.730696688246946,21.766984649807124,27.029998779296875,26.989999771118164,27.029998779296875,26.94999885559082,21.948608225377807,21.91612866194584,21.948608225377807,21.883647549729197,21.924248165607665,0.007224864552010144,-1.399999976158142,40.20000076293945,0.0,0.0,0.0,0.0,0.0,,,,,
pylon_camera_1771859901925148206.png,1771859901925148206,1771859901.9251482,42.300973699799314,-83.69757863321443,238.50314331054688,-0.015262905093993584,-0.9996263216750787,-0.01005634855581396,-0.02032561428758454,0.011480000000000002,-0.10067000000000002,0.01771,0.6694,1.1513,-8.193,9.81314338838212,21.9514129712075,27.189998626708984,27.19999885559082,26.920000076293945,27.349998474121094,22.078529576675038,22.086649854729195,21.859288264351388,22.20845092797226,22.05822965593197,0.004866050530076442,-2.0,40.275001525878906,0.0,0.0,0.0,0.0,0.0,,,,,
pylon_camera_1771859901981876744.png,1771859901981876744,1771859901.9818769,42.3009737686201,-83.69758581597297,238.50030517578125,-0.015390356957761142,-0.999543521705372,-0.009565685932878152,-0.02417401046928148,0.014190000000000001,-0.10765000000000001,0.004070000000000001,0.1277,1.5427000000000002,-12.401200000000001,9.931272688405812,22.2156611276025,27.779998779296875,27.369998931884766,27.51999855041504,27.469999313354492,22.557615140377806,22.22469148408058,22.346492557323646,22.305892715837516,22.358672974404886,0.006437433753645914,-2.299999952316284,40.125,0.0,0.0,0.0,0.0,0.0,,,,,
pylon_camera_1771859902023958885.png,1771859902023958885,1771859902.0239587,42.30097382634067,-83.6975906554253,238.50340270996094,-0.015310825947972395,-0.999490762566799,-0.008821248704229352,-0.026570278954641282,-0.00839,-0.17523000000000002,-0.012400000000000001,2.012,-3.9480000000000004,-7.4842,10.046664211353834,22.473785040945845,27.25,27.849998474121094,27.809999465942383,27.75,22.127251245,22.614455537972262,22.581975974540292,22.533255855,22.464234653128138,0.0004249568019053069,-2.1000001430511475,40.275001525878906,0.0,0.0,0.0,0.0,0.0,,,,,
pylon_camera_1771859902074042380.png,1771859902074042380,1771859902.0740423,42.30097391353831,-83.69759795520248,238.50086975097656,-0.015500842688709382,-0.9994264973820646,-0.009307062680383777,-0.02863177938622501,0.05016000000000001,-0.049600000000000005,0.007320000000000001,0.8470000000000001,1.6712,-5.830900000000001,10.065248231751841,22.515356379534964,28.719999313354492,27.899999618530273,28.239999771118164,28.239999771118164,23.32090424083752,22.655056928243066,22.93114018694584,22.93114018694584,22.959560385743067,0.01972893516408458,-1.7000000476837158,40.22500228881836,0.0,0.0,0.0,0.0,0.0,,,,,
pylon_camera_1771859902125105219.png,1771859902125105219,1771859902.1251051,42.30097395910417,-83.69760286036316,238.49142456054688,-0.01552650103112635,-0.9994487362732835,-0.009115633368582074,-0.027893665154591667,-0.09035000000000001,0.02476,0.0041,1.1433,-0.7803,-6.892,10.15344017082365,22.712636455722258,28.34000015258789,28.279998779296875,28.649999618530273,28.670000076293945,23.012341418702775,22.96361975037781,23.264063843243065,23.28030439935139,23.130082352918762,0.01837945577169367,-2.1000001430511475,36.875,0.0,0.0,0.0,0.0,0.0,,,,,
pylon_camera_1771859902175063497.png,1771859902175063497,1771859902.1750636,42.300974039347814,-83.69761026241945,238.46893310546875,-0.015510798576148344,-0.9995076036707826,-0.009343355819571127,-0.025625515289427594,0.014230000000000001,0.10627,-0.007710000000000002,1.4312,-2.5948,-7.6290000000000004,10.229701741803817,22.883229014310633,28.799999237060547,28.84000015258789,29.010000228881836,28.959999084472656,23.38586491648613,23.418346028702775,23.55638765805416,23.515786267783355,23.469096217756604,0.025602470834845206,-3.299999952316284,33.95000076293945,0.0,0.0,0.0,0.0,0.0,,,,,
pylon_camera_1771859902225443217.png,1771859902225443217,1771859902.2254434,42.300974096351844,-83.69761524128057,238.4513397216797,-0.015672836082662678,-0.9995585478408615,-0.01005230566104427,-0.023152166168439303,0.0028300000000000005,0.09486000000000001,0.007530000000000001,1.9064,0.8281000000000001,-10.808200000000001,10.348374986166393,23.148693941555052,29.17999839782715,29.149999618530273,29.10999870300293,29.1299991607666,23.694427738620874,23.670068453243065,23.63758734102642,23.653827897134743,23.663977857506275,0.022259740322810088,-3.5,29.05000114440918,0.0,0.0,0.0,0.0,0.0,,,,,
pylon_camera_1771859902275845810.png,1771859902275845810,1771859902.275846,42.300974172689244,-83.6976228046167,238.42579650878906,-0.015849498171166543,-0.9995910799823193,-0.010973357778579121,-0.021119934814444907,-0.05263000000000001,0.05949000000000001,0.011100000000000002,3.4835000000000003,0.9683,-11.4154,10.475710758408264,23.433536423913782,29.439998626708984,29.099998474121094,29.42999839782715,29.26999855041504,23.905550321675033,23.62946706297226,23.897430043620872,23.76750869232365,23.79998903014795,0.015637955774366462,-3.299999952316284,23.67500114440918,0.0,0.0,0.0,0.0,0.0,,,,,
pylon_camera_1771859902335739133.png,1771859902335739133,1771859902.3357391,42.30097426479088,-83.69763047646227,238.40646362304688,-0.016168165037264925,-0.9995736410181681,-0.012094502219217661,-0.021091458865602326,-0.005790000000000001,-0.07542000000000001,0.006080000000000001,3.0349,4.113700000000001,-13.0509,10.62345616395842,23.76403403140515,29.60999870300293,29.510000228881836,29.479999542236328,29.349998474121094,24.043591951026425,23.962392268054163,23.93803143389168,23.83246936797226,23.944121255236134,0.007578141976778505,-3.200000047683716,20.125,0.0,0.0,0.0,0.0,0.0,,,,,
pylon_camera_1771859902377167941.png,1771859902377167941,1771859902.377168,42.30097435414275,-83.69763564258162,238.4010009765625,-0.01624253946202503,-0.9995411002169947,-0.01159329164451191,-0.022789569492844105,0.03277000000000001,-0.08141000000000001,0.013200000000000002,0.3235,3.3616,-12.356900000000001,10.672690700791792,23.874168736229194,29.709999084472656,29.65999984741211,30.260000228881836,29.51999855041504,24.124793182783357,24.08419334129723,24.57139918305416,23.97051099732365,24.1877241761146,0.013133669421108815,-2.9000000953674316,20.625,0.0,0.0,0.0,0.0,0.0,,,,,
pylon_camera_1771859902427330821.png,1771859902427330821,1771859902.4273307,42.30097442172364,-83.69764084677509,238.395751953125,-0.016321657365169384,-0.9994801188436064,-0.011285645812490613,-0.02541121279709194,0.00218,-0.11789000000000001,-0.00928,-0.9425,-0.5236000000000001,-12.0111,10.76022310522417,24.069973473000157,30.25,29.8799991607666,29.849998474121094,29.8799991607666,24.563278905000004,24.262834812134745,24.23847397797226,24.262834812134745,24.331855626810437,0.010880034998959981,-2.5,20.774999618530273,0.0,0.0,0.0,0.0,0.0,,,,,
pylon_camera_1771859902477320801.png,1771859902477320801,1771859902.4773207,42.300974525703396,-83.69764867482472,238.38758850097656,-0.016535921666582798,-0.9994545500093936,-0.011225941947477084,-0.02628961748578344,0.02767,-0.046020000000000005,-0.01119,-0.7729,0.617,-6.4046,10.795081559629574,24.14794974399778,31.3799991607666,29.8799991607666,30.09000015258789,30.28999900817871,25.48084864213474,24.262834812134745,24.433357553702773,24.595758468431967,24.693199869101058,0.02257956186275416,-2.1000001430511475,22.875,0.0,0.0,0.0,0.0,0.0,,,,,
pylon_camera_1771859902528076062.png,1771859902528076062,1771859902.528076,42.30097458532897,-83.69765390680902,238.3813018798828,-0.016672510660480477,-0.9994443761877886,-0.012030089267137072,-0.026234390541858988,-0.13647,-0.024460000000000003,0.019860000000000003,0.6795,1.2419,-9.5302,10.849568856258916,24.26983455731982,30.549999237060547,30.079999923706055,30.389999389648438,30.479999542236328,24.806881051486133,24.425237275648612,24.676959700188903,24.750040653891677,24.66477967030383,0.01627308633073857,-2.700000047683716,23.92500114440918,0.0,0.0,0.0,0.0,0.0,,,,,
pylon_camera_1771859902578129252.png,1771859902578129252,1771859902.578129,42.300974668036275,-83.69766179978407,238.36744689941406,-0.016717934096798337,-0.9994457204118665,-0.012290235006272014,-0.02603291672922591,-0.043800000000000006,0.008990000000000001,0.007700000000000001,-0.542,-3.5176000000000003,-9.822600000000001,10.878217069196563,24.33391889076856,30.489999771118164,30.56999969482422,30.469999313354492,30.649999618530273,24.758160931945838,24.82312160759445,24.741920375837516,24.88808228324307,24.802821299655218,0.01926949830775269,-3.799999952316284,24.274999618530273,0.0,0.0,0.0,0.0,0.0,,,,,
pylon_camera_1771859902629207730.png,1771859902629207730,1771859902.6292078,42.30097473613677,-83.69766707822652,238.35545349121094,-0.016953812619849296,-0.9994483143301216,-0.012466051608881812,-0.025694995186108703,0.031190000000000006,0.0060300000000000015,0.0068800000000000016,-0.4712,-1.7824,-10.2149,10.934099203459462,24.458923872186613,30.599998474121094,30.67999839782715,30.67999839782715,30.639999389648438,24.84748089297226,24.912441568620874,24.912441568620874,24.879962005188904,24.88808150885073,0.017546055538123263,-4.599999904632568,24.325000762939453,0.0,0.0,0.0,0.0,0.0,,,,,
pylon_camera_1771859902679248378.png,1771859902679248378,1771859902.6792483,42.30097484269416,-83.69767503067149,238.33558654785156,-0.017160318566142974,-0.9994741038316817,-0.011816215006412873,-0.024847863076877207,0.06350000000000001,0.03968,0.007710000000000002,0.6087,0.7932,-9.6814,10.982234412774615,24.566599447312047,30.920000076293945,30.829999923706055,30.709999084472656,30.719999313354492,25.10732514435139,25.034244190648614,24.936802402783357,24.944922680837518,25.00582360465522,0.017878915569294645,-4.5,24.225000381469727,0.0,0.0,0.0,0.0,0.0,,,,,
pylon_camera_1771859902730327516.png,1771859902730327516,1771859902.7303276,42.30097492883411,-83.69768036003231,238.32322692871094,-0.01727514647606787,-0.9995013904144971,-0.010061192909105014,-0.02443997281019271,0.10248000000000002,0.06671,-0.01485,1.6508,1.4792,-11.627,11.03217638619694,24.678316645339386,30.869998931884766,30.779998779296875,30.760000228881836,30.67999839782715,25.06672375408058,24.993642800377806,24.97740379305416,24.912441568620874,24.987552979033357,0.012530689922579108,-4.099999904632568,24.125,0.0,0.0,0.0,0.0,0.0,,,,,
pylon_camera_1771859902780475678.png,1771859902780475678,1771859902.7804756,42.300975051201604,-83.69768839503365,238.310302734375,-0.017188139124690305,-0.9994842412735658,-0.009300703162934635,-0.02548168440094957,-0.11508000000000002,-0.020790000000000003,0.016970000000000002,-1.4031,-1.2439,-8.3378,11.065708148809597,24.75332518639814,31.10999870300293,31.099998474121094,31.189998626708984,31.34000015258789,25.26160578102642,25.25348550297226,25.326566456675035,25.448369078702775,25.322506704844123,0.022994143783104604,-3.1000001430511475,23.100000381469727,0.0,0.0,0.0,0.0,0.0,,,,,
pylon_camera_1771859902860958210.png,1771859902860958210,1771859902.860958,42.30097522574602,-83.69769918050999,238.28854370117188,-0.01771181349987372,-0.999423807325013,-0.011572198652514631,-0.0265410857514872,0.0029100000000000003,-0.055380000000000006,0.013890000000000003,2.8188,5.5926,-7.162800000000001,11.17981190530638,25.008568443456056,31.10999870300293,31.170000076293945,31.03999900817871,31.1299991607666,25.26160578102642,25.310327449351387,25.204765383431972,25.277846337134743,25.263636237736133,0.010199216114939992,-2.799999952316284,0.0,0.0,0.0,0.0,0.0,0.0,,,,,
pylon_camera_1771859902898416224.png,1771859902898416224,1771859902.898416,42.300975279141724,-83.69770459678759,238.27696228027344,-0.017705699579493417,-0.9993976631686193,-0.012177497503321541,-0.02724935981010079,-0.09594000000000001,-0.025440000000000004,0.027240000000000004,0.6346,-1.1409,-9.3915,11.189336000214416,25.029873272319637,31.279998779296875,31.099998474121094,31.139999389648438,31.209999084472656,25.399647410377806,25.25348550297226,25.285966615188908,25.342807012783357,25.320476635330582,0.011610261060822911,-2.700000047683716,0.0,0.0,0.0,0.0,0.0,0.0,,,,,
pylon_camera_1771859902944402683.png,1771859902944402683,1771859902.9444027,42.300975355806536,-83.69771003458315,238.26504516601562,-0.01774450388218607,-0.9993726959746652,-0.011980563278939956,-0.02821016174756481,0.028670000000000005,-0.08962000000000002,-0.019010000000000003,-0.4505,-1.5401,-10.581800000000001,11.237915392754266,25.13854245866773,31.389999389648438,31.349998474121094,31.309999465942383,31.170000076293945,25.488968920188906,25.456487807972263,25.424008244540293,25.310327449351387,25.419948105513214,0.011194191043819125,-2.4000000953674316,0.0,0.0,0.0,0.0,0.0,0.0,,,,,
pylon_camera_1771859903001771853.png,1771859903001771853,1771859903.0017717,42.300975475547475,-83.69771821243783,238.248046875,-0.017768770267872824,-0.9993452655355168,-0.011534752557300021,-0.029330198402956285,0.08737,-0.02457,-0.031520000000000006,-0.052500000000000005,-2.5546,-10.945400000000001,11.277936193202395,25.228066588022166,31.5,31.529998779296875,31.619998931884766,31.26999855041504,25.578290430000003,25.602649715377808,25.675730669080583,25.391527132323645,25.56204948669551,0.01323854515398788,-1.8000000715255737,0.0,0.0,0.0,0.0,0.0,0.0,,,,,
pylon_camera_1771859903034136046.png,1771859903034136046,1771859903.034136,42.30097557737589,-83.69772368491893,238.23788452148438,-0.017860163816462604,-0.9993145952233498,-0.01166036482712238,-0.030255416277755548,0.00544,-0.06703,0.020800000000000003,2.1387,3.6529000000000003,-9.2291,11.314543012053745,25.309953845383507,31.529998779296875,31.15999984741211,31.729999542236328,31.229999542236328,25.602649715377808,25.302207171297226,25.76505217889168,25.35904756889168,25.5072391586146,0.007794771750130085,-1.5,0.0,0.0,0.0,0.0,0.0,0.0,,,,,
pylon_camera_1771859903084139501.png,1771859903084139501,1771859903.0841396,42.30097566219801,-83.69772916393634,238.228271484375,-0.01783182211181117,-0.999285363272391,-0.00935800731544463,-0.03198775654562428,0.04499000000000001,-0.024350000000000004,0.020060000000000005,-0.9101,0.9223,-7.457800000000001,11.293507046770962,25.262897653203837,31.559999465942383,31.34000015258789,31.510000228881836,31.529998779296875,25.62701054954029,25.448369078702775,25.58641070805416,25.602649715377808,25.56611001291876,0.012002279543592642,-1.2000000476837158,0.0,0.0,0.0,0.0,0.0,0.0,,,,,
pylon_camera_1771859903143460929.png,1771859903143460929,1771859903.1434608,42.30097579507425,-83.69773737194248,238.20765686035156,-0.01791077824039844,-0.9992923404771381,-0.00829438277250908,-0.03201914272697157,-0.03171,0.025090000000000005,0.0006000000000000001,-3.2446,-2.9277,-9.7155,11.26566951563131,25.200626766296303,31.84000015258789,32.21999740600586,31.6299991607666,31.549999237060547,25.854373688702776,26.16293496205284,25.683850947134744,25.61889027148613,25.83001246734412,0.024975001887237433,-1.5,0.0,0.0,0.0,0.0,0.0,0.0,,,,,
pylon_camera_1771859903184666387.png,1771859903184666387,1771859903.1846664,42.30097587501315,-83.69774284614897,238.190673828125,-0.018012404132101312,-0.9993247448679491,-0.009292799951154476,-0.030647209678174348,-0.0035000000000000005,0.05235000000000001,-0.014370000000000003,1.4854,0.2422,-11.102,11.32151442407244,25.325548475784604,31.619998931884766,31.59000015258789,31.709999084472656,31.76999855041504,25.675730669080583,25.651371383702777,25.748811622783357,25.797531742323645,25.718361354472588,0.01551053786904468,-1.899999976158142,0.0,0.0,0.0,0.0,0.0,0.0,,,,,
pylon_camera_1771859903235381719.png,1771859903235381719,1771859903.2353818,42.30097598732439,-83.69775106964502,238.16680908203125,-0.018090312285222065,-0.9993413611377995,-0.010411408431804322,-0.029684795689704203,-0.03867,-0.0046500000000000005,-0.0018600000000000003,2.4766,0.8063,-10.096300000000001,11.343827837298502,25.375462242366513,31.719999313354492,31.489999771118164,31.599998474121094,31.84000015258789,25.756931900837518,25.57017015194584,25.65949011297226,25.854373688702776,25.7102414636146,0.013193029472745718,-2.1000001430511475,0.0,0.0,0.0,0.0,0.0,0.0,,,,,
pylon_camera_1771859903285109193.png,1771859903285109193,1771859903.2851093,42.300976067617995,-83.69775656155045,238.1513214111328,-0.018202029424770505,-0.9993569424538157,-0.010466431154470822,-0.029066157521575684,0.025810000000000003,0.034230000000000003,-0.0006100000000000001,0.42650000000000005,2.0858000000000003,-6.2335,11.341677261321744,25.370651532941064,31.76999855041504,31.6299991607666,31.489999771118164,31.969999313354492,25.797531742323645,25.683850947134744,25.57017015194584,25.959934205837516,25.752871761810436,0.01506544790042541,-2.1000001430511475,0.0,0.0,0.0,0.0,0.0,0.0,,,,,
pylon_camera_1771859903335901178.png,1771859903335901178,1771859903.3359013,42.300976203180554,-83.69776481755547,238.1261749267578,-0.018156275884534223,-0.9993769419480988,-0.008824282076349835,-0.028951849583539146,0.06502000000000001,-0.027100000000000003,0.004880000000000001,-1.2476,1.9722000000000002,-14.250100000000002,11.36299895772231,25.418346888487346,31.760000228881836,31.65999984741211,31.420000076293945,31.84000015258789,25.789413013054162,25.708211781297226,25.513329754351386,25.854373688702776,25.716332059351387,0.011723231733807491,-1.899999976158142,0.0,0.0,0.0,0.0,0.0,0.0,,,,,
pylon_camera_1771859903385960055.png,1771859903385960055,1771859903.3859599,42.300976298007626,-83.69777033545579,238.11294555664062,-0.017883927012388834,-0.9993801012737873,-0.007039000179960496,-0.02949628466564012,0.019410000000000004,-0.06966,-0.010660000000000003,-1.2836,-0.40690000000000004,-10.7634,11.3941015607784,25.487921545367637,31.739999771118164,31.739999771118164,31.67999839782715,31.059999465942383,25.77317245694584,25.77317245694584,25.72445078862087,25.22100593954029,25.62295041051321,0.005297758975961399,-1.600000023841858,0.0,0.0,0.0,0.0,0.0,0.0,,,,,
pylon_camera_1771859903437311532.png,1771859903437311532,1771859903.4373114,42.300976439933635,-83.6977786286475,238.09901428222656,-0.01776556132905599,-0.9993409187751662,-0.006802007286727765,-0.030916752564618424,0.057760000000000006,0.0015900000000000003,-0.0273,-1.5467,-1.7100000000000002,-6.6869000000000005,11.399339482925628,25.499638462935657,31.739999771118164,31.670000076293945,31.989999771118164,32.189998626708984,25.77317245694584,25.716332059351387,25.976174761945842,26.138575676675035,25.901063738729526,0.015742390872613768,-1.399999976158142,0.0,0.0,0.0,0.0,0.0,0.0,,,,,
pylon_camera_1771859903496075749.png,1771859903496075749,1771859903.4960759,42.30097655188894,-83.69778693116626,238.0857391357422,-0.017745109341477272,-0.9993187581734806,-0.007237036172135405,-0.03153975213147171,0.01042,0.013230000000000002,-0.00821,-1.7358,1.3444,-8.0997,11.395499643287378,25.491048972055268,31.84000015258789,31.809999465942383,31.959999084472656,31.989999771118164,25.854373688702776,25.830012854540293,25.951813927783355,25.976174761945842,25.903093808243067,0.01616429502918874,-1.399999976158142,0.0,0.0,0.0,0.0,0.0,0.0,,,,,
pylon_camera_1771859903547063353.png,1771859903547063353,1771859903.5470634,42.3009766245966,-83.69779245662616,238.0729217529297,-0.01776264192086524,-0.9993444025752428,-0.007426536949449237,-0.030661052533475164,-0.014270000000000003,0.04481000000000001,-0.00992,0.8380000000000001,-0.5841000000000001,-9.7238,11.414561732909355,25.533689722814255,32.04999923706055,32.189998626708984,32.06999969482422,31.899999618530273,26.02489488148613,26.138575676675035,26.041135437594452,25.903093808243067,26.02692495099967,0.01931703696331486,-1.5,0.0,0.0,0.0,0.0,0.0,0.0,,,,,
pylon_camera_1771859903588019406.png,1771859903588019406,1771859903.5880194,42.300976702115115,-83.69779797615261,238.05892944335938,-0.017889045693992633,-0.9993712311883918,-0.006851752325564979,-0.029835847687392867,0.06293000000000001,0.10466000000000002,0.011980000000000001,-1.0674000000000001,0.2492,-8.628400000000001,11.381951630188365,25.46074287963356,32.21999740600586,32.23999786376953,32.040000915527344,31.809999465942383,26.16293496205284,26.179175518161166,26.016776152216647,25.830012854540293,26.047224871742735,0.023034755697498143,-1.600000023841858,0.0,0.0,32.0,0.0,0.0,0.0,,,,,
pylon_camera_1771859903648048605.png,1771859903648048605,1771859903.6480486,42.300976819601544,-83.6978062416825,238.03439331054688,-0.017875621593019586,-0.999471112921914,-0.0059587327459103435,-0.026503775039731056,0.06383000000000001,0.1573,-0.007810000000000001,-0.7609,1.6979000000000002,-10.9624,11.353130823825984,25.396272465049297,32.07999801635742,31.920000076293945,31.92999839782715,31.920000076293945,26.04925416686394,25.919334364351386,25.927453093620873,25.919334364351386,25.953843997296897,0.021954857076562622,-1.399999976158142,0.0,0.0,0.0,0.0,0.0,0.0,,,,,
pylon_camera_1771859903697994785.png,1771859903697994785,1771859903.6979947,42.30097693504349,-83.69781449434093,238.01031494140625,-0.01788896003243201,-0.9995657583536511,-0.005708837744685127,-0.022708787009732362,-0.08680000000000002,0.14764000000000002,0.0029100000000000003,0.5865,-1.2818,-10.062800000000001,11.357065147995442,25.405073312156926,31.969999313354492,32.11000061035156,32.099998474121094,32.05999755859375,25.959934205837516,26.073616549811096,26.06549472297226,26.033013610755617,26.03301477234412,0.02471716780627081,-1.2000000476837158,0.0,0.0,0.0,0.0,0.0,0.0,,,,,
pylon_camera_1771859903748938945.png,1771859903748938945,1771859903.748939,42.30097700250022,-83.69781999690917,237.99708557128906,-0.0178795535293807,-0.9996256569228469,-0.006726725873184757,-0.019586187637817356,-0.027350000000000003,0.15399000000000004,-0.00496,-1.1468,-1.5379,-10.2436,11.334785143579504,25.355234279078736,32.20000076293945,32.20000076293945,32.029998779296875,32.04999923706055,26.14669750351387,26.14669750351387,26.00865432537781,26.02489488148613,26.08173605347292,0.028652930846457956,-1.2000000476837158,0.0,0.0,0.0,0.0,0.0,0.0,,,,,
pylon_camera_1771859903790220523.png,1771859903790220523,1771859903.7902205,42.30097706915097,-83.69782550529341,237.98463439941406,-0.017879205788261854,-0.9996717324402045,-0.007035863423475716,-0.016948686859681105,0.059190000000000006,0.13046000000000002,-0.016560000000000002,-1.3092000000000001,2.5616000000000003,-11.715200000000001,11.343112788712276,25.37386272158204,32.38999938964844,32.040000915527344,32.14999771118164,32.11000061035156,26.300978140188906,26.016776152216647,26.10609456445839,26.073616549811096,26.12436635166876,0.02957782338155275,-1.3000000715255737,0.0,0.0,0.0,0.0,0.0,0.0,,,,,
pylon_camera_1771859903841585458.png,1771859903841585458,1771859903.8415854,42.300977177668756,-83.69783375427076,237.968994140625,-0.01780993867194458,-0.9997224179697839,-0.0065513167062596165,-0.01396328552184268,-0.038130000000000004,0.03472,-0.013280000000000002,-2.3129,2.2137000000000002,-11.8979,11.369072687591586,25.431933457781124,32.34000015258789,32.040000915527344,32.04999923706055,32.0099983215332,26.260378298702776,26.016776152216647,26.02489488148613,25.992413769269486,26.073615775418762,0.025231361929397858,-0.699999988079071,0.0,0.0,0.0,0.0,0.0,0.0,,,,,
pylon_camera_1771859903900087254.png,1771859903900087254,1771859903.9000874,42.30097728866892,-83.69784203237742,237.9641876220703,-0.017566518792166974,-0.9997482214975519,-0.005764034042786026,-0.012715618017208392,-0.012160000000000002,0.030350000000000002,-0.0033900000000000007,0.6607000000000001,-0.2858,-11.041400000000001,11.403658982691292,25.50930092474146,31.889999389648438,31.76999855041504,31.8799991607666,32.06999969482422,25.894973530188906,25.797531742323645,25.886853252134745,26.041135437594452,25.905123490560435,0.015516793932799098,-0.10000000149011612,0.0,0.0,0.0,0.0,0.0,0.0,,,,,
pylon_camera_1771859903951198934.png,1771859903951198934,1771859903.951199,42.300977356740965,-83.69784756931732,237.96913146972656,-0.017204080291872315,-0.9997273698654743,-0.005826444960507568,-0.014671676873968203,-0.054090000000000006,-0.09094000000000001,-0.008620000000000001,-1.3190000000000002,-2.513,-13.4471,11.425309980745682,25.55773290832925,31.69999885559082,31.67999839782715,31.84000015258789,31.90999984741211,25.740691344729196,25.72445078862087,25.854373688702776,25.911214086297225,25.807682477087518,0.009779802052662098,0.0,0.0,0.0,0.0,0.0,0.0,0.0,,,,,
pylon_camera_1771859904001075479.png,1771859904001075479,1771859904.0010755,42.3009774415037,-83.6978558896763,237.9772491455078,-0.01717962397188677,-0.9996609433651044,-0.007514319656580327,-0.018066372925215134,-0.10226000000000002,-0.13289,-0.0008500000000000001,-0.4783,-1.9908000000000001,-11.1133,11.441926821177722,25.594903783365297,31.729999542236328,31.59000015258789,31.510000228881836,31.760000228881836,25.76505217889168,25.651371383702777,25.58641070805416,25.789413013054162,25.698061820925695,0.004030413180433314,-0.10000000149011612,0.0,0.0,0.0,0.0,0.0,0.0,,,,,
pylon_camera_1771859904054298941.png,1771859904054298941,1771859904.0542989,42.3009775323612,-83.6978642077382,237.98895263671875,-0.01709233265333493,-0.9995942268269455,-0.007673221774148729,-0.02145589723860494,0.05760000000000001,-0.11630000000000001,-0.022490000000000003,-1.6837,-0.6455000000000001,-8.4174,11.407704458295584,25.518350410939725,31.559999465942383,31.619998931884766,31.26999855041504,31.69999885559082,25.62701054954029,25.675730669080583,25.391527132323645,25.740691344729196,25.60873992391843,0.003542137776270862,-0.10000000149011612,0.0,0.0,0.0,0.0,0.0,0.0,,,,,
pylon_camera_1771859904102508826.png,1771859904102508826,1771859904.1025088,42.30097759494192,-83.69786973571162,237.99151611328125,-0.01718206238506409,-0.9995457800255886,-0.008104591980701691,-0.023394998483853072,-0.011110000000000002,-0.08904000000000001,0.006840000000000001,-2.8152,1.7406000000000001,-4.4363,11.369427903531477,25.432728054525704,32.63999938964844,31.689998626708984,31.8799991607666,31.670000076293945,26.503980445188905,25.732571066675035,25.886853252134745,25.716332059351387,25.959934205837516,0.020729437682875596,1.0,0.0,0.0,0.0,0.0,0.0,0.0,,,,,
pylon_camera_1771859904153426631.png,1771859904153426631,1771859904.1534266,42.30097766826407,-83.69787801555765,237.9895782470703,-0.016727951510139394,-0.9995297133014958,-0.008741753563973956,-0.02416835969467122,-0.10483,-0.09084000000000002,0.0041800000000000006,-0.2207,0.0981,-8.6538,11.375537710571344,25.44639532628546,31.559999465942383,31.829999923706055,31.829999923706055,31.76999855041504,25.62701054954029,25.846253410648615,25.846253410648615,25.797531742323645,25.77926227829029,0.013081104326827192,1.3000000715255737,0.0,0.0,0.0,0.0,0.0,0.0,,,,,
pylon_camera_1771859904203512438.png,1771859904203512438,1771859904.2035124,42.30097771355394,-83.69788352179246,237.98361206054688,-0.016545118500758293,-0.9995394096253924,-0.009286072982201228,-0.02368536485019732,-0.007280000000000001,0.015460000000000002,-0.013190000000000002,-1.2266000000000001,-1.832,-5.913600000000001,11.32615734560316,25.335934412673534,31.689998626708984,31.85999870300293,31.84000015258789,31.739999771118164,25.732571066675035,25.87061269602642,25.854373688702776,25.77317245694584,25.807682477087518,0.018619722356796348,0.6000000238418579,0.0,0.0,0.0,0.0,0.0,0.0,,,,,
pylon_camera_1771859904245253727.png,1771859904245253727,1771859904.2452536,42.30097776135467,-83.69788901286815,237.97352600097656,-0.01630637865665291,-0.9995457720315793,-0.01067763054456726,-0.022985644103517635,-0.03713,0.027830000000000004,-1e-05,0.027200000000000002,3.1619,-9.326600000000001,11.324326643528813,25.331839241975345,31.729999542236328,31.85999870300293,31.69999885559082,31.65999984741211,25.76505217889168,25.87061269602642,25.740691344729196,25.708211781297226,25.77114200023613,0.017341921131918858,0.10000000149011612,0.0,0.0,0.0,0.0,0.0,0.0,,,,,
pylon_camera_1771859904295547917.png,1771859904295547917,1771859904.295548,42.30097783272776,-83.69789724307968,237.9566192626953,-0.016068748224624396,-0.9995777529658396,-0.011075847059590943,-0.02152758040674452,-0.040870000000000004,0.05582000000000001,0.0055000000000000005,0.0218,0.6608,-8.846400000000001,11.30381587349559,25.28595788005723,31.920000076293945,31.719999313354492,31.689998626708984,31.719999313354492,25.919334364351386,25.756931900837518,25.732571066675035,25.756931900837518,25.791442308175363,0.019990717002530647,0.10000000149011612,0.0,0.0,0.0,0.0,0.0,0.0,,,,,
pylon_camera_1771859904346583255.png,1771859904346583255,1771859904.3465834,42.30097787788084,-83.69790272861775,237.94712829589844,-0.015953896591244243,-0.9995932499934477,-0.01137810138113174,-0.02072067952682875,-0.012270000000000001,0.025770000000000005,0.011870000000000002,-0.9342,0.9974000000000001,-12.170300000000001,11.308025074666583,25.295373610524667,31.849998474121094,31.729999542236328,30.869998931884766,31.619998931884766,25.862492417972263,25.76505217889168,25.06672375408058,25.675730669080583,25.592499755006276,0.011746264319179054,0.4000000059604645,0.0,0.0,0.0,0.0,0.0,0.0,,,,,
pylon_camera_1771859904396133458.png,1771859904396133458,1771859904.3961334,42.300977954961844,-83.69791097013568,237.9373321533203,-0.015355864044845347,-0.9996043184912924,-0.01054314851545141,-0.021077141940408932,-0.004200000000000001,-0.03581,-0.03828000000000001,-0.5443,-4.1568000000000005,-9.2583,11.322060262505085,25.326769483608125,31.84000015258789,31.59000015258789,31.67999839782715,31.760000228881836,25.854373688702776,25.651371383702777,25.72445078862087,25.789413013054162,25.754902218520147,0.01690435628551508,0.699999988079071,0.0,0.0,0.0,0.0,0.0,0.0,,,,,
pylon_camera_1771859904447019748.png,1771859904447019748,1771859904.4470198,42.300978000023854,-83.69791647840844,237.9320831298828,-0.015444555654761938,-0.9995670460660153,-0.010944084618062844,-0.022525832534219557,-0.07993000000000001,-0.15927000000000002,-0.020460000000000006,-3.5944000000000003,-4.2018,-16.36,11.348234546963788,25.385319787485177,31.709999084472656,31.670000076293945,31.369998931884766,31.709999084472656,25.748811622783357,25.716332059351387,25.47272836408058,25.748811622783357,25.67167091724967,0.01128018603514554,0.30000001192092896,0.0,0.0,0.0,0.0,0.0,0.0,,,,,
pylon_camera_1771859904496950487.png,1771859904496950487,1771859904.4969506,42.30097805620033,-83.69792474893767,237.92591857910156,-0.015422735208525495,-0.9995229437058761,-0.011404408495247428,-0.024206687321918698,-0.025550000000000003,-0.15087000000000003,-0.023850000000000003,-1.6545,-1.6691,-9.578700000000001,11.378984344459244,25.454105239494663,31.599998474121094,31.459999084472656,31.469999313354492,31.729999542236328,25.65949011297226,25.545809317783355,25.553929595837516,25.76505217889168,25.631070301371203,0.006952319093973136,-0.4000000059604645,0.0,0.0,0.0,0.0,0.0,0.0,,,,,
pylon_camera_1771859904547978567.png,1771859904547978567,1771859904.5479784,42.30097810235717,-83.69793026710578,237.92294311523438,-0.015318508474212733,-0.999437068222484,-0.01156995222976705,-0.027514108496780557,0.016030000000000003,-0.12393000000000001,-0.012160000000000002,-1.3577000000000001,-1.4723000000000002,-9.1305,11.374062597359643,25.44309558653768,31.510000228881836,31.469999313354492,31.469999313354492,31.469999313354492,25.58641070805416,25.553929595837516,25.553929595837516,25.553929595837516,25.562049873891677,0.004675307175159045,-0.699999988079071,0.0,0.0,0.0,0.0,0.0,0.0,,,,,
pylon_camera_1771859904597866881.png,1771859904597866881,1771859904.597867,42.30097817634516,-83.6979385455829,237.91835021972656,-0.015238202932924105,-0.9993611751596303,-0.011206802994637275,-0.030322373284048795,0.05297,-0.1131,-0.01734,-0.7491,0.4132,-8.6209,11.369855400020505,25.43368433852187,31.420000076293945,31.399999618530273,31.639999389648438,31.510000228881836,25.513329754351386,25.497089198243067,25.691971225188905,25.58641070805416,25.57220022145938,0.005446158767006152,-0.6000000238418579,0.0,0.0,0.0,0.0,0.0,0.0,,,,,
pylon_camera_1771859904648989944.png,1771859904648989944,1771859904.64899,42.300978235649794,-83.69794405304992,237.91323852539062,-0.015101136665187087,-0.999313909623462,-0.010173141650188944,-0.03225171148103749,0.09102000000000002,-0.07,-0.019440000000000006,-1.2825,3.1139,-8.622,11.324688607148246,25.3326489328742,31.639999389648438,31.559999465942383,31.549999237060547,31.549999237060547,25.691971225188905,25.62701054954029,25.61889027148613,25.61889027148613,25.63919057942536,0.012100655062304242,-0.800000011920929,0.0,0.0,0.0,0.0,0.0,0.0,,,,,
pylon_camera_1771859904698887398.png,1771859904698887398,1771859904.6988873,42.30097832648589,-83.69795229428607,237.9002227783203,-0.015069884282919277,-0.9993191685770417,-0.009304602053753323,-0.03236544890482678,0.009950000000000002,0.03128000000000001,0.0014700000000000002,-1.6225,0.7948000000000001,-4.8912,11.30476777017319,25.288087215811217,31.76999855041504,31.6299991607666,31.809999465942383,31.69999885559082,25.797531742323645,25.683850947134744,25.830012854540293,25.740691344729196,25.76302172218197,0.01878095809768501,-0.9000000357627869,0.0,0.0,0.0,0.0,0.0,0.0,,,,,
pylon_camera_1771859904749932442.png,1771859904749932442,1771859904.7499325,42.30097837534926,-83.69795777184581,237.88636779785156,-0.014768627049543792,-0.9993658287742957,-0.009651451386592697,-0.030930202383251573,-0.021640000000000003,0.09638000000000001,0.0035300000000000006,-0.3719,0.8271000000000001,-9.5146,11.269012397315148,25.208104592050148,31.829999923706055,31.619998931884766,31.779998779296875,31.76999855041504,25.846253410648615,25.675730669080583,25.805652020377806,25.797531742323645,25.78129196060766,0.02273821764204667,-1.0,0.0,0.0,0.0,0.0,0.0,0.0,,,,,
pylon_camera_1771859904800053000.png,1771859904800053000,1771859904.800053,42.30097845681888,-83.69796595060366,237.85891723632812,-0.014711297418468716,-0.9994644848936175,-0.009052946591044643,-0.027791461325754902,0.0003800000000000001,0.14548000000000003,-0.0028200000000000005,-1.7527000000000001,-0.332,-8.5756,11.235581760413142,25.133322263138577,32.7599983215332,31.8799991607666,31.760000228881836,31.779998779296875,26.601420684269485,25.886853252134745,25.789413013054162,25.805652020377806,26.020834742459048,0.0353121831657778,-1.100000023841858,0.0,0.0,0.0,0.0,0.0,0.0,,,,,
pylon_camera_1771859904851263699.png,1771859904851263699,1771859904.8512638,42.30097851175853,-83.69797139371201,237.83909606933594,-0.014484100806362865,-0.9995528547826502,-0.008655954093101569,-0.024685537839455155,-0.009240000000000002,0.06812000000000001,-0.0015500000000000002,-1.5112,0.5721,-12.4259,11.277256446119019,25.226546034581478,31.889999389648438,31.65999984741211,31.69999885559082,31.739999771118164,25.894973530188906,25.708211781297226,25.740691344729196,25.77317245694584,25.779262278290293,0.021910103862460256,-0.800000011920929,0.0,0.0,0.0,0.0,0.0,0.0,,,,,
pylon_camera_1771859904900808669.png,1771859904900808669,1771859904.9008088,42.300978597083066,-83.69797958562013,237.8148956298828,-0.014340897191218727,-0.9995982374431743,-0.008091125210380225,-0.023070241894699337,0.02045,-0.014090000000000004,0.0023100000000000004,-0.4078,-0.23850000000000002,-13.1666,11.321031490904126,25.324468183263075,31.65999984741211,31.739999771118164,31.60999870300293,31.599998474121094,25.708211781297226,25.77317245694584,25.66761039102642,25.65949011297226,25.702121185560436,0.014912573861943983,-0.9000000357627869,0.0,0.0,0.0,0.0,0.0,0.0,,,,,
pylon_camera_1771859904960789547.png,1771859904960789547,1771859904.9607894,42.30097867452352,-83.69798782229115,237.7989959716797,-0.014311906459847923,-0.9995755611043113,-0.007527889888318167,-0.02423216561339266,0.018170000000000006,-0.08371,-0.00111,-0.3386,-0.5728,-12.5096,11.36373570876216,25.41999495635843,31.510000228881836,31.59000015258789,31.599998474121094,31.439998626708984,25.58641070805416,25.651371383702777,25.65949011297226,25.529568761675037,25.60671024160106,0.00734521330799583,-1.2000000476837158,0.0,0.0,0.0,0.0,0.0,0.0,,,,,
pylon_camera_1771859905010587881.png,1771859905010587881,1771859905.010588,42.30097871974842,-83.69799333860682,237.79222106933594,-0.014315163775095119,-0.9994920100792286,-0.007799370498545299,-0.027385538039295373,-0.01007,-0.15237,-0.00867,0.36970000000000003,0.038400000000000004,-10.952,11.391425998072474,25.481936472128243,31.35999870300293,31.44999885559082,31.35999870300293,31.42999839782715,25.464608086026423,25.537689039729198,25.464608086026423,25.521448483620873,25.497088423850727,0.0005946153950684392,-1.7000000476837158,0.0,0.0,0.0,0.0,0.0,0.0,,,,,
pylon_camera_1771859905056243374.png,1771859905056243374,1771859905.0562434,42.300978786213065,-83.69800162557944,237.7865753173828,-0.014334239635089396,-0.9993967228238321,-0.008000506304034448,-0.030605749164943782,-0.014330000000000002,-0.17485,0.00415,0.6787000000000001,0.8605,-10.3632,11.39490968480305,25.489729270323338,31.510000228881836,31.399999618530273,30.979999542236328,31.309999465942383,25.58641070805416,25.497089198243067,25.156045263891677,25.424008244540293,25.4158883536823,0.00289688901196017,-2.0,0.0,0.0,0.0,0.0,0.0,0.0,,,,,
pylon_camera_1771859905105581120.png,1771859905105581120,1771859905.105581,42.30097882850741,-83.69800714392642,237.78453063964844,-0.014432926001435475,-0.9992652130461999,-0.007859188340099684,-0.03462597004279756,-0.0483,-0.14810000000000004,0.032400000000000005,-2.3521,2.7164,-5.4785,11.361467740429653,25.41492164727671,31.459999084472656,31.439998626708984,31.42999839782715,31.619998931884766,25.545809317783355,25.529568761675037,25.521448483620873,25.675730669080583,25.56813930803996,0.006028649739302573,-2.1000001430511475,0.0,0.0,0.0,0.0,0.0,0.0,,,,,
pylon_camera_1771859905154551918.png,1771859905154551918,1771859905.1545517,42.30097889612026,-83.69801539979461,237.77261352539062,-0.014670242220702403,-0.9991931627996291,-0.00699531796534014,-0.03672700551669883,0.00051,-0.08468000000000002,0.016290000000000002,-3.2059,-1.2366000000000001,-5.9587,11.319608212410744,25.32128439467009,31.6299991607666,31.619998931884766,31.760000228881836,31.739999771118164,25.683850947134744,25.675730669080583,25.789413013054162,25.77317245694584,25.73054177155383,0.016162583639315133,-2.1000001430511475,0.0,0.0,0.0,0.0,0.0,0.0,,,,,
pylon_camera_1771859905212982244.png,1771859905212982244,1771859905.2129822,42.30097896845805,-83.69802360489768,237.7470703125,-0.014668338592946807,-0.999236921509477,-0.006432057886227577,-0.035623632135626915,0.06136000000000001,0.06843,0.0029400000000000003,-2.0911,0.4531,-7.7458,11.280539563216088,25.233890170540597,31.869998931884766,31.729999542236328,31.85999870300293,31.709999084472656,25.87873297408058,25.76505217889168,25.87061269602642,25.748811622783357,25.81580236794551,0.023060740673440307,-2.299999952316284,0.0,0.0,0.0,0.0,0.0,0.0,,,,,
pylon_camera_1771859905264051902.png,1771859905264051902,1771859905.264052,42.30097902625311,-83.69802905987994,237.7257537841797,-0.014606621193041402,-0.9993334468530402,-0.005799832914877772,-0.03294951526660998,0.03182,0.12372000000000002,0.0024700000000000004,-0.0437,0.4395,-8.0413,11.278887342108373,25.230194251055906,31.779998779296875,31.779998779296875,31.76999855041504,31.76999855041504,25.805652020377806,25.805652020377806,25.797531742323645,25.797531742323645,25.801591881350724,0.022647373405415012,-2.6000001430511475,0.0,0.0,0.0,0.0,0.0,0.0,,,,,
pylon_camera_1771859905314089695.png,1771859905314089695,1771859905.3140898,42.300979107925414,-83.69803725978903,237.69293212890625,-0.014609701467121372,-0.9994075760804249,-0.005451287448226833,-0.030681215120130546,0.005350000000000001,0.09012,0.006710000000000001,0.1154,0.31170000000000003,-11.358500000000001,11.291901306043657,25.2593057075413,31.84000015258789,31.779998779296875,31.729999542236328,31.689998626708984,25.854373688702776,25.805652020377806,25.76505217889168,25.732571066675035,25.789412238661825,0.02098658360836329,-2.799999952316284,0.0,0.0,0.0,0.0,0.0,0.0,,,,,
pylon_camera_1771859905365095409.png,1771859905365095409,1771859905.3650954,42.30097916109428,-83.69804274093428,237.67373657226562,-0.014636426638841626,-0.9994491321772501,-0.004803284450373264,-0.02939618451221553,0.023410000000000004,0.039150000000000004,0.0013300000000000002,-0.1514,0.0241,-11.9208,11.31853293941761,25.31887907350083,31.739999771118164,31.6299991607666,31.670000076293945,31.65999984741211,25.77317245694584,25.683850947134744,25.716332059351387,25.708211781297226,25.7203918111823,0.01585823513418089,-2.799999952316284,0.0,0.0,0.0,0.0,0.0,0.0,,,,,
pylon_camera_1771859905414881953.png,1771859905414881953,1771859905.414882,42.300979248802726,-83.69805097944486,237.65023803710938,-0.01477402113363796,-0.9994493150011603,-0.004229226003739593,-0.029409329993449914,0.017480000000000002,-0.006220000000000002,0.009300000000000001,-0.5584,0.8688,-11.262500000000001,11.331728244182345,25.348396178541257,31.619998931884766,31.619998931884766,31.6299991607666,31.599998474121094,25.675730669080583,25.675730669080583,25.683850947134744,25.65949011297226,25.67370059956704,0.012833333467510314,-2.700000047683716,0.0,0.0,0.0,0.0,0.0,0.0,,,,,
pylon_camera_1771859905456984767.png,1771859905456984767,1771859905.4569848,42.300979308139766,-83.69805647230211,237.6374053955078,-0.014788170228346387,-0.9994470836641407,-0.0032235444287980735,-0.029604826259538145,0.05577000000000001,-0.0013000000000000002,0.0014500000000000003,-0.9221,0.0942,-10.7271,11.321725716973798,25.32602112532737,31.739999771118164,31.65999984741211,31.639999389648438,31.719999313354492,25.77317245694584,25.708211781297226,25.691971225188905,25.756931900837518,25.732571841067372,0.016052688013176736,-2.700000047683716,0.0,0.0,0.0,0.0,0.0,0.0,,,,,
pylon_camera_1771859905506829289.png,1771859905506829289,1771859905.5068293,42.30097937676001,-83.6980619601194,237.62696838378906,-0.01482263727507932,-0.9994587070602815,-0.0014242431264281357,-0.029335197921928968,0.06959000000000001,0.013820000000000002,0.0025400000000000006,-1.1164,0.17880000000000001,-10.3109,11.309747913182878,25.29922749691531,31.739999771118164,31.67999839782715,31.719999313354492,31.739999771118164,25.77317245694584,25.72445078862087,25.756931900837518,25.77317245694584,25.756931900837518,0.01809163556389279,-2.6000001430511475,0.0,0.0,0.0,0.0,0.0,0.0,,,,,
pylon_camera_1771859905557844884.png,1771859905557844884,1771859905.5578449,42.30097948344294,-83.69807018373137,237.6118927001953,-0.014886065541152295,-0.9995038426545204,0.0007439092325874468,-0.027747435387907197,0.056360000000000014,0.06476000000000001,0.0011800000000000003,-0.7052,0.034,-9.1584,11.286125382130017,25.24638531230192,31.76999855041504,31.760000228881836,31.889999389648438,31.829999923706055,25.797531742323645,25.789413013054162,25.894973530188906,25.846253410648615,25.83204292405383,0.0231976817475939,-2.6000001430511475,0.0,0.0,0.0,0.0,0.0,0.0,,,,,
pylon_camera_1771859905616276700.png,1771859905616276700,1771859905.6162767,42.30097958456312,-83.69807839290286,237.59573364257812,-0.01492932784984713,-0.9995582270017149,0.0018485659559370794,-0.025632963290388024,0.04054000000000001,0.08761000000000001,-0.0006100000000000001,-0.4224,-0.5979,-8.992,11.276089594230378,25.223935856917702,31.76999855041504,31.76999855041504,31.94999885559082,31.8799991607666,25.797531742323645,25.797531742323645,25.943693649729195,25.886853252134745,25.856402596627806,0.02507407025207166,-2.700000047683716,0.0,0.0,0.0,0.0,0.0,0.0,,,,,
pylon_camera_1771859905658336636.png,1771859905658336636,1771859905.6583364,42.30097964933016,-83.69808386179355,237.58360290527344,-0.014977612863315615,-0.9996186165440875,0.0024227960005926644,-0.02307428505806715,0.040260000000000004,0.11047000000000001,-0.0030800000000000003,0.0229,0.116,-9.479700000000001,11.274209623590156,25.219730475393767,31.799999237060547,31.69999885559082,31.809999465942383,31.809999465942383,25.821892576486132,25.740691344729196,25.830012854540293,25.830012854540293,25.80565240757398,0.023232680172846482,-2.700000047683716,0.0,0.0,0.0,0.0,0.0,0.0,,,,,
pylon_camera_1771859905708163517.png,1771859905708163517,1771859905.7081635,42.30097970975527,-83.69808933193866,237.57211303710938,-0.01509669336457159,-0.9996568464059583,0.0032678459783491674,-0.021156570275261813,0.04036000000000001,0.06570000000000001,0.006390000000000001,-0.0931,0.463,-12.1395,11.283722284644336,25.2410097274123,31.779998779296875,31.709999084472656,31.65999984741211,31.599998474121094,25.805652020377806,25.748811622783357,25.708211781297226,25.65949011297226,25.730541384357664,0.019394297701716783,-2.700000047683716,0.0,0.0,0.0,0.0,0.0,0.0,,,,,
pylon_camera_1771859905768333523.png,1771859905768333523,1771859905.7683337,42.300979809762424,-83.69809755213471,237.5599822998047,-0.015203647684212673,-0.9996612660092123,0.004991707763197862,-0.020525233045197377,0.07031,-0.0009300000000000002,0.00099,-0.4474,0.1627,-11.1432,11.301000265246214,25.279659533339867,31.779998779296875,31.60999870300293,31.709999084472656,31.599998474121094,25.805652020377806,25.66761039102642,25.748811622783357,25.65949011297226,25.720391036789962,0.017434234146580983,-2.700000047683716,0.0,0.0,0.0,0.0,0.0,0.0,,,,,
pylon_camera_1771859905809657008.png,1771859905809657008,1771859905.809657,42.30097988138812,-83.69810303673702,237.5548553466797,-0.015301614241483963,-0.9996541705810836,0.005649404811716663,-0.02062726512952798,0.005580000000000001,-0.026180000000000002,0.005600000000000001,0.0106,0.1023,-11.2111,11.308734316963408,25.296960142988127,31.67999839782715,31.559999465942383,31.670000076293945,31.53999900817871,25.72445078862087,25.62701054954029,25.716332059351387,25.610769993431973,25.66964084773613,0.014732232752135775,-2.6000001430511475,0.0,0.0,0.0,0.0,0.0,0.0,,,,,
pylon_camera_1771859905860989155.png,1771859905860989155,1771859905.860989,42.300979984198015,-83.69811126310802,237.54974365234375,-0.015383049479584465,-0.9996337287088424,0.006331032016608303,-0.02134685573966079,0.0012100000000000001,-0.04667,0.006710000000000001,-0.888,-1.3966,-10.4125,11.30561603128919,25.289984725032042,31.510000228881836,31.619998931884766,31.619998931884766,31.599998474121094,25.58641070805416,25.675730669080583,25.675730669080583,25.65949011297226,25.649340539796896,0.014209412092256547,-2.6000001430511475,0.0,0.0,0.0,0.0,0.0,0.0,,,,,
pylon_camera_1771859905910876935.png,1771859905910876935,1771859905.910877,42.300980050899256,-83.69811674861504,237.54736328125,-0.01564095649306385,-0.9996091458298986,0.006721464141381612,-0.0221751656814324,0.04623000000000001,-0.027700000000000002,0.01055,-0.6563,-0.9311,-9.6033,11.299758256535155,25.27688123437375,31.599998474121094,31.529998779296875,31.60999870300293,31.579999923706055,25.65949011297226,25.602649715377808,25.66761039102642,25.643251105648613,25.64325033125628,0.01449423659056118,-2.700000047683716,0.0,0.0,0.0,0.0,0.0,0.0,,,,,
pylon_camera_1771859905971108452.png,1771859905971108452,1771859905.9711084,42.30098014963102,-83.69812496384355,237.5424346923828,-0.016011295724289887,-0.9995877028013052,0.008085648804048013,-0.02242064006794338,0.08623000000000001,0.0054800000000000005,0.00632,-0.9157000000000001,0.3482,-9.079500000000001,11.27491917066888,25.22131768963605,31.6299991607666,31.510000228881836,31.729999542236328,31.529998779296875,25.683850947134744,25.58641070805416,25.76505217889168,25.602649715377808,25.659490887364598,0.01737312868108407,-2.700000047683716,0.0,0.0,0.0,0.0,0.0,0.0,,,,,
pylon_camera_1771859906030892092.png,1771859906030892092,1771859906.0308921,42.300980259457766,-83.69813316171056,237.53480529785156,-0.016383951474802927,-0.9995789335591194,0.010036574109495343,-0.021743709412818935,0.07983000000000001,0.025770000000000005,0.0007400000000000001,-0.6868000000000001,-0.0534,-9.711400000000001,11.254295125894926,25.175182938919395,31.639999389648438,31.59000015258789,31.65999984741211,31.459999084472656,25.691971225188905,25.651371383702777,25.708211781297226,25.545809317783355,25.649340926993066,0.018834341312398157,-2.700000047683716,0.0,0.0,0.0,0.0,0.0,0.0,,,,,
pylon_camera_1771859906065828167.png,1771859906065828167,1771859906.065828,42.30098033252474,-83.69813862485286,237.52989196777344,-0.016566933333324985,-0.9995792428742984,0.010500810071301077,-0.021368362656506313,0.006970000000000001,0.02772,0.019620000000000002,-0.4751,-0.4499,-9.8614,11.250404769484376,25.166480445050382,31.579999923706055,31.529998779296875,31.28999900817871,31.549999237060547,25.643251105648613,25.602649715377808,25.40776768843197,25.61889027148613,25.568139695236134,0.015960088303279135,-2.700000047683716,0.0,0.0,0.0,0.0,0.0,0.0,,,,,
pylon_camera_1771859906113499546.png,1771859906113499546,1771859906.1134996,42.300980444490804,-83.69814681687691,237.5221710205078,-0.016797402582908072,-0.9995835497362553,0.0107340047565847,-0.02086517445459215,-0.035660000000000004,0.005190000000000001,0.013930000000000001,-1.0272000000000001,-1.9774,-9.0116,11.24697182488131,25.158801153949998,31.579999923706055,31.459999084472656,31.44999885559082,31.709999084472656,25.643251105648613,25.545809317783355,25.537689039729198,25.748811622783357,25.61889027148613,0.018287402278065093,-2.700000047683716,0.0,0.0,0.0,0.0,0.0,0.0,,,,,
pylon_camera_1771859906164447930.png,1771859906164447930,1771859906.164448,42.30098051656975,-83.69815227710046,237.51651000976562,-0.017026775022681795,-0.9995926665434027,0.010551138842497986,-0.020328880788254854,-0.00623,0.01322,0.0033700000000000006,-1.1128,-2.2263,-10.4823,11.243423725068778,25.150864267555356,31.510000228881836,31.510000228881836,31.510000228881836,31.399999618530273,25.58641070805416,25.58641070805416,25.58641070805416,25.497089198243067,25.564080330601385,0.0164294975572302,-2.700000047683716,0.0,0.0,0.0,0.0,0.0,0.0,,,,,
pylon_camera_1771859906214375333.png,1771859906214375333,1771859906.2143755,42.30098063093485,-83.69816045914936,237.50807189941406,-0.017234173460384805,-0.9995987865319158,0.010560300971468605,-0.019842612540959,0.03903,0.016890000000000002,-0.0031000000000000003,-0.40440000000000004,-0.6642,-10.821900000000001,11.239936381865103,25.143063290049326,31.44999885559082,31.459999084472656,31.399999618530273,31.489999771118164,25.537689039729198,25.545809317783355,25.497089198243067,25.57017015194584,25.537689426925365,0.01569522903091193,-2.700000047683716,0.0,0.0,0.0,0.0,0.0,0.0,,,,,
pylon_camera_1771859906265006740.png,1771859906265006740,1771859906.2650068,42.30098071754967,-83.69816591261079,237.503173828125,-0.017356222389245723,-0.9995945328512539,0.011403755899561292,-0.01948039500733526,0.0417,0.010210000000000002,-0.00445,0.19210000000000002,-0.8812000000000001,-10.5198,11.236927279091267,25.13633210769042,31.389999389648438,31.5,31.439998626708984,31.439998626708984,25.488968920188906,25.578290430000003,25.529568761675037,25.529568761675037,25.531599218384745,0.015724931903385864,-2.6000001430511475,0.0,0.0,0.0,0.0,0.0,0.0,,,,,
pylon_camera_1771859906323372176.png,1771859906323372176,1771859906.3233724,42.300980850242894,-83.69817408333286,237.49696350097656,-0.017481984059881495,-0.9995798251493259,0.012308313965492413,-0.019571887877766803,0.04453000000000001,0.014270000000000003,-0.00232,-0.875,0.1648,-9.3041,11.220728067834536,25.100095444061786,31.489999771118164,31.349998474121094,31.489999771118164,31.35999870300293,25.57017015194584,25.456487807972263,25.57017015194584,25.464608086026423,25.515359049472593,0.01654430383885456,-2.4000000953674316,0.0,0.0,0.0,0.0,0.0,0.0,,,,,
pylon_camera_1771859906374431341.png,1771859906374431341,1771859906.3744311,42.30098093552729,-83.69817953129629,237.49380493164062,-0.017627881307016646,-0.9995736463662477,0.012578284703242792,-0.01958494433572401,0.008790000000000001,0.016010000000000003,0.005740000000000001,-0.8206,0.0558,-9.5576,11.207327022946096,25.070118110709043,31.399999618530273,31.399999618530273,31.469999313354492,31.329999923706055,25.497089198243067,25.497089198243067,25.553929595837516,25.44024880064861,25.497089198243067,0.01703107602638848,-2.200000047683716,0.0,0.0,0.0,0.0,0.0,0.0,,,,,
pylon_camera_1771859906424446236.png,1771859906424446236,1771859906.424446,42.30098106072409,-83.69818768996683,237.48886108398438,-0.017728660509504113,-0.9995769489254966,0.012608976561566497,-0.019303665025164864,0.022970000000000004,0.03824,0.0008400000000000001,-0.4163,0.49670000000000003,-9.3277,11.182690671450503,25.01500807059449,31.34000015258789,31.349998474121094,31.399999618530273,31.309999465942383,25.448369078702775,25.456487807972263,25.497089198243067,25.424008244540293,25.4564885823646,0.01764862559804952,-1.899999976158142,0.0,0.0,0.0,0.0,0.0,0.0,,,,,
pylon_camera_1771859906466358084.png,1771859906466358084,1771859906.466358,42.30098114485189,-83.69819311730677,237.4853973388672,-0.01783020365664334,-0.999579470556385,0.01258537571151603,-0.019093826174435884,-0.014250000000000002,0.017300000000000003,0.014930000000000002,-2.0067,0.7057,-10.0802,11.180373216727208,25.009824063425764,31.42999839782715,31.420000076293945,31.34000015258789,31.3799991607666,25.521448483620873,25.513329754351386,25.448369078702775,25.48084864213474,25.490998989702444,0.019239436673221037,-1.100000023841858,0.0,0.0,0.0,0.0,0.0,0.0,,,,,
pylon_camera_1771859906516424744.png,1771859906516424744,1771859906.5164247,42.30098126295109,-83.69820126096253,237.48089599609375,-0.01792632902730168,-0.9995827201036755,0.012604981849947556,-0.018818789289014735,-0.015060000000000002,0.013010000000000002,0.00867,-1.4155,-0.6773,-10.0113,11.179054619998793,25.006874441660102,31.420000076293945,31.34000015258789,31.309999465942383,31.34000015258789,25.513329754351386,25.448369078702775,25.424008244540293,25.448369078702775,25.458519039074304,0.018060817575097914,-0.20000000298023224,0.0,248.0,0.0,0.0,0.0,0.0,,,,,
pylon_camera_1771859906567647219.png,1771859906567647219,1771859906.5676472,42.30098133849703,-83.69820668877904,237.47779846191406,-0.017947567563162514,-0.9995870377008104,0.012440038120884048,-0.018678445616139985,-0.018160000000000003,0.0031000000000000003,0.0008600000000000002,-0.4224,-1.3452000000000002,-9.4178,11.181297784503219,25.01189226606663,31.28999900817871,31.28999900817871,31.420000076293945,31.15999984741211,25.40776768843197,25.40776768843197,25.513329754351386,25.302207171297226,25.407768075628137,0.015827503387202197,0.10000000149011612,0.0,356.0,0.0,0.0,0.0,0.0,,,,,
pylon_camera_1771859906617561373.png,1771859906617561373,1771859906.6175613,42.30098145962391,-83.69821482045842,237.47296142578125,-0.017933576740434887,-0.999589397842823,0.012159639169434782,-0.018750085887449253,0.0049700000000000005,0.00036,0.0030900000000000003,-0.8418,1.1403,-9.5473,11.160874277316902,24.96620610590127,31.25,31.25,31.170000076293945,31.26999855041504,25.375288125,25.375288125,25.310327449351387,25.391527132323645,25.363107707918758,0.01589755369053332,-0.20000000298023224,0.0,676.0,0.0,0.0,0.0,0.0,,,,,
pylon_camera_1771859906668132671.png,1771859906668132671,1771859906.6681325,42.30098153308014,-83.69822024108313,237.46983337402344,-0.017881696136510195,-0.9995874233026707,0.012024361417191785,-0.018990599014190503,0.016040000000000002,-0.018270000000000005,0.00018,-0.672,2.1207000000000003,-11.185400000000001,11.153192747515815,24.94902298462803,31.15999984741211,31.059999465942383,31.299999237060547,31.209999084472656,25.302207171297226,25.22100593954029,25.41588796648613,25.342807012783357,25.32047702252675,0.014888520409299581,-0.20000000298023224,0.0,980.0,0.0,0.0,0.0,0.0,,,,,
pylon_camera_1771859906718371670.png,1771859906718371670,1771859906.7183716,42.30098164714327,-83.6982283544404,237.4666748046875,-0.01779056151741981,-0.9995813386294714,0.012173322388491822,-0.01929905714367179,0.022350000000000005,0.00025000000000000006,-0.0036600000000000005,-0.5055000000000001,1.8835000000000002,-8.167900000000001,11.12380290045333,24.883279660140072,31.03999900817871,30.90999984741211,31.15999984741211,30.94999885559082,25.204765383431972,25.099204866297228,25.302207171297226,25.131684429729198,25.184465462688905,0.012103943156307296,0.0,0.0,1732.0,344.0,0.0,0.0,0.0,,,,,
pylon_camera_1771859906769257449.png,1771859906769257449,1771859906.7692575,42.300981727020506,-83.69823374423346,237.46441650390625,-0.0176563439495957,-0.9995750463117106,0.012268688538881783,-0.019683993263848582,-0.020120000000000002,-0.00816,0.0033600000000000006,-1.2211,0.31570000000000004,-9.756300000000001,11.070210500874259,24.763396677825668,30.349998474121094,30.51999855041504,30.90999984741211,30.719999313354492,24.64447858797226,24.782520217323647,25.099204866297228,24.944922680837518,24.867781588107665,0.004215290480544948,0.0,0.0,2044.0,876.0,0.0,0.0,0.0,,,,,
pylon_camera_1771859906819084179.png,1771859906819084179,1771859906.8190844,42.30098183793393,-83.69824177804877,237.4619140625,-0.017500228711019583,-0.9995630794522004,0.012271372637636016,-0.020415817512023458,-0.009770000000000003,-0.03778000000000001,0.0002800000000000001,-2.1704,-0.36460000000000004,-10.200700000000001,10.977275857310087,24.555507456251227,29.739999771118164,29.90999984741211,30.329999923706055,30.369998931884766,24.14915401694584,24.287195646297228,24.628239580648614,24.660719144080584,24.431327096993066,0.005057128608700309,-0.4000000059604645,0.0,2356.0,1436.0,0.0,0.0,0.0,,,,,
pylon_camera_1771859906870428466.png,1771859906870428466,1771859906.8704283,42.300981910718484,-83.69824708491831,237.4609832763672,-0.017198388807972198,-0.9995387889193903,0.012257293335097431,-0.02182163211278068,0.00591,-0.07496000000000001,-0.010740000000000001,-2.2963,-0.41400000000000003,-10.398900000000001,10.880931901717908,24.33999180822886,26.809999465942383,27.889999389648438,29.85999870300293,29.939998626708984,21.76996675454029,22.646936650188906,24.246594256026423,24.311554931675033,23.243763148107664,0.04503816881937414,-2.1000001430511475,0.0,2512.0,1684.0,0.0,0.0,0.0,,,,,
pylon_camera_1771859906921011593.png,1771859906921011593,1771859906.9210117,42.30098201212586,-83.69825496728103,237.4593963623047,-0.0168411170033001,-0.9995052667764738,0.011610154143459587,-0.023891479337542577,-0.03900000000000001,-0.06176000000000001,-0.00871,-4.0777,0.5808,-7.6954,10.73375902315872,24.01077490926467,26.65999984741211,24.719999313354492,29.389999389648438,29.42999839782715,21.64816568129723,20.07286736083752,23.864950480188906,23.897430043620872,22.370853391486133,0.06829939991423452,-4.900000095367432,0.0,2712.0,1512.0,1.0,0.0,0.0,,,,,
pylon_camera_1771859906980065583.png,1771859906980065583,1771859906.9800656,42.30098210361789,-83.69826272676411,237.4550323486328,-0.015985479464956376,-0.9994910121101719,0.011054885535603784,-0.02529764145240058,-0.018790000000000005,-0.00256,-0.02289,-3.6231,-1.2001000000000002,-8.2139,10.550770505552434,23.601440574690464,29.510000228881836,22.969999313354492,29.31999969482422,29.329999923706055,23.962392268054163,18.651851225837518,23.808110082594453,23.816230360648614,22.559645984283687,0.04414114414371676,-8.800000190734863,0.0,2868.0,1140.0,1.0,0.0,0.0,,,,,
pylon_camera_1771859907031741298.png,1771859907031741298,1771859907.0317411,42.30098216080274,-83.69826783362497,237.44976806640625,-0.01567334156537953,-0.9995144981801733,0.010685101274457296,-0.02471725920416408,-0.02338,0.03634000000000001,-0.0018800000000000004,-3.4787000000000003,-2.6628000000000003,-10.9968,10.409219839181368,23.284800227058373,28.6299991607666,29.399999618530273,29.01999855041504,29.03999900817871,23.247823287134747,23.873070758243063,23.56450638732365,23.58074694343197,23.566536844033358,0.01209959347847829,-10.699999809265137,0.0,3048.0,1284.0,1.0,0.0,0.0,,,,,
pylon_camera_1771859907082373742.png,1771859907082373742,1771859907.0823736,42.3009822280686,-83.69827536548186,237.4390106201172,-0.015717754604668455,-0.9995783076404676,0.009934993570543466,-0.02230369896585315,0.023250000000000003,0.11451000000000001,-0.0029100000000000003,-3.2427,-0.5897,-8.5572,10.270600048632929,22.974716072788944,28.469999313354492,28.69999885559082,28.76999855041504,28.799999237060547,23.117901935837516,23.304663684729196,23.36150408232365,23.38586491648613,23.292483654844123,0.013831186468133997,-10.100000381469727,0.0,3352.0,1804.0,1.0,0.0,0.0,,,,,
pylon_camera_1771859907134262799.png,1771859907134262799,1771859907.1342628,42.30098229988755,-83.69828279522297,237.4275360107422,-0.01601998090179496,-0.9996260932741096,0.009922369208716718,-0.01981364294452417,0.08680000000000002,0.05106,-0.00487,-1.4348,2.5565,-8.6538,10.19855280261355,22.813550706278356,27.599998474121094,23.94999885559082,28.649999618530273,28.469999313354492,22.41145323297226,19.447619889729197,23.264063843243065,23.117901935837516,22.060259725445512,0.03301945368046265,-9.0,0.0,3380.0,1748.0,1.0,0.0,0.0,,,,,
pylon_camera_1771859907174134277.png,1771859907174134277,1771859907.1741343,42.300982338756704,-83.69828769910457,237.41921997070312,-0.016315285583319405,-0.9996486997012926,0.011422449127859518,-0.01748760411752982,0.007820000000000002,0.15339000000000003,0.028550000000000006,-1.2869000000000002,-5.5902,-7.960500000000001,10.057559547702283,22.498157254637146,24.260000228881836,29.6299991607666,28.279998779296875,27.369998931884766,19.69934386305416,24.059832507134743,22.96361975037781,22.22469148408058,22.236871901161823,0.011613633530873675,-11.100000381469727,0.0,3380.0,1996.0,1.0,0.0,0.0,,,,,
pylon_camera_1771859907224214238.png,1771859907224214238,1771859907.2242143,42.30098237260521,-83.69829253449788,237.41064453125,-0.01650254815658797,-0.9997090484067479,0.007743855035925924,-0.01579611177463381,0.07909000000000002,0.12822000000000003,-0.02125,-7.417400000000001,9.8704,-13.4619,9.896467588158183,22.137804206654568,28.420000076293945,25.5,28.19999885559082,25.189998626708984,23.07730209435139,20.706235109999998,22.898659074729196,20.454511136675034,21.784176853938906,0.015973912742861952,-13.300000190734863,0.0,3380.0,2116.0,1.0,0.0,0.0,,,,,
pylon_camera_1771859907274815560.png,1771859907274815560,1771859907.2748156,42.300982398774146,-83.69829975159806,237.40191650390625,-0.016992341022450286,-0.9997106337652844,0.009007445338785381,-0.014449048815029092,-0.07831000000000002,-0.10601000000000002,0.036300000000000006,-8.9056,5.3565000000000005,-13.3511,9.889488790377678,22.122193054747445,23.06999969482422,22.779998779296875,27.56999969482422,25.170000076293945,18.733052457594454,18.497569040377808,22.38709394759445,20.43827212935139,20.013996893729527,0.09529779239339463,-15.800000190734863,0.0,3380.0,1812.0,1.0,0.0,0.0,,,,,
pylon_camera_1771859907324976287.png,1771859907324976287,1771859907.3249764,42.30098240611232,-83.69830454525948,237.4023895263672,-0.017059771312345984,-0.9997049865449665,0.00989322767195549,-0.014178438776167077,-0.10332000000000001,-0.12175000000000001,0.019610000000000002,-0.16440000000000002,-2.9557,-8.5844,9.797214394281259,21.91578076714352,21.010000228881836,26.010000228881836,27.189998626708984,25.8799991607666,17.06031389805416,21.120359998054163,22.078529576675038,21.014797932134744,20.318500351229527,0.0728826608043397,-17.0,0.0,3380.0,1672.0,1.0,0.0,0.0,,,,,
pylon_camera_1771859907375499047.png,1771859907375499047,1771859907.375499,42.300982452594816,-83.69831162249076,237.41455078125,-0.017047584094788015,-0.9996629060555641,0.009811552658147904,-0.016946609321986227,0.07703,-0.05972000000000001,-0.06138000000000001,-1.9561000000000002,-6.3734,-11.9158,9.6304016285438,21.542630618954767,20.939998626708984,24.889999389648438,26.56999969482422,26.299999237060547,17.003471951675035,20.210908990188905,21.575084727594454,21.35584186648613,20.03632688398613,0.06992199613928676,-17.100000381469727,0.0,3380.0,1688.0,1.0,0.0,0.0,,,,,
pylon_camera_1771859907425223939.png,1771859907425223939,1771859907.4252238,42.300982453889404,-83.69831630131472,237.4242401123047,-0.017595822071203027,-0.9996172986151795,0.004746628017609101,-0.020811364140591742,-0.25365000000000004,-0.15887000000000004,0.023350000000000003,-3.4136,1.1463,-6.4656,9.58391197960263,21.43863606365231,16.65999984741211,25.189998626708984,26.349998474121094,22.85999870300293,13.528073481297227,20.454511136675034,21.396441707972258,18.56252971602642,18.485389010492735,0.13775349534323206,-14.5,0.0,3380.0,1508.0,1.0,0.0,0.0,,,,,
pylon_camera_1771859907476468806.png,1771859907476468806,1771859907.4764688,42.300982495741884,-83.69832320408297,237.4249725341797,-0.016977744059829325,-0.9995859610856581,0.0021387358459370766,-0.023131978213755008,0.006820000000000001,-0.10725000000000001,-0.029680000000000005,-2.7968,1.4517,-5.5319,9.4094195195497,21.048306900061508,27.119998931884766,16.06999969482422,26.510000228881836,23.209999084472656,22.02168917908058,13.048987917594452,21.526364608054163,18.846733252783356,18.860943739378136,0.10392109783789688,-7.599999904632568,0.0,3232.0,1472.0,1.0,0.0,0.0,,,,,
pylon_camera_1771859907526266070.png,1771859907526266070,1771859907.526266,42.3009825770111,-83.69832770330986,237.4226837158203,-0.01795809803214915,-0.9995110339968858,0.007738391655814381,-0.024399117363647038,0.28445000000000004,0.048670000000000005,0.007370000000000001,-4.3626000000000005,-5.3173,-12.9753,9.193032916138609,20.5642630514271,24.18000030517578,21.10999870300293,24.8799991607666,25.350000381469727,19.63438318740555,17.141513581026423,20.202788712134744,20.584434036756935,19.390779879330914,0.057064197689046324,-1.399999976158142,0.0,3196.0,1560.0,1.0,0.0,0.0,,,,,
pylon_camera_1771859907577248979.png,1771859907577248979,1771859907.577249,42.30098267234683,-83.69833436044136,237.4169158935547,-0.017309914898120615,-0.9995412416682941,0.007818828874998672,-0.02359107809000325,0.023100000000000006,-0.054610000000000006,0.025250000000000005,-6.4794,2.8493,-6.8129,9.04216098617917,20.22677159642363,20.899999618530273,26.69999885559082,25.18000030517578,24.78999900817871,16.970992388243065,21.680645244729195,20.44639240740555,20.12970775843197,19.806934449702446,0.020756508013143264,2.9000000953674316,0.0,3256.0,1232.0,1.0,0.0,0.0,,,,,
pylon_camera_1771859907627134564.png,1771859907627134564,1771859907.6271346,42.30098270152063,-83.69833874072859,237.4124755859375,-0.016884632020923385,-0.9995939475224604,0.006698074698037117,-0.021954158451690502,-0.05154000000000001,-0.05424000000000001,0.032130000000000006,-0.2272,10.440800000000001,-12.8816,8.99156620919175,20.113594115989397,21.209999084472656,19.779998779296875,24.279998779296875,24.93000030517578,17.222714812783355,16.061541380377808,19.71558287037781,20.24339010240555,18.310807291486128,0.08963026767404711,6.0,0.0,3296.0,1496.0,1.0,0.0,0.0,,,,,
pylon_camera_1771859907678239444.png,1771859907678239444,1771859907.6782396,42.30098278385771,-83.69834523908855,237.4093475341797,-0.017107199507500614,-0.9995542712373984,0.01043503434736261,-0.022129451738656467,0.11184000000000001,0.03862000000000001,-0.02136,-5.898000000000001,-0.0814,-6.8011,8.766882154792683,19.610989367341944,26.899999618530273,24.649999618530273,23.969999313354492,24.399999618530273,21.843047708243066,20.016026963243064,19.463860445837515,19.813024658243066,20.283989943891676,0.03431752289206153,8.5,0.0,3296.0,1324.0,1.0,0.0,0.0,,,,,
pylon_camera_1771859907728175244.png,1771859907728175244,1771859907.7281754,42.300982826437625,-83.6983495079235,237.40536499023438,-0.01752852783980019,-0.9995618674866548,0.00887110579078312,-0.022138817954193268,-0.13671000000000003,-0.08218,0.06037000000000001,-5.3554,2.1558,-9.051300000000001,8.79100613085179,19.6649532543476,24.059999465942383,21.43000030517578,20.56999969482422,24.399999618530273,19.53694139954029,17.401357832405548,16.703029407594453,19.813024658243066,18.36358832444584,0.0661768636350077,9.5,0.0,3148.0,1448.0,1.0,0.0,0.0,,,,,
