image_filename,timestamp_ns,timestamp_sec,latitude,longitude,altitude,orientation_x,orientation_y,orientation_z,orientation_w,angular_velocity_x,angular_velocity_y,angular_velocity_z,linear_acceleration_x,linear_acceleration_y,linear_acceleration_z,vehicle_speed_mps,vehicle_speed_mph,wheel_speed_fl_rads,wheel_speed_fr_rads,wheel_speed_rl_rads,wheel_speed_rr_rads,wheel_speed_fl_mph,wheel_speed_fr_mph,wheel_speed_rl_mph,wheel_speed_rr_mph,avg_wheel_speed_mph,wheel_slip,steering_angle_deg,throttle_pedal,brake_pedal,brake_torque_actual,abs_active,esc_active,trac_active,marwis_road_condition,marwis_friction,marwis_surface_temp_c,marwis_ice_percent,marwis_water_film_height
frame_00000.png,1771860761212894943,1771860761.212895,42.300283349050034,-83.69862873506379,236.62486267089844,0.7076808884312645,0.706334627470534,-0.01667614905856461,-0.0010296784813325806,0.014230000000000001,-0.008360000000000001,0.0024000000000000002,0.1842,-0.1812,-9.896600000000001,4.344859942024138,9.719190998711477,12.079999923706055,11.889999389648438,12.139999389648438,12.069999694824219,9.809071315648612,9.654789130188902,9.857791435188904,9.800951037594453,9.780650729655218,0.006323543899064066,-2.700000047683716,14.074999809265137,0.0,0.0,0.0,0.0,0.0,,,,,
frame_00001.png,1771860761249510705,1771860761.2495108,42.30028492117217,-83.69862875179459,236.6267547607422,0.707690367968303,0.7063161527235213,-0.01705006063182853,-0.0010634468403222016,0.015130000000000001,-0.016210000000000002,0.0032200000000000006,0.3471,-0.3814,-9.6944,4.376450376262951,9.789856904677645,12.109999656677246,12.149999618530273,12.179999351501465,12.170000076293945,9.833431375418758,9.865911713243065,9.890271773013211,9.882152269351387,9.867941782756606,0.007976100043061075,-2.700000047683716,13.75,0.0,0.0,0.0,0.0,0.0,,,,,
frame_00002.png,1771860761300774349,1771860761.3007743,42.3002865006468,-83.69862876879613,236.6284637451172,0.7077300009066653,0.7062686138511955,-0.017360181548770653,-0.0012308541570139608,0.015770000000000003,-0.0061400000000000005,0.0030100000000000005,0.6036,-0.41050000000000003,-9.5205,4.405683566872279,9.855249798079276,12.25999927520752,12.25,12.219999313354492,12.25,9.955232448661823,9.947112945,9.922752110837518,9.947112945,9.943052612374835,0.008909242900435778,-2.6000001430511475,13.90000057220459,0.0,0.0,0.0,0.0,0.0,,,,,
frame_00003.png,1771860761350255394,1771860761.3502553,42.300288884859505,-83.69862879687578,236.63027954101562,0.7077768659058704,0.7062166130988687,-0.017545431770196192,-0.0014701345597161238,0.012940000000000002,0.0007600000000000002,0.0029300000000000003,0.6301,-0.4156,-9.573500000000001,4.43386433733575,9.918288490759833,12.329999923706055,12.279999732971191,12.369999885559082,12.300000190734863,10.012073620648613,9.971473004770145,10.04455395847292,9.987713560878468,10.003953536192537,0.008637079422776575,-2.6000001430511475,13.949999809265137,0.0,0.0,0.0,0.0,0.0,,,,,
frame_00004.png,1771860761401390642,1771860761.4013906,42.30029048410684,-83.6986288184485,236.63134765625,0.7078197993804332,0.7061710349868254,-0.017627467250696915,-0.001695095573982959,0.008090000000000002,0.005460000000000001,0.0026500000000000004,0.5505,-0.6221,-9.938,4.461913516646727,9.98103282192773,12.429999351501465,12.369999885559082,12.4399995803833,12.420000076293945,10.09327407801321,10.04455395847292,10.101394356067372,10.085154574351387,10.081094241726221,0.010025156873411168,-2.6000001430511475,13.699999809265137,0.0,0.0,0.0,0.0,0.0,,,,,
frame_00005.png,1771860761451089442,1771860761.4510894,42.300292902332494,-83.69862885358,236.63307189941406,0.7078698576893782,0.7061198515793974,-0.01766442353157633,-0.00172856055909598,0.00041000000000000005,-0.00096,0.00102,0.3254,-0.5055000000000001,-9.8858,4.492126812763521,10.048618152543233,12.519999504089355,12.489999771118164,12.519999504089355,12.5,10.166355031715984,10.14199497194584,10.166355031715984,10.15011525,10.156205071344452,0.010706638183279962,-2.6000001430511475,10.77500057220459,0.0,0.0,0.0,0.0,0.0,,,,,
frame_00006.png,1771860761502164738,1771860761.5021648,42.300294525535016,-83.69862887762858,236.63450622558594,0.7079075015501134,0.706082518691868,-0.017657016026634054,-0.0016357970103754657,-0.0011800000000000003,-0.0033000000000000004,0.0018700000000000004,0.23650000000000002,-0.42550000000000004,-9.991900000000001,4.519750410631689,10.11041048355845,12.4399995803833,12.539999961853027,12.59000015258789,12.59000015258789,10.101394356067372,10.182595587824308,10.223196203702775,10.223196203702775,10.182595587824308,0.007139680864910961,-2.6000001430511475,0.0,0.0,0.0,0.0,0.0,0.0,,,,,
frame_00007.png,1771860761552252498,1771860761.5522525,42.30029696950368,-83.69862891961584,236.6376495361328,0.7079342140667506,0.7060583401132324,-0.017562001601247185,-0.0015313425472378225,-0.0020800000000000003,0.0015400000000000001,0.0018300000000000002,0.13470000000000001,-0.3166,-9.9039,4.54490467299774,10.166679059215566,12.670000076293945,12.719999313354492,12.679999351501465,12.670000076293945,10.288156879351387,10.328756720837516,10.29627638301321,10.288156879351387,10.300336715638373,0.013146638705158437,-2.6000001430511475,0.0,0.0,0.0,0.0,0.0,0.0,,,,,
frame_00008.png,1771860761603266636,1771860761.6032665,42.300298608066036,-83.6986289470998,236.639404296875,0.7079881842489815,0.706007113151606,-0.01744345433138851,-0.0015533976162854443,0.0037600000000000008,0.005560000000000001,0.0037,0.14600000000000002,-0.23750000000000002,-9.788300000000001,4.567062781430475,10.216245418293088,12.739999771118164,12.6899995803833,12.739999771118164,12.6899995803833,10.34499727694584,10.304396661067372,10.34499727694584,10.304396661067372,10.324696969006606,0.010615597636224156,-2.6000001430511475,0.0,0.0,0.0,0.0,0.0,0.0,,,,,
frame_00009.png,1771860761653257794,1771860761.6532578,42.30030107493725,-83.69862898902362,236.64207458496094,0.7080644462379542,0.7059345715485718,-0.017268832423505694,-0.0017053131684994635,0.0004700000000000001,0.006150000000000001,0.0038500000000000006,0.1463,-0.4108,-10.0347,4.5878490397122755,10.262743030893978,12.789999961853027,12.769999504089355,12.739999771118164,12.769999504089355,10.385597892824308,10.369357336715984,10.34499727694584,10.369357336715984,10.36732746080053,0.01019068972025522,-2.6000001430511475,0.9750000238418579,0.0,0.0,0.0,0.0,0.0,,,,,
frame_00010.png,1771860761704106988,1771860761.704107,42.300302725067084,-83.6986290170605,236.64427185058594,0.7081391028293782,0.7058593229727962,-0.017276325923652466,-0.0017764512289283234,0.0069900000000000006,0.0015900000000000003,0.005170000000000001,-0.0368,-0.0055000000000000005,-9.9465,4.606243377766466,10.303890061460919,12.829999923706055,12.859999656677246,12.869999885559082,12.779999732971191,10.418078230648614,10.442438290418758,10.45055856847292,10.377477614770147,10.42213817607761,0.011476065244423338,-2.6000001430511475,7.349999904632568,0.0,0.0,0.0,0.0,0.0,,,,,
frame_00011.png,1771860761753735486,1771860761.7537355,42.30030520928505,-83.6986290538557,236.6473388671875,0.708188442434568,0.7058074472621332,-0.01737017823854526,-0.0018039676750352335,0.0035200000000000006,0.004470000000000001,0.0033600000000000006,-0.0342,-0.096,-9.9991,4.611638105592445,10.315957743923965,12.799999237060547,12.869999885559082,12.84000015258789,12.829999923706055,10.39371739648613,10.45055856847292,10.426198508702774,10.418078230648614,10.42213817607761,0.010292833180339868,-2.6000001430511475,11.699999809265137,0.0,0.0,0.0,0.0,0.0,,,,,
frame_00012.png,1771860761805095340,1771860761.8050954,42.300306864896775,-83.69862907843536,236.6493682861328,0.7082647671181059,0.7057281436773221,-0.017484216466476722,-0.001763251385831657,0.004470000000000001,-0.007540000000000001,0.00487,-0.0533,-0.0867,-9.7288,4.612094094452494,10.316977763644562,12.859999656677246,12.819999694824219,12.859999656677246,12.829999923706055,10.442438290418758,10.409957952594452,10.442438290418758,10.418078230648614,10.428228191020146,0.01078323806876983,-2.6000001430511475,14.350000381469727,0.0,0.0,0.0,0.0,0.0,,,,,
frame_00013.png,1771860761855359314,1771860761.8553593,42.30030934705738,-83.69862911602105,236.65267944335938,0.7083264270811647,0.7056646088089401,-0.017546915266264562,-0.001799538161869103,0.004530000000000001,-0.0011300000000000001,0.0035800000000000007,-0.0361,-0.1039,-9.6561,4.612602502520606,10.318115041988445,12.889999389648438,12.789999961853027,12.880000114440918,12.829999923706055,10.466798350188904,10.385597892824308,10.458678846527082,10.418078230648614,10.432288330047227,0.011065324198670552,-2.6000001430511475,14.324999809265137,0.0,0.0,0.0,0.0,0.0,,,,,
frame_00014.png,1771860761915592251,1771860761.9155922,42.30031183204228,-83.69862915500084,236.65567016601562,0.7084086716807833,0.7055840495400076,-0.017452815224725263,-0.001924100549314827,0.0019300000000000003,0.006850000000000001,0.00434,0.20220000000000002,-0.15180000000000002,-9.834900000000001,4.621736289511074,10.338546775458903,12.869999885559082,12.84000015258789,12.969999313354492,12.9399995803833,10.45055856847292,10.426198508702774,10.531759025837516,10.507398966067372,10.478978767270146,0.013583339599003652,-2.6000001430511475,13.050000190734863,0.0,0.0,0.0,0.0,0.0,,,,,
frame_00015.png,1771860761966779717,1771860761.9667797,42.30031349323545,-83.69862918101347,236.65733337402344,0.7084762037209007,0.7055189794784956,-0.017333018774211405,-0.0020012038915975788,-0.0043300000000000005,0.00032,0.0026100000000000003,0.2944,-0.2454,-9.8895,4.6383376179405635,10.375682951075964,12.969999313354492,12.889999389648438,12.929999351501465,12.90999984741211,10.531759025837516,10.466798350188904,10.499278688013211,10.483038906297226,10.495218742584214,0.011520763700268432,-2.6000001430511475,4.849999904632568,0.0,0.0,0.0,0.0,0.0,,,,,
frame_00016.png,1771860762015800390,1771860762.0158002,42.30031599345265,-83.69862922254447,236.6597442626953,0.708564799827632,0.7054358795336297,-0.017093871870413023,-0.001985914479477665,-0.0075200000000000015,0.0058400000000000014,0.00262,0.1847,-0.15860000000000002,-9.7821,4.652948367212016,10.408366320551247,12.949999809265137,12.960000038146973,12.960000038146973,12.9399995803833,10.515519244121531,10.523639522175694,10.523639522175694,10.507398966067372,10.517549313635072,0.010489926057679623,-2.6000001430511475,0.0,0.0,0.0,0.0,0.0,0.0,,,,,
frame_00017.png,1771860762059004288,1771860762.0590043,42.300317662876864,-83.69862924957779,236.66102600097656,0.7086242134824411,0.7053816742996197,-0.016872562157923512,-0.0019324272001578846,-0.012150000000000001,0.0079,0.004510000000000001,0.1879,-0.3,-9.647,4.663478396241721,10.431921363688955,12.989999771118164,13.029999732971191,13.039999961853027,12.989999771118164,10.54799958194584,10.580479919770147,10.588600197824306,10.54799958194584,10.566269820371533,0.012878591776028176,-2.6000001430511475,0.0,0.0,0.0,0.0,0.0,0.0,,,,,
frame_00018.png,1771860762106507364,1771860762.1065073,42.30031934171918,-83.69862927634678,236.66246032714844,0.7087017297205165,0.7053081469041723,-0.01670116177363007,-0.0018295893423393881,-0.011920000000000002,-0.00256,0.006090000000000001,0.0036000000000000003,-0.2773,-10.123700000000001,4.679015942978281,10.466677923485836,13.039999961853027,13.019999504089355,13.049999237060547,13.0,10.588600197824306,10.572359641715984,10.59671970148613,10.556119859999999,10.578449850256604,0.010678835021756653,-2.6000001430511475,0.0,0.0,0.0,0.0,0.0,0.0,,,,,
frame_00019.png,1771860762156610292,1771860762.1566103,42.30032186608573,-83.69862931616237,236.66525268554688,0.7087777762237759,0.7052330947700706,-0.016668324188952772,-0.0015852258639379934,-0.010230000000000003,-0.00969,0.0046300000000000004,-0.0177,-0.3262,-9.972000000000001,4.693687314264485,10.499496900770799,13.069999694824219,13.039999961853027,13.119999885559082,13.039999961853027,10.612960257594452,10.588600197824306,10.65356087347292,10.588600197824306,10.610930381678996,0.010613220991571134,-2.6000001430511475,0.0,0.0,0.0,0.0,0.0,0.0,,,,,
frame_00020.png,1771860762207646975,1771860762.207647,42.30032355510748,-83.69862934156714,236.66748046875,0.7088508327469197,0.7051568638296946,-0.016820107580989722,-0.0011740054651523792,-0.008180000000000002,-0.020180000000000003,0.0038800000000000006,-0.2414,-0.16620000000000001,-9.8637,4.700116404894791,10.513878390765354,13.079999923706055,12.889999389648438,13.059999465942383,13.069999694824219,10.621080535648614,10.466798350188904,10.60483997954029,10.612960257594452,10.576419780743066,0.005948460468464594,-2.6000001430511475,0.0,0.0,0.0,0.0,0.0,0.0,,,,,
frame_00021.png,1771860762257576681,1771860762.2575767,42.300326087561636,-83.6986293762645,236.67123413085938,0.7089149663222766,0.7050852899671474,-0.01712952190897115,-0.0009401464777790432,0.0014800000000000002,-0.007320000000000001,0.006410000000000002,-0.5713,-0.151,-9.8469,4.694745791003698,10.501864649727814,13.059999465942383,13.00999927520752,13.069999694824219,13.039999961853027,10.60483997954029,10.564239363661825,10.612960257594452,10.588600197824306,10.592659949655218,0.008645636080422821,-2.6000001430511475,0.675000011920929,0.0,0.0,0.0,0.0,0.0,,,,,
frame_00022.png,1771860762308576370,1771860762.3085763,42.30032861602538,-83.69862940553914,236.6753387451172,0.7089951106504754,0.704998349071702,-0.01739481418657743,-0.0008254206861091768,0.0035900000000000003,-0.006370000000000001,0.006310000000000001,-0.4897,-0.1776,-9.7089,4.687294751078034,10.485197120476498,13.09999942779541,13.039999961853027,13.069999694824219,13.049999237060547,10.637320317364598,10.588600197824306,10.612960257594452,10.59671970148613,10.608900118567371,0.011797870528279781,-2.6000001430511475,3.25,0.0,0.0,0.0,0.0,0.0,,,,,
frame_00023.png,1771860762358894038,1771860762.358894,42.300330296056075,-83.69862942248504,236.6779327392578,0.7090654814411934,0.704924172015582,-0.017526997387952017,-0.0009268760852867674,0.006630000000000001,0.0016000000000000003,0.004700000000000001,-0.4408,-0.2305,-9.7174,4.678304433782532,10.465086320105499,13.049999237060547,13.029999732971191,13.079999923706055,13.0,10.59671970148613,10.580479919770147,10.621080535648614,10.556119859999999,10.588600004226222,0.011802452492286605,-2.6000001430511475,4.849999904632568,0.0,0.0,0.0,0.0,0.0,,,,,
frame_00024.png,1771860762409909196,1771860762.4099092,42.300332814556505,-83.69862944775203,236.68130493164062,0.7091475641776055,0.7048418853841137,-0.017513727019167744,-0.0009582249395377556,-0.0028500000000000005,-0.00101,0.005730000000000001,-0.4676,-0.28340000000000004,-9.7707,4.670001111989163,10.44651228745304,13.00999927520752,12.989999771118164,13.039999961853027,13.00999927520752,10.564239363661825,10.54799958194584,10.588600197824306,10.564239363661825,10.56626962677345,0.011463858561124411,-2.6000001430511475,8.725000381469727,0.0,0.0,0.0,0.0,0.0,,,,,
frame_00025.png,1771860762468959751,1771860762.4689598,42.300335328678614,-83.6986294758867,236.6843719482422,0.709252623171535,0.7047383897616827,-0.017425670080165323,-0.0009298078642925781,-0.0025900000000000003,0.007260000000000001,0.005280000000000001,-0.5657,-0.24830000000000002,-9.774700000000001,4.657975724337921,10.41961221680047,13.139999389648438,13.049999237060547,13.039999961853027,13.0,10.669800655188904,10.59671970148613,10.588600197824306,10.556119859999999,10.602810103624835,0.01758202541635653,-2.6000001430511475,12.050000190734863,0.0,0.0,0.0,0.0,0.0,,,,,
frame_00026.png,1771860762511002440,1771860762.5110023,42.300337003052704,-83.69862949715703,236.686279296875,0.7093232048047171,0.7046688960719137,-0.017367544054281363,-0.0008405045377879676,-0.006740000000000001,-0.0016000000000000003,0.0027900000000000004,-0.37770000000000004,-0.4728,-9.844100000000001,4.654943951726126,10.41283032337424,12.960000038146973,12.969999313354492,13.079999923706055,13.00999927520752,10.523639522175694,10.531759025837516,10.621080535648614,10.564239363661825,10.560179611830913,0.014150743254301299,-2.6000001430511475,13.52500057220459,0.0,0.0,0.0,0.0,0.0,,,,,
frame_00027.png,1771860762562272400,1771860762.5622725,42.30033867591346,-83.69862951908536,236.68824768066406,0.7094332540222482,0.7045639605964216,-0.017133076468011467,-0.000735667608102347,-0.006780000000000001,0.0061600000000000005,0.00538,-0.20950000000000002,-0.2738,-9.574200000000001,4.655374332548645,10.413793059451367,12.989999771118164,12.969999313354492,13.039999961853027,12.979999542236328,10.54799958194584,10.531759025837516,10.588600197824306,10.539879303891679,10.552059527374835,0.013277243664639614,-2.6000001430511475,14.050000190734863,0.0,0.0,0.0,0.0,0.0,,,,,
frame_00028.png,1771860762613299710,1771860762.6132996,42.30034118582015,-83.69862955480576,236.69100952148438,0.7095704234242625,0.7044341475948119,-0.01679232464205815,-0.0006031061261761347,-0.009970000000000001,0.0008500000000000001,0.004200000000000001,-0.0528,-0.32220000000000004,-9.982700000000001,4.665505764319508,10.43645646443688,12.989999771118164,13.029999732971191,13.059999465942383,13.00999927520752,10.54799958194584,10.580479919770147,10.60483997954029,10.564239363661825,10.574389711229525,0.013216482746099182,-2.6000001430511475,14.324999809265137,0.0,0.0,0.0,0.0,0.0,,,,,
frame_00029.png,1771860762663442158,1771860762.6634421,42.30034286126992,-83.69862957768699,236.69302368164062,0.709656440105128,0.704354598775928,-0.016494217576368854,-0.0005262956032239722,-0.005960000000000001,0.00262,0.00408,-0.076,0.0053,-9.809000000000001,4.676783451810276,10.461683974692479,13.09000015258789,13.079999923706055,13.00999927520752,13.059999465942383,10.629200813702774,10.621080535648614,10.564239363661825,10.60483997954029,10.604840173138378,0.013683858047347218,-2.6000001430511475,14.625,0.0,0.0,0.0,0.0,0.0,,,,,
frame_00030.png,1771860762714184474,1771860762.7141845,42.30034538487486,-83.6986296061209,236.6957550048828,0.7097299773122515,0.704283352996167,-0.016368305908598835,-0.0006297289177899098,0.006250000000000001,0.0040100000000000005,0.0039700000000000004,0.16340000000000002,0.075,-9.8953,4.693893020183054,10.499957052568282,13.09000015258789,13.09999942779541,13.119999885559082,13.09000015258789,10.629200813702774,10.637320317364598,10.65356087347292,10.629200813702774,10.637320704560766,0.01308230608037436,-2.6000001430511475,14.15000057220459,0.0,0.0,0.0,0.0,0.0,,,,,
frame_00031.png,1771860762764172422,1771860762.7641726,42.30034707543912,-83.69862962163461,236.69760131835938,0.7097981207773392,0.7042137527207238,-0.01640008289128375,-0.0008096302315728865,0.007730000000000001,0.004090000000000001,0.0037200000000000006,0.24070000000000003,-0.021,-9.8231,4.712252993904255,10.541027212184185,13.1899995803833,13.119999885559082,13.119999885559082,13.119999885559082,10.710401271067372,10.65356087347292,10.65356087347292,10.65356087347292,10.667770972871532,0.012023852906939308,-2.6000001430511475,14.02500057220459,0.0,0.0,0.0,0.0,0.0,,,,,
frame_00032.png,1771860762815191442,1771860762.8151915,42.30034961820977,-83.69862964238222,236.70091247558594,0.709887821914479,0.704125635383263,-0.0162964525439983,-0.000891923827813595,-0.0035800000000000007,0.00792,0.0037200000000000006,0.3452,-0.10880000000000001,-9.8538,4.73092975979758,10.5828060168816,13.239999771118164,13.149999618530273,13.219999313354492,13.170000076293945,10.751001886945838,10.677920933243065,10.734761330837516,10.694161489351387,10.71446141009445,0.012440499523740253,-2.6000001430511475,14.100000381469727,0.0,0.0,0.0,0.0,0.0,,,,,
frame_00033.png,1771860762874123082,1771860762.874123,42.300352176407756,-83.6986296603136,236.7041473388672,0.7099575236488381,0.7040550676936552,-0.016308727996295166,-0.0008953549211201102,0.0039900000000000005,-0.011580000000000002,0.0018900000000000002,0.4398,-0.1188,-9.9613,4.765364537950943,10.659834549523984,13.1899995803833,13.1899995803833,13.279999732971191,13.25,10.710401271067372,10.710401271067372,10.783482224770147,10.759122165,10.740851732976223,0.007600228978775016,-2.6000001430511475,14.074999809265137,0.0,0.0,0.0,0.0,0.0,,,,,
frame_00034.png,1771860762916444833,1771860762.916445,42.30035389042132,-83.69862967089487,236.70626831054688,0.7100033854641941,0.7040046699483248,-0.01649219805143435,-0.0007903946898624606,0.0017100000000000001,-0.011430000000000003,0.00205,0.5052,0.1521,-9.478900000000001,4.77948650678744,10.691424546493096,13.380000114440918,13.279999732971191,13.289999961853027,13.210000038146973,10.86468345652708,10.783482224770147,10.791602502824306,10.726641827175694,10.791602502824308,0.009369935306148835,-2.700000047683716,13.949999809265137,0.0,0.0,0.0,0.0,0.0,,,,,
frame_00035.png,1771860762974670479,1771860762.9746706,42.30035647247704,-83.69862968504576,236.70973205566406,0.7100478636182901,0.7039544809100197,-0.01672505804640357,-0.0006265869066135884,-0.0036000000000000008,-0.01716,0.0029900000000000005,0.3513,0.0123,-9.7219,4.801828238073564,10.74140165887628,13.380000114440918,13.269999504089355,13.380000114440918,13.34999942779541,10.86468345652708,10.775361946715984,10.86468345652708,10.840322622364598,10.836262870533686,0.008831362486013777,-2.799999952316284,14.100000381469727,0.0,0.0,0.0,0.0,0.0,,,,,
frame_00036.png,1771860763016149000,1771860763.016149,42.30035819698802,-83.69862969525941,236.7124481201172,0.7100847537273234,0.7039167424295744,-0.01674414102729764,-0.0007042674214388421,0.0026400000000000004,0.0013800000000000002,0.0064800000000000005,0.6384000000000001,-0.3471,-9.7553,4.813154030455296,10.76673677688667,13.380000114440918,13.269999504089355,13.429999351501465,13.380000114440918,10.86468345652708,10.775361946715984,10.905283298013211,10.86468345652708,10.852503039445839,0.00796585486730632,-2.799999952316284,14.125,0.0,0.0,0.0,0.0,0.0,,,,,
frame_00037.png,1771860763067584787,1771860763.0675848,42.300359927729964,-83.69862970743435,236.71498107910156,0.7101779479649513,0.7038227675317331,-0.016738782106530892,-0.000779295741603653,-0.005750000000000001,-0.00272,0.0073500000000000015,0.4864,-0.3113,-9.667300000000001,4.831845953682823,10.808549487631254,13.449999809265137,13.460000038146973,13.519999504089355,13.449999809265137,10.921523854121533,10.929644132175694,10.978364251715986,10.921523854121533,10.937764023033687,0.011954845148305906,-3.1000001430511475,14.300000190734863,0.0,0.0,0.0,0.0,0.0,,,,,
frame_00038.png,1771860763117988546,1771860763.1179886,42.300362533065105,-83.69862972648818,236.71926879882812,0.7103000887759967,0.7037009030324589,-0.01668118301680769,-0.0007490589247175791,-0.00578,0.00423,0.007090000000000001,0.4068,-0.3986,-9.5799,4.848850046586882,10.84658662321206,13.519999504089355,13.539999961853027,13.569999694824219,13.5,10.978364251715986,10.994604807824306,11.018964867594454,10.962124470000001,10.988514599283686,0.013085035965867407,-3.6000001430511475,13.949999809265137,0.0,0.0,0.0,0.0,0.0,,,,,
frame_00039.png,1771860763166646122,1771860763.166646,42.300364277581735,-83.69862973898923,236.7222900390625,0.7104212293754116,0.7035795621405385,-0.016645958549148628,-0.0006234218771063451,-0.004350000000000001,-0.005830000000000001,0.00807,0.6624,-0.5574,-9.918800000000001,4.869979750998762,10.89385250419917,13.639999389648438,13.5,13.609999656677246,13.59000015258789,11.075805265188903,10.962124470000001,11.051445205418759,11.035205423702774,11.031145091077608,0.012602758007373122,-4.300000190734863,14.100000381469727,0.0,0.0,0.0,0.0,0.0,,,,,
frame_00040.png,1771860763217921790,1771860763.2179217,42.30036690579229,-83.69862975825305,236.72689819335938,0.7105331847512099,0.7034646681460015,-0.016728277673242822,-0.0004677217394681596,0.00026000000000000003,-0.0026300000000000004,0.005930000000000001,0.4424,-0.5469,-9.5457,4.890011639039624,10.938662635833298,13.619999885559082,13.6899995803833,13.649999618530273,13.59999942779541,11.059565483472921,11.11640588106737,11.083925543243065,11.043324927364598,11.075805458786988,0.012537439677902868,-5.0,14.25,0.0,0.0,0.0,0.0,0.0,,,,,
frame_00041.png,1771860763267609343,1771860763.2676094,42.300368663726715,-83.69862977015478,236.7300567626953,0.7106753414707193,0.7033172252143374,-0.01689341420512,-0.00022868925530420054,-0.0034700000000000004,-0.014550000000000002,0.009170000000000001,0.07680000000000001,-0.3705,-9.6563,4.909987260928165,10.983346903460651,13.699999809265137,13.670000076293945,13.670000076293945,13.639999389648438,11.124526159121533,11.100166099351387,11.100166099351387,11.075805265188903,11.100165905753304,0.010636011346946094,-5.200000286102295,14.225000381469727,0.0,0.0,0.0,0.0,0.0,,,,,
frame_00042.png,1771860763318797912,1771860763.3187978,42.30037131336388,-83.69862978275948,236.73361206054688,0.7108321523232844,0.703153883518167,-0.017095652921166115,-7.72526126926502e-05,0.0018000000000000004,-0.01055,0.012300000000000002,-0.3821,-0.1237,-9.5078,4.929465098464422,11.026917657359006,13.699999809265137,13.679999351501465,13.75999927520752,13.75999927520752,11.124526159121533,11.108285603013211,11.173246278661823,11.173246278661823,11.144826079864597,0.010692781624872574,-5.200000286102295,14.300000190734863,0.0,0.0,0.0,0.0,0.0,,,,,
frame_00043.png,1771860763368899517,1771860763.3688996,42.30037397578886,-83.69862978735131,236.7366180419922,0.7109790651053866,0.7029997195147353,-0.017325061898645085,-7.46611161547581e-05,0.0062900000000000005,-0.007050000000000001,0.008310000000000001,-0.0514,-0.3346,-9.7148,4.950812930515879,11.07467147678819,13.84000015258789,13.769999504089355,13.829999923706055,13.75999927520752,11.238207728702776,11.181366556715986,11.230087450648613,11.173246278661823,11.205727003682298,0.011833807185052198,-5.200000286102295,14.125,0.0,0.0,0.0,0.0,0.0,,,,,
frame_00044.png,1771860763419945844,1771860763.4199457,42.30037576025459,-83.69862978680179,236.73834228515625,0.7111118894890276,0.7028604269521276,-0.017523594434700196,-0.0001564931498298126,0.009210000000000001,-0.009120000000000001,0.00786,0.031100000000000003,-0.2932,-9.8734,4.969408643917369,11.11626897192452,13.989999771118164,13.809999465942383,13.899999618530273,13.829999923706055,11.36000880194584,11.213846894540291,11.286927848243065,11.230087450648613,11.272717748844451,0.01407385673332144,-5.200000286102295,14.27500057220459,0.0,0.0,0.0,0.0,0.0,,,,,
frame_00045.png,1771860763469994953,1771860763.469995,42.300378442518316,-83.69862978265499,236.7406005859375,0.7112675111177843,0.7027005969148381,-0.017615216704517257,-0.0003207246416379233,0.00918,-0.00203,0.00905,0.2985,-0.47540000000000004,-9.3536,4.987843044922518,11.157505620908978,13.949999809265137,13.859999656677246,14.039999961853027,13.899999618530273,11.327528464121533,11.254447510418759,11.400609417824308,11.286927848243065,11.317378310151916,0.014328712408922256,-5.099999904632568,14.100000381469727,0.0,0.0,0.0,0.0,0.0,,,,,
frame_00046.png,1771860763521177968,1771860763.5211778,42.30038023852546,-83.69862978009888,236.7416229248047,0.7114427264383443,0.7025252408309172,-0.017528272918248086,-0.0005409638993861217,0.0048400000000000006,0.015160000000000003,0.010990000000000003,0.158,0.12350000000000001,-9.9296,5.003262276789974,11.191997517442566,14.059999465942383,13.9399995803833,14.019999504089355,13.9399995803833,11.416849199540291,11.319408186067372,11.384368861715986,11.319408186067372,11.360008608347755,0.015011716241300646,-5.099999904632568,14.350000381469727,0.0,0.0,0.0,0.0,0.0,,,,,
frame_00047.png,1771860763572284248,1771860763.5722842,42.300382940661564,-83.69862977792555,236.74293518066406,0.7116316580826844,0.7023346344202444,-0.017495693751243817,-0.0005875444098935766,-0.0014700000000000002,-0.0010800000000000002,0.008380000000000002,0.6466000000000001,-0.2104,-9.902800000000001,5.031079669797072,11.254223356555864,14.049999237060547,14.0,13.929999351501465,14.0,11.40872892148613,11.368129080000001,11.311287908013211,11.368129080000001,11.364068747374837,0.009760370603892976,-5.0,14.225000381469727,0.0,0.0,0.0,0.0,0.0,,,,,
frame_00048.png,1771860763623620221,1771860763.62362,42.3003847490425,-83.69862977566451,236.74424743652344,0.7118198974424391,0.7021382201678226,-0.017724042372779,-0.0004601158174821973,0.0074600000000000005,-0.0083,0.012860000000000002,0.0893,0.42800000000000005,-9.7886,5.0568889822519365,11.311957239958648,14.139999389648438,14.1899995803833,14.139999389648438,13.969999313354492,11.481809875188905,11.522410491067372,11.481809875188905,11.343768245837518,11.457449621820674,0.012861822121116626,-5.0,14.375,0.0,0.0,0.0,0.0,0.0,,,,,
frame_00049.png,1771860763673394957,1771860763.673395,42.30038747530827,-83.6986297657906,236.7468719482422,0.7120069074856784,0.7019388744167334,-0.018103263337018286,-0.0005021272751701767,0.01207,-0.0036000000000000008,0.014570000000000001,0.2615,0.3245,-9.805,5.071347423419414,11.344299905343824,14.149999618530273,14.15999984741211,14.139999389648438,14.09000015258789,11.489930153243066,11.498050431297225,11.481809875188905,11.441210033702776,11.477750123357993,0.011763636286740405,-5.0,14.800000190734863,0.0,0.0,0.0,0.0,0.0,,,,,
frame_00050.png,1771860763725168454,1771860763.7251685,42.30038930101201,-83.69862976395795,236.7489776611328,0.7121350405388956,0.7018069160593581,-0.018182169946099974,-0.00038118757772622293,-0.01152,-0.007630000000000001,0.004520000000000001,0.5254,-0.4575,-10.584,5.089503463506694,11.384913877656665,14.210000038146973,14.1899995803833,14.219999313354492,14.25,11.538651047175694,11.522410491067372,11.546770550837518,11.571131385000001,11.544740868520147,0.014038489230660698,-4.700000286102295,14.475000381469727,0.0,0.0,0.0,0.0,0.0,,,,,
frame_00051.png,1771860763783707448,1771860763.7837074,42.30039204963287,-83.69862975807965,236.75245666503906,0.7123217367534567,0.7016169808616103,-0.018202498626629,-0.0001567128772842558,-0.008260000000000002,-0.0036300000000000004,0.012700000000000001,0.1082,0.1395,-9.5135,5.11113766768604,11.433308294353612,14.269999504089355,14.309999465942383,14.309999465942383,14.289999961853027,11.587371166715984,11.619851504540291,11.619851504540291,11.603611722824308,11.60767147465522,0.015250457331559747,-4.599999904632568,14.675000190734863,0.0,0.0,0.0,0.0,0.0,,,,,
frame_00052.png,1771860763835644200,1771860763.8356442,42.30039481001376,-83.69862974631873,236.75535583496094,0.7124483453289726,0.7014855105184372,-0.018314425997003756,-0.0001247842005161554,0.00281,0.00316,0.0083,-0.0956,0.07010000000000001,-9.614700000000001,5.13035435945967,11.476294880849714,14.319999694824219,14.279999732971191,14.40999984741211,14.309999465942383,11.627971782594452,11.595491444770145,11.701052736297227,11.619851504540291,11.63609186705053,0.013924092040146652,-4.599999904632568,14.75,0.0,0.0,0.0,0.0,0.0,,,,,
frame_00053.png,1771860763885650678,1771860763.8856506,42.30039665818029,-83.69862973726985,236.75680541992188,0.7125762887006468,0.7013509135688679,-0.018487975990703787,-0.00035151314926526315,0.013130000000000003,0.012660000000000001,0.007410000000000001,0.08950000000000001,-0.4086,-9.3446,5.14632906606516,11.5120293410438,14.4399995803833,14.380000114440918,14.539999961853027,14.329999923706055,11.725412796067372,11.67669267652708,11.806614027824308,11.636092060648613,11.711202890266843,0.017301341346736426,-4.599999904632568,14.625,0.0,0.0,0.0,0.0,0.0,,,,,
frame_00054.png,1771860763936295589,1771860763.9362957,42.30039943670897,-83.69862972124687,236.7576446533203,0.7127260995581575,0.7011970472967929,-0.018536475242187885,-0.00077907411086672,0.014560000000000002,0.011080000000000001,0.004750000000000001,0.3366,-0.7332000000000001,-9.7565,5.165849365283377,11.555695079176997,14.489999771118164,14.329999923706055,14.50999927520752,14.420000076293945,11.76601341194584,11.636092060648613,11.782253193661825,11.709173014351387,11.723382920151916,0.014511272565255483,-4.400000095367432,14.699999809265137,0.0,0.0,0.0,0.0,0.0,,,,,
frame_00055.png,1771860763976851384,1771860763.9768515,42.300401294562306,-83.69862970924666,236.75775146484375,0.7128900012079946,0.701035333194895,-0.01833995685003293,-0.0009766128846933225,0.0015,0.00918,0.007470000000000001,0.5135000000000001,0.0684,-9.9169,5.1837884758795,11.59582379323389,14.519999504089355,14.460000038146973,14.529999732971191,14.4399995803833,11.790373471715984,11.741653352175694,11.798493749770145,11.725412796067372,11.763983342432299,0.01450173374456837,-4.300000190734863,14.75,0.0,0.0,0.0,0.0,0.0,,,,,
frame_00056.png,1771860764026604261,1771860764.0266042,42.30040316223374,-83.69862970055081,236.75828552246094,0.713046754265561,0.7008824077739039,-0.018090834225876325,-0.0009478509461269029,-0.0024000000000000002,0.00846,0.007380000000000001,0.4534,0.1199,-9.96,5.2063558025213545,11.64630554889212,14.579999923706055,14.50999927520752,14.50999927520752,14.50999927520752,11.839094365648613,11.782253193661825,11.782253193661825,11.782253193661825,11.79646348665852,0.01289318205984091,-4.0,14.850000381469727,0.0,0.0,0.0,0.0,0.0,,,,,
frame_00057.png,1771860764085588361,1771860764.0855885,42.30040597571514,-83.69862968225415,236.7594757080078,0.7131784091027173,0.7007429002895721,-0.01830161836680723,-0.0009976214870902928,0.01887,-0.007440000000000001,0.0064800000000000005,0.2366,0.0204,-9.6544,5.233250922369208,11.706468318284577,14.619999885559082,14.649999618530273,14.59999942779541,14.609999656677246,11.87157470347292,11.895934763243066,11.855334147364598,11.863454425418759,11.871574509874835,0.014103843029445121,-3.799999952316284,14.850000381469727,0.0,0.0,0.0,0.0,0.0,,,,,
frame_00058.png,1771860764137592838,1771860764.1375928,42.30040880233854,-83.69862966029942,236.7611083984375,0.7132762191908241,0.7006369608169871,-0.018533529802529272,-0.00118006230258033,0.008110000000000001,-0.0012300000000000002,0.005490000000000001,0.2743,-0.2411,-9.721,5.252141745038918,11.748725955147357,14.670000076293945,14.639999389648438,14.6899995803833,14.649999618530273,11.912175319351388,11.887814485188905,11.928415101067372,11.895934763243066,11.90608491721268,0.013393704361312604,-3.700000047683716,15.074999809265137,0.0,0.0,0.0,0.0,0.0,,,,,
frame_00059.png,1771860764186365828,1771860764.1863658,42.3004106939573,-83.69862964700913,236.76229858398438,0.713388318779908,0.7005230778717588,-0.018523826882021262,-0.0011797606108332336,-0.00202,0.0021600000000000005,0.007160000000000001,0.33380000000000004,0.006900000000000001,-10.0616,5.272745740498362,11.794815856750406,14.710000038146973,14.710000038146973,14.739999771118164,14.739999771118164,11.944655657175694,11.944655657175694,11.96901571694584,11.96901571694584,11.956835687060767,0.0137365290207252,-3.299999952316284,15.27500057220459,0.0,0.0,0.0,0.0,0.0,,,,,
frame_00060.png,1771860764237312391,1771860764.2373126,42.30041354363052,-83.69862962573539,236.76417541503906,0.7134847797769702,0.7004236148477165,-0.018576677624933258,-0.0010657573294387064,-0.0013000000000000002,-0.0023600000000000006,0.0064800000000000005,0.015700000000000002,0.0625,-9.8255,5.294247028375847,11.842912947655067,14.75,14.729999542236328,14.789999961853027,14.739999771118164,11.977135995,11.96089543889168,12.009616332824306,11.96901571694584,11.979165870915457,0.011505017715035069,-2.799999952316284,14.600000381469727,0.0,0.0,0.0,0.0,0.0,,,,,
frame_00061.png,1771860764287039530,1771860764.2870395,42.30041545002839,-83.69862960885828,236.76536560058594,0.7135549402046167,0.7003487831039261,-0.0187095906089894,-0.0009383675611277496,-0.00116,-0.0032900000000000004,0.004880000000000001,0.0117,-0.3645,-9.8123,5.3136163474669,11.88624095230261,14.989999771118164,14.84999942779541,14.869999885559082,14.84999942779541,12.172018021945838,12.058336452364598,12.07457700847292,12.058336452364598,12.09081698378699,0.017211163083880626,-2.6000001430511475,15.050000190734863,0.0,0.0,0.0,0.0,0.0,,,,,
frame_00062.png,1771860764328981565,1771860764.3289814,42.300418321587415,-83.69862958681422,236.7670440673828,0.7136131825219553,0.7002903587897222,-0.018680112967612034,-0.0008321637855161494,-0.007000000000000001,0.00222,0.004790000000000001,-0.26330000000000003,-0.5132,-9.5854,5.325149409269862,11.912039719572126,14.899999618530273,14.859999656677246,14.929999351501465,14.90999984741211,12.098937068243064,12.066456730418759,12.123297128013212,12.107057346297227,12.098937068243066,0.015689785550652324,-2.5,15.27500057220459,0.0,0.0,0.0,0.0,0.0,,,,,
frame_00063.png,1771860764379450870,1771860764.3794508,42.30042024127982,-83.69862957639704,236.76792907714844,0.7137106823285698,0.7002036296892424,-0.01820269442763612,-0.0007751230042542198,-0.016890000000000002,0.01913,0.0025800000000000003,-0.0015,-0.6731,-9.7393,5.336861768219629,11.938239563801218,14.960000038146973,14.960000038146973,14.960000038146973,14.949999809265137,12.147657962175694,12.147657962175694,12.147657962175694,12.139537684121532,12.145627892662155,0.017371768069537944,-2.5,15.375,0.0,0.0,0.0,0.0,0.0,,,,,
frame_00064.png,1771860764430303480,1771860764.4303036,42.30042312866529,-83.69862955795966,236.76914978027344,0.7137869766264183,0.700138582206371,-0.01769931838416495,-0.0009229481596338099,-0.0017100000000000001,0.009630000000000001,0.0027900000000000004,0.06960000000000001,-0.20770000000000002,-10.1644,5.357076141596239,11.983457904182291,15.089999198913574,15.029999732971191,15.0,15.039999961853027,12.253218479310437,12.204498359770147,12.180138300000001,12.212618637824306,12.212618444226223,0.019123072979123443,-2.4000000953674316,15.574999809265137,0.0,0.0,0.0,0.0,0.0,,,,,
frame_00065.png,1771860764480141811,1771860764.4801419,42.30042506161995,-83.69862953987123,236.7704315185547,0.7138409186603712,0.7000814033327827,-0.017754860728627142,-0.001391572573033632,0.022170000000000002,0.011800000000000001,0.00338,0.061200000000000004,-0.23900000000000002,-10.1713,5.3796184370589994,12.03388366659476,15.139999389648438,15.059999465942383,15.069999694824219,15.079999923706055,12.293819095188905,12.228858419540291,12.236978697594452,12.245098975648615,12.251188796993066,0.018057772238693908,-2.1000001430511475,15.475000381469727,0.0,0.0,0.0,0.0,0.0,,,,,
frame_00066.png,1771860764531060008,1771860764.53106,42.30042797372097,-83.69862950392775,236.77317810058594,0.7138687197154044,0.7000421094070008,-0.01816107011161741,-0.0016345033762779457,0.0082,-0.010660000000000003,0.0008400000000000001,0.19740000000000002,-0.42410000000000003,-9.933300000000001,5.411135738518938,12.104385978922554,15.079999923706055,15.109999656677246,15.15999984741211,15.089999198913574,12.245098975648615,12.269459035418759,12.310059651297227,12.253218479310437,12.269459035418759,0.013637458090286233,-1.7000000476837158,15.40000057220459,0.0,0.0,0.0,0.0,0.0,,,,,
frame_00067.png,1771860764582226969,1771860764.582227,42.30042992134136,-83.69862947768958,236.7748260498047,0.713920285998299,0.6999803132828732,-0.01853637780833646,-0.0013375179490128079,0.0014600000000000004,-0.019750000000000004,0.0022700000000000003,-0.023200000000000002,-0.1757,-9.4852,5.4348998950811245,12.157544971302771,15.229999542236328,15.119999885559082,15.210000038146973,15.149999618530273,12.36690004889168,12.27757931347292,12.350660267175694,12.301939373243066,12.324269750695839,0.01371368806667897,-1.100000023841858,15.300000190734863,0.0,0.0,0.0,0.0,0.0,,,,,
frame_00068.png,1771860764633045000,1771860764.633045,42.300432858799084,-83.69862943863914,236.77696228027344,0.7139422613255958,0.699947367568684,-0.018946373685011637,-0.0010793753527189973,0.010140000000000001,-0.012410000000000001,-0.00023000000000000003,-0.027100000000000003,-0.0476,-9.538300000000001,5.454490866749587,12.20136879946682,15.210000038146973,15.210000038146973,15.25999927520752,15.229999542236328,12.350660267175694,12.350660267175694,12.391260108661823,12.36690004889168,12.364870172976223,0.013400248463643507,-1.0,15.600000381469727,0.0,0.0,0.0,0.0,0.0,,,,,
frame_00069.png,1771860764683031707,1771860764.6830318,42.300434824832415,-83.69862941120635,236.7776641845703,0.7139319023991808,0.6999466078149318,-0.01935559343781608,-0.0011601498724791372,0.017020000000000004,-0.00543,-0.0013700000000000001,-0.0038,-0.2958,-9.488900000000001,5.472327892742163,12.241269156390654,15.309999465942383,15.25999927520752,15.309999465942383,15.269999504089355,12.431860724540291,12.391260108661823,12.431860724540291,12.399380386715984,12.413590486114597,0.0140770803682542,-1.0,15.375,0.0,0.0,0.0,0.0,0.0,,,,,
frame_00070.png,1771860764742964149,1771860764.7429643,42.30043778001288,-83.69862937494776,236.77757263183594,0.7139364889578294,0.6999397216865428,-0.019422607276805837,-0.0013557531129103685,0.0018400000000000003,0.011460000000000001,-0.00024,-0.0053,-0.4465,-9.5656,5.48993904938308,12.280664257126988,15.380000114440918,15.339999198913574,15.389999389648438,15.339999198913574,12.48870189652708,12.456220784310437,12.496821400188903,12.456220784310437,12.474491216334215,0.015783100583890736,-1.0,15.425000190734863,0.0,0.0,0.0,0.0,0.0,,,,,
frame_00071.png,1771860764784570181,1771860764.7845702,42.300439757055024,-83.69862935531906,236.777099609375,0.7139628873810593,0.6999222707668745,-0.019065766744551335,-0.0015188368857248125,-0.00319,0.014870000000000001,0.0009200000000000001,0.27990000000000004,-0.5311,-9.781500000000001,5.509059054631952,12.3234345616684,15.40999984741211,15.380000114440918,15.449999809265137,15.389999389648438,12.513061956297227,12.48870189652708,12.545542294121534,12.496821400188903,12.511031886783687,0.015222811804332744,-1.0,15.300000190734863,0.0,0.0,0.0,0.0,0.0,,,,,
frame_00072.png,1771860764844608429,1771860764.8446085,42.300442732966644,-83.69862932865676,236.77601623535156,0.7140221953392945,0.699876298757737,-0.018526115048092998,-0.0015013531396608202,-0.015530000000000002,0.0024300000000000007,0.00031,0.2857,-0.6676000000000001,-10.1112,5.537340519363352,12.386698501384657,15.519999504089355,15.489999771118164,15.479999542236328,15.479999542236328,12.602382691715986,12.578022631945839,12.56990235389168,12.56990235389168,12.580052507861295,0.015609809704742794,-1.0,15.52500057220459,0.0,0.0,0.0,0.0,0.0,,,,,
frame_00073.png,1771860764895262705,1771860764.8952627,42.300445725506634,-83.69862930754465,236.77667236328125,0.7140720687525453,0.6998344071858885,-0.018203527021969326,-0.0012307518826384822,-0.023280000000000002,-0.010080000000000002,0.00449,0.48000000000000004,-0.5885,-10.7829,5.56416224893568,12.44669710113418,15.5,15.460000038146973,15.5,15.529999732971191,12.586142910000001,12.553662572175694,12.586142910000001,12.610502969770145,12.58411284048646,0.011040337708528148,-1.0,15.5,0.0,0.0,0.0,0.0,0.0,,,,,
frame_00074.png,1771860764947210641,1771860764.9472108,42.300447729095715,-83.69862929511912,236.7784881591797,0.7141401996371536,0.6997659997339041,-0.018189005062198685,-0.0006935225040440814,-0.014830000000000003,-0.018790000000000005,0.005330000000000001,0.4617,-0.3593,-10.413400000000001,5.586963322693097,12.497701735065098,15.579999923706055,15.59999942779541,15.519999504089355,15.59999942779541,12.651103585648613,12.667343367364598,12.602382691715986,12.667343367364598,12.647043253023448,0.011949518489414631,-1.0,15.600000381469727,0.0,0.0,0.0,0.0,0.0,,,,,
frame_00075.png,1771860764996120207,1771860764.9961202,42.300450748791555,-83.69862927333779,236.7831268310547,0.7141633991263815,0.6997348009656175,-0.018488516051916128,-0.00014980006110319266,-0.0014600000000000004,-0.02843,0.00025000000000000006,0.3501,-0.22590000000000002,-9.796700000000001,5.605822397441471,12.539888353732724,15.619999885559082,15.59999942779541,15.59999942779541,15.59999942779541,12.68358392347292,12.667343367364598,12.667343367364598,12.667343367364598,12.671403506391677,0.01048774510179786,-1.0,15.65000057220459,0.0,0.0,0.0,0.0,0.0,,,,,
frame_00076.png,1771860765046488158,1771860765.046488,42.300452766952255,-83.69862925239929,236.78622436523438,0.7141467919238287,0.6997418088602304,-0.018861249657502674,0.00011738515153346525,0.0039900000000000005,-0.019090000000000003,-0.0029800000000000004,-0.20450000000000002,-0.1789,-8.918000000000001,5.617369614550687,12.565718785573015,15.679999351501465,15.75,15.75,15.75999927520752,12.732304043013212,12.789145215000001,12.789145215000001,12.797264718661824,12.776964797918758,0.016811295553444936,-1.0,15.65000057220459,0.0,0.0,0.0,0.0,0.0,,,,,
frame_00077.png,1771860765096263150,1771860765.0962632,42.30045579881062,-83.69862921376695,236.78855895996094,0.7141149807023244,0.6997718911341037,-0.01894973964447249,-4.563469926238554e-05,0.00875,0.011710000000000002,-0.00262,-0.30920000000000003,-0.2771,-9.2111,5.630140323275361,12.594286094747588,15.739999771118164,15.729999542236328,15.779999732971191,15.839999198913574,12.781024936945839,12.772904658891678,12.813505274770145,12.862225394310435,12.807415066229524,0.016922671906811838,-1.0,15.27500057220459,0.0,0.0,0.0,0.0,0.0,,,,,
frame_00078.png,1771860765147292532,1771860765.1472924,42.30045782710719,-83.69862918435027,236.7886199951172,0.7140918915756673,0.6997987337285206,-0.018823227997604254,-0.0004344486097363769,0.0036100000000000004,0.01796,-0.0015700000000000002,-0.11900000000000001,-0.5299,-9.184000000000001,5.648733256253169,12.635877370242964,15.829999923706055,15.829999923706055,15.84999942779541,15.84999942779541,12.854105890648613,12.854105890648613,12.870345672364598,12.870345672364598,12.862225781506606,0.017913153525586117,-1.0,15.225000381469727,0.0,0.0,0.0,0.0,0.0,,,,,
frame_00079.png,1771860765195877846,1771860765.1958778,42.30046087714383,-83.69862914172363,236.78648376464844,0.7140994064149763,0.6997992813161666,-0.018501032043962598,-0.0008458371375959475,0.00058,0.016770000000000004,3e-05,-0.0844,-0.44320000000000004,-9.453100000000001,5.669900914619272,12.683228151948436,15.84999942779541,15.859999656677246,15.899999618530273,15.90999984741211,12.870345672364598,12.878465950418759,12.910946288243066,12.919066566297225,12.894706119330912,0.0166738282122591,-0.9000000357627869,15.324999809265137,0.0,0.0,0.0,0.0,0.0,,,,,
frame_00080.png,1771860765246675684,1771860765.2466757,42.30046291589643,-83.6986291156567,236.78419494628906,0.7141226674524381,0.6997834918512188,-0.01816927816207692,-0.0013257805996686402,0.00468,0.024860000000000004,-0.00048,0.2743,-0.49500000000000005,-10.0177,5.6922603884444785,12.733244953326993,15.989999771118164,15.979999542236328,15.9399995803833,15.929999351501465,12.98402724194584,12.975906963891678,12.943426626067373,12.93530634801321,12.959666794979526,0.01778194344666026,-0.9000000357627869,15.52500057220459,0.0,0.0,0.0,0.0,0.0,,,,,
frame_00081.png,1771860765296597885,1771860765.2965977,42.30046599102152,-83.69862908006685,236.78265380859375,0.7141378537239511,0.6997710248016505,-0.018025720205013508,-0.0016468569114517187,0.005130000000000001,0.0031200000000000004,-0.0009400000000000002,0.4514,-0.5860000000000001,-10.503,5.717810135527476,12.790398204566834,16.020000457763672,16.170000076293945,15.949999809265137,15.969999313354492,13.008388076108323,13.130189149351388,12.951546904121534,12.967786685837519,13.014477703854691,0.017519352853912633,-0.9000000357627869,15.449999809265137,0.0,0.0,0.0,0.0,0.0,,,,,
frame_00082.png,1771860765347679124,1771860765.3476791,42.30046805173757,-83.69862905916833,236.78286743164062,0.714155868485804,0.6997537045687597,-0.01799149406652098,-0.0015667133874069463,-0.010260000000000002,-0.008280000000000001,0.0016300000000000002,0.4066,-0.7233,-10.584900000000001,5.742272138563506,12.84511823763825,16.0,16.0,16.020000457763672,16.029998779296875,12.99214752,12.99214752,13.008388076108323,13.016506805377809,13.002297480371533,0.012236496373596868,-0.800000011920929,15.300000190734863,0.0,0.0,0.0,0.0,0.0,,,,,
frame_00083.png,1771860765388693338,1771860765.3886933,42.30047115497703,-83.69862903621461,236.7850799560547,0.7141755741878149,0.699738420891335,-0.01783825187012391,-0.0010901065195415755,-0.022000000000000002,-0.008730000000000002,0.0009500000000000001,0.11330000000000001,-0.3719,-10.325700000000001,5.758146346074581,12.880627887388075,16.119998931884766,16.010000228881836,16.079999923706055,16.09000015258789,13.089587759080583,13.00026779805416,13.057108195648613,13.065228473702776,13.053048056621533,0.013386006547264786,-0.699999988079071,15.324999809265137,0.0,0.0,0.0,0.0,0.0,,,,,
frame_00084.png,1771860765448908085,1771860765.448908,42.300474273665046,-83.69862902284306,236.78883361816406,0.7141944018387689,0.6997276922971739,-0.0175360193747224,3.223544352334286e-05,-0.03470000000000001,-0.020290000000000002,0.00019000000000000004,0.3191,-0.4227,-9.9343,5.785396052266805,12.941583845157707,16.170000076293945,16.09000015258789,16.19999885559082,16.170000076293945,13.130189149351388,13.065228473702776,13.154548434729195,13.130189149351388,13.120038801783686,0.013789267122258026,-0.5,15.15000057220459,0.0,0.0,0.0,0.0,0.0,,,,,
frame_00085.png,1771860765500001327,1771860765.5000012,42.30047635999533,-83.69862901646833,236.79156494140625,0.7142135019469672,0.6997129125548323,-0.017319651670844774,0.0009712397664429161,-0.028950000000000004,-0.015320000000000002,0.0008900000000000001,0.2566,-0.2906,-9.6103,5.8051526567451965,12.985778183979601,15.989999771118164,16.279998779296875,16.19999885559082,16.260000228881836,12.98402724194584,13.219509110377807,13.154548434729195,13.203270103054162,13.14033872252675,0.011902293136180912,-0.4000000059604645,14.975000381469727,0.0,0.0,0.0,0.0,0.0,,,,,
frame_00086.png,1771860765551089762,1771860765.5510898,42.30047950158343,-83.69862900410031,236.7953643798828,0.7142112508626203,0.6997149904618305,-0.0172719109167532,0.0017036306921900369,-0.01641,-0.013620000000000002,0.00029,0.298,-0.1627,-9.533100000000001,5.825470918064732,13.031228915455722,16.209999084472656,16.270000457763672,16.270000457763672,16.279998779296875,13.162668712783356,13.211390381108323,13.211390381108323,13.219509110377807,13.201239646344453,0.0130464081317065,-0.20000000298023224,15.100000381469727,0.0,0.0,0.0,0.0,0.0,,,,,
frame_00087.png,1771860765600747394,1771860765.6007476,42.300481602719955,-83.69862898817243,236.7975616455078,0.7141867667727861,0.6997317163298838,-0.01758119329788321,0.0019206693863217448,0.014240000000000001,-0.012780000000000001,-0.0018700000000000004,-0.056600000000000004,0.24200000000000002,-9.4982,5.8416413896579575,13.067401290181472,16.299999237060547,16.260000228881836,16.350000381469727,16.28999900817871,13.23574966648613,13.203270103054162,13.276351056756935,13.22762938843197,13.2357500536823,0.012883109637669267,0.20000000298023224,14.52500057220459,0.0,0.0,0.0,0.0,0.0,,,,,
frame_00088.png,1771860765643066888,1771860765.643067,42.30048370933818,-83.69862895886692,236.7988739013672,0.7141484401489704,0.6997577244031764,-0.018131199676181736,0.0015466638882220061,0.04020000000000001,-0.0007600000000000002,-0.0028000000000000004,-0.168,0.12940000000000002,-9.4696,5.8537405041984405,13.09446628346166,16.369998931884766,16.31999969482422,16.350000381469727,16.35999870300293,13.292590064080583,13.251990222594452,13.276351056756935,13.28446978602642,13.276350282364598,0.0138901422147047,0.5,14.27500057220459,0.0,0.0,0.0,0.0,0.0,,,,,
frame_00089.png,1771860765692636410,1771860765.6926365,42.30048687285479,-83.6986289070941,236.8000030517578,0.71410597298028,0.6997897602808962,-0.018608462716040546,0.0008221163172707244,0.021320000000000006,0.012870000000000003,-0.00029,-0.066,-0.5722,-9.4868,5.8620195586656205,13.112986031561475,16.420000076293945,16.489999771118164,16.459999084472656,16.40999984741211,13.333191454351388,13.39003185194584,13.365671017783358,13.325071176297227,13.353491375094453,0.0183410050887044,0.800000011920929,14.350000381469727,0.0,0.0,0.0,0.0,0.0,,,,,
frame_00090.png,1771860765743559322,1771860765.7435594,42.300488983788526,-83.69862887279662,236.80039978027344,0.7140616103082676,0.6998483048012714,-0.018120462912416493,0.00012559693561444525,-0.008510000000000002,0.032420000000000004,5.000000000000001e-05,-0.1267,-0.4244,-10.1507,5.868493349031124,13.127467512181683,16.459999084472656,16.600000381469727,16.5,16.489999771118164,13.365671017783358,13.479353361756935,13.39815213,13.39003185194584,13.408302090371533,0.0213928983582895,0.800000011920929,14.27500057220459,0.0,0.0,0.0,0.0,0.0,,,,,
frame_00091.png,1771860765793785429,1771860765.7937853,42.30049215570898,-83.6986288297459,236.8013153076172,0.7139991405252842,0.6999305575141255,-0.017383724684780333,-0.0004980995932596763,-0.00144,0.03905,-0.004050000000000001,0.027100000000000003,-0.1892,-9.9247,5.8804727522026,13.154264718312085,16.579999923706055,16.60999870300293,16.579999923706055,16.579999923706055,13.463112805648613,13.487472091026422,13.463112805648613,13.463112805648613,13.469202626993065,0.023941886181031005,0.5,14.40000057220459,0.0,0.0,0.0,0.0,0.0,,,,,
frame_00092.png,1771860765853505369,1771860765.8535054,42.30049533797539,-83.69862879408342,236.80291748046875,0.7139517355028352,0.6999910480044262,-0.016838163904344894,-0.0013886405169228765,0.011230000000000002,0.041510000000000005,-0.0016100000000000003,0.1531,-0.2036,-10.195300000000001,5.897412928925448,13.192158877230492,16.6299991607666,16.65999984741211,16.639999389648438,16.5,13.503712647134742,13.528073481297227,13.511832925188905,13.39815213,13.485442795905218,0.02223168485189568,-0.30000001192092896,14.15000057220459,0.0,0.0,0.0,0.0,0.0,,,,,
frame_00093.png,1771860765903828333,1771860765.9038281,42.30049746670309,-83.69862877568214,236.8045196533203,0.7139601723680609,0.699995658603454,-0.016224572680680914,-0.001927031347577645,-0.011760000000000001,0.021920000000000002,0.0015700000000000002,0.3504,-0.6411,-9.8811,5.92676446767934,13.257816508330624,16.65999984741211,16.60999870300293,16.75,16.649999618530273,13.528073481297227,13.487472091026422,13.601154435,13.519953203243064,13.534163302641678,0.020844065396244577,-0.699999988079071,13.5,0.0,0.0,0.0,0.0,0.0,,,,,
frame_00094.png,1771860765955018913,1771860765.955019,42.300500673011015,-83.69862876329043,236.8071746826172,0.7140532735100997,0.6999183475053915,-0.015471638972046769,-0.0016905035792286337,-0.026310000000000004,0.01668,0.00506,0.3089,-0.26130000000000003,-9.440100000000001,5.947745854181441,13.304750611052635,16.65999984741211,16.60999870300293,16.770000457763672,16.729999542236328,13.528073481297227,13.487472091026422,13.617394991108322,13.58491387889168,13.554463610580914,0.018768709525516077,-0.699999988079071,12.25,0.0,0.0,0.0,0.0,0.0,,,,,
frame_00095.png,1771860766004609873,1771860766.0046098,42.300502818734145,-83.69862875969052,236.80833435058594,0.7141602157919387,0.6998249015643284,-0.014786916685419737,-0.0012807909384293117,-0.026690000000000002,0.00893,0.00434,0.266,-0.052000000000000005,-9.193200000000001,5.968160946255771,13.350417947117386,16.69999885559082,16.690000534057617,16.770000457763672,16.719999313354492,13.560553044729195,13.55243431545971,13.617394991108322,13.576793600837517,13.576793988033685,0.0169564759555096,-0.699999988079071,12.27500057220459,0.0,0.0,0.0,0.0,0.0,,,,,
frame_00096.png,1771860766046743880,1771860766.0467439,42.30050497051946,-83.69862875271303,236.80908203125,0.714204944069873,0.6997892550615376,-0.014316960739243684,-0.0011493484061815815,-0.018330000000000003,0.014530000000000003,0.0034500000000000004,0.0974,0.24750000000000003,-9.1341,5.980885362114916,13.378881701929341,16.690000534057617,16.84000015258789,16.75,16.81999969482422,13.55243431545971,13.674235388702774,13.601154435,13.657994832594452,13.621454742939234,0.018131040128332367,-0.800000011920929,12.175000190734863,0.0,0.0,0.0,0.0,0.0,,,,,
frame_00097.png,1771860766097229354,1771860766.0972292,42.300508206170484,-83.69862872483826,236.80828857421875,0.7141968365693233,0.6998010779903159,-0.014097782845476508,-0.001606983760024059,0.015820000000000004,0.019760000000000003,0.0009300000000000002,-0.0601,0.044500000000000005,-9.7764,5.998929981468451,13.419246432746037,16.770000457763672,16.75,16.770000457763672,16.90999984741211,13.617394991108322,13.601154435,13.617394991108322,13.731075786297227,13.641755050878468,0.01658130501199069,-0.9000000357627869,12.225000381469727,0.0,0.0,0.0,0.0,0.0,,,,,
frame_00098.png,1771860766155458574,1771860766.1554585,42.300511453120905,-83.69862867707187,236.8070068359375,0.7141037815595752,0.6998920137401318,-0.014167585992423867,-0.002497553251669267,0.013930000000000001,0.01454,-0.007220000000000001,-0.138,-0.22290000000000001,-10.635,6.016365834328167,13.45824938944205,16.889999389648438,16.809999465942383,16.809999465942383,16.799999237060547,13.714835230188905,13.649874554540292,13.649874554540292,13.641754276486129,13.664084653938904,0.015294356534835083,-0.800000011920929,11.949999809265137,0.0,0.0,0.0,0.0,0.0,,,,,
frame_00099.png,1771860766198240659,1771860766.1982408,42.3005136248191,-83.69862863812962,236.8074188232422,0.714036329251391,0.6999610848983147,-0.014103958824734726,-0.0027710075142152886,-0.00032,-0.0025700000000000007,-0.006590000000000001,0.3743,-0.3677,-11.075000000000001,6.0350238900256326,13.499986340553939,16.889999389648438,16.959999084472656,16.84000015258789,16.81999969482422,13.714835230188905,13.771675627783356,13.674235388702774,13.657994832594452,13.704685269817373,0.015162898991128562,-0.800000011920929,12.050000190734863,0.0,0.0,0.0,0.0,0.0,,,,,
frame_00100.png,1771860766248319287,1771860766.2483191,42.300516891640804,-83.69862858946287,236.81167602539062,0.7140020522591428,0.6999966443779128,-0.014131500888944368,-0.00246331322000978,-0.00538,-0.02177,-0.0016700000000000003,0.41500000000000004,-0.39580000000000004,-11.1828,6.055802800949968,13.546467517557021,17.010000228881836,16.920000076293945,16.85999870300293,16.8799991607666,13.812277018054163,13.739196064351386,13.690474396026422,13.706714952134744,13.73716560764168,0.01407732974205291,-0.800000011920929,12.15000057220459,0.0,0.0,0.0,0.0,0.0,,,,,
frame_00101.png,1771860766305824580,1771860766.3058245,42.30051908037498,-83.69862855685493,236.81768798828125,0.7140435928043245,0.6999395509484668,-0.014951412928985653,-0.0016816196291419695,0.00884,-0.04922000000000001,0.0037200000000000006,0.2245,-0.519,-10.848700000000001,6.078423942627555,13.597069654221283,16.889999389648438,16.8799991607666,16.889999389648438,16.920000076293945,13.714835230188905,13.706714952134744,13.714835230188905,13.739196064351386,13.718895369215986,0.008959703678276107,-0.800000011920929,12.300000190734863,0.0,0.0,0.0,0.0,0.0,,,,,
frame_00102.png,1771860766357006406,1771860766.3570063,42.30052237315693,-83.69862850697201,236.82925415039062,0.7140893781575218,0.6998674383689814,-0.016157866975695514,-0.0009230645913140012,0.014280000000000003,-0.06078000000000001,0.004480000000000001,0.1306,-0.1714,-9.9357,6.092510545587446,13.628580539846382,16.94999885559082,16.85999870300293,17.010000228881836,16.940000534057617,13.763555349729195,13.690474396026422,13.812277018054163,13.75543662045971,13.755435846067373,0.009308035114155814,-0.800000011920929,11.65000057220459,0.0,0.0,0.0,0.0,0.0,,,,,
frame_00103.png,1771860766397642325,1771860766.3976421,42.300524571621004,-83.6986284756122,236.83721923828125,0.7141081156913927,0.6998268128928381,-0.017087164318244294,-0.00024469471250857704,0.01007,-0.05192000000000001,-0.00016,-0.44470000000000004,-0.0936,-8.9198,6.0952888954245585,13.634795541731012,16.899999618530273,16.84000015258789,16.989999771118164,16.989999771118164,13.722955508243064,13.674235388702774,13.796036461945839,13.796036461945839,13.747315955209379,0.008252445966936816,-0.800000011920929,11.02500057220459,0.0,0.0,0.0,0.0,0.0,,,,,
frame_00104.png,1771860766458053513,1771860766.4580536,42.300527870903856,-83.69862842253264,236.84613037109375,0.7140805740845285,0.699839980788326,-0.017688697197926186,0.00021212436413415746,0.00834,-0.006470000000000001,-0.0014600000000000004,-0.45690000000000003,-0.5466,-8.7664,6.091141584659136,13.625518256387409,17.029998779296875,17.059999465942383,17.09000015258789,17.10999870300293,13.828516025377809,13.852876859540292,13.877237693702774,13.89347670102642,13.863026819911825,0.017431158144247217,-0.800000011920929,9.125,0.0,0.0,0.0,0.0,0.0,,,,,
frame_00105.png,1771860766498881720,1771860766.4988818,42.30053007059929,-83.6986283812469,236.84942626953125,0.7140473539218265,0.6998768511850146,-0.017570397432671192,0.00022509252522791593,-3e-05,0.00525,-0.00029,-0.0316,-0.07640000000000001,-8.5958,6.097747756018935,13.640295865348996,17.079999923706055,17.079999923706055,17.10999870300293,17.09000015258789,13.869117415648613,13.869117415648613,13.89347670102642,13.877237693702774,13.877237306506606,0.017370696610732757,-0.800000011920929,6.950000286102295,0.0,0.0,0.0,0.0,0.0,,,,,
frame_00106.png,1771860766551302394,1771860766.5513024,42.30053337214362,-83.69862833422518,236.85145568847656,0.7140261857388743,0.6999064961483094,-0.017248212677282743,-4.345147424811855e-05,0.0005900000000000001,0.017320000000000002,-2e-05,0.233,-0.0403,-9.0692,6.10826980153869,13.663833049853958,17.119998931884766,17.1299991607666,17.10999870300293,17.139999389648438,13.901596979080582,13.909717257134744,13.89347670102642,13.917837535188903,13.905657118107662,0.017698113506757825,-0.800000011920929,3.924999952316284,0.0,0.0,0.0,0.0,0.0,,,,,
frame_00107.png,1771860766601254073,1771860766.6012542,42.300535577225766,-83.69862830440722,236.85137939453125,0.7140415678547245,0.6998948897927352,-0.01707498387823455,-0.0004770148218180997,0.006440000000000001,0.020470000000000002,0.004540000000000001,-0.048400000000000006,0.5312,-9.4985,6.118297459395971,13.686264318821225,17.190000534057617,17.18000030517578,17.219999313354492,17.059999465942383,13.95843892545971,13.950318647405549,13.982798210837517,13.852876859540292,13.936108160810768,0.01825507941169602,-0.800000011920929,2.2750000953674316,0.0,0.0,0.0,0.0,0.0,,,,,
frame_00108.png,1771860766652297670,1771860766.6522977,42.300538891319285,-83.69862825864156,236.85145568847656,0.7140504671036407,0.6998895357077773,-0.016908249805123454,-0.0008242113513554348,-0.0026600000000000005,0.019950000000000006,0.00102,0.2288,-0.1333,-10.064300000000001,6.127945800164578,13.707847078220151,17.139999389648438,17.139999389648438,17.190000534057617,17.079999923706055,13.917837535188903,13.917837535188903,13.95843892545971,13.869117415648613,13.915807852871534,0.015170928991599527,-0.800000011920929,0.0,0.0,0.0,0.0,0.0,0.0,,,,,
frame_00109.png,1771860766702346218,1771860766.7023463,42.300541100075726,-83.69862823219829,236.8520050048828,0.714104314201456,0.6998404379417905,-0.016659425047559826,-0.0009238059297340191,-0.004750000000000001,0.014410000000000001,0.0030800000000000003,-0.262,-0.0775,-10.458400000000001,6.126854766157752,13.705406500608923,17.19999885559082,17.139999389648438,17.18000030517578,17.1299991607666,13.966557654729193,13.917837535188903,13.950318647405549,13.909717257134744,13.936107773614598,0.016832866139025127,-0.800000011920929,0.0,0.0,0.0,0.0,0.0,0.0,,,,,
frame_00110.png,1771860766753184283,1771860766.7531843,42.30054441499846,-83.69862819260759,236.8548126220703,0.7141733204507589,0.6997775646942697,-0.016339475059975638,-0.0009218794170150588,-0.009080000000000001,0.006970000000000001,0.0012600000000000003,-0.3345,-0.4087,-10.5228,6.1256303329250645,13.702667516933396,17.190000534057617,17.190000534057617,17.139999389648438,17.149999618530273,13.95843892545971,13.95843892545971,13.917837535188903,13.925957813243066,13.940168299837847,0.017332448781301458,-0.800000011920929,0.0,0.0,0.0,0.0,0.0,0.0,,,,,
frame_00111.png,1771860766803275776,1771860766.8032758,42.30054662376083,-83.6986281648439,236.85784912109375,0.7142243512905121,0.6997287977388145,-0.01619231717602812,-0.000997247768144607,0.0017800000000000001,0.0008700000000000001,0.0012500000000000002,-0.6394000000000001,-0.2577,-10.1723,6.1178302376392315,13.685219171784704,17.190000534057617,17.239999771118164,17.219999313354492,17.209999084472656,13.95843892545971,13.999038766945839,13.982798210837517,13.974677932783356,13.978738459006605,0.021447905476520264,-0.800000011920929,0.0,0.0,0.0,0.0,0.0,0.0,,,,,
frame_00112.png,1771860766854165824,1771860766.8541658,42.300549931478656,-83.69862812147794,236.86276245117188,0.7142805930422887,0.6996710044020849,-0.016186591953435435,-0.001309291055203886,0.0030300000000000006,0.009140000000000002,0.0021300000000000004,-0.0621,-0.4486,-9.6439,6.113727827476703,13.676042326395738,17.170000076293945,17.139999389648438,17.139999389648438,17.209999084472656,13.942198369351386,13.917837535188903,13.917837535188903,13.974677932783356,13.938137843128137,0.019164573381477215,-0.800000011920929,0.0,0.0,0.0,0.0,0.0,0.0,,,,,
frame_00113.png,1771860766903880593,1771860766.9038806,42.30055213403358,-83.69862809415176,236.8659210205078,0.7142822252373132,0.6996728876255747,-0.01604265538475364,-0.0011773869067271017,-0.02288,-0.004280000000000001,0.004470000000000001,-0.6183000000000001,0.22460000000000002,-10.037600000000001,6.106328931127262,13.659491439195818,17.119998931884766,17.100000381469727,17.100000381469727,17.139999389648438,13.901596979080582,13.885357971756937,13.885357971756937,13.917837535188903,13.89753761444584,0.017427162373479695,-0.800000011920929,0.0,0.0,0.0,0.0,0.0,0.0,,,,,
frame_00114.png,1771860766964277656,1771860766.9642777,42.30055543486558,-83.69862805195167,236.87051391601562,0.7143061769566575,0.6996530879747365,-0.015863751598026207,-0.0007638286563943059,-0.014690000000000002,-0.00727,0.00144,-0.3649,0.42060000000000003,-9.443200000000001,6.098753181568296,13.642544941977384,17.03999900817871,17.06999969482422,17.06999969482422,16.94999885559082,13.83663630343197,13.860997137594453,13.860997137594453,13.763555349729195,13.830546482087518,0.013780532951125822,-0.800000011920929,0.0,0.0,0.0,0.0,0.0,0.0,,,,,
frame_00115.png,1771860767005168378,1771860767.0051684,42.30055763278119,-83.69862802552318,236.87315368652344,0.7143402392394266,0.6996191079484366,-0.015835756017152963,-0.0005960101991943534,-0.0059700000000000005,0.0012900000000000001,0.0031500000000000005,-0.6114,0.0279,-9.3302,6.086195350110253,13.61445382647563,17.03999900817871,17.0,17.059999465942383,17.09000015258789,13.83663630343197,13.80415674,13.852876859540292,13.877237693702774,13.842726899168758,0.016766965138859388,-0.699999988079071,0.0,0.0,0.0,0.0,0.0,0.0,,,,,
frame_00116.png,1771860767064958895,1771860767.064959,42.30056092021739,-83.69862798644859,236.87599182128906,0.7143952180223204,0.699561350617643,-0.015891352072032197,-0.0009241851455608643,0.01948,0.019820000000000004,-0.00016,-0.5845,0.11220000000000001,-9.3739,6.065905247008702,13.569066083243648,17.059999465942383,16.979999542236328,17.06999969482422,16.979999542236328,13.852876859540292,13.78791618389168,13.860997137594453,13.78791618389168,13.822426591229526,0.018671919381301513,-0.699999988079071,0.0,0.0,0.0,0.0,0.0,0.0,,,,,
frame_00117.png,1771860767117790037,1771860767.11779,42.30056419791368,-83.69862794096575,236.87799072265625,0.7144128387606293,0.6995415954219368,-0.015939755709643812,-0.0013327702079689928,0.00281,0.00544,-0.00051,-0.4272,-0.3146,-10.0306,6.063804253278965,13.564366286329848,16.94999885559082,17.010000228881836,17.03999900817871,16.969999313354492,13.763555349729195,13.812277018054163,13.83663630343197,13.779795905837517,13.79806614426321,0.017228955116678307,-0.6000000238418579,0.0,0.0,0.0,0.0,0.0,0.0,,,,,
frame_00118.png,1771860767157227816,1771860767.1572278,42.30056638273239,-83.69862790974425,236.87998962402344,0.7143929907048812,0.6995611803986651,-0.015974704227766548,-0.0012722168828834626,-0.0015300000000000003,-0.012670000000000002,-0.0009500000000000001,-0.2485,-0.34600000000000003,-10.3575,6.063664517820582,13.564053706493574,16.989999771118164,16.979999542236328,16.93000030517578,16.940000534057617,13.796036461945839,13.78791618389168,13.747316342405549,13.75543662045971,13.771676402175695,0.015306832321279036,-0.6000000238418579,0.0,0.0,0.0,0.0,0.0,0.0,,,,,
frame_00119.png,1771860767207350341,1771860767.2073503,42.30056856614145,-83.69862787554507,236.88267517089844,0.714348239641223,0.6995982794970039,-0.01637039048462,-0.0009220421351557278,0.00464,-0.026830000000000003,0.0008000000000000001,-0.30610000000000004,-0.7404000000000001,-10.421800000000001,6.058324933939529,13.55210937772669,16.959999084472656,16.920000076293945,16.90999984741211,16.85999870300293,13.771675627783356,13.739196064351386,13.731075786297227,13.690474396026422,13.733105468614598,0.013355565974502834,-0.6000000238418579,0.125,0.0,0.0,0.0,0.0,0.0,,,,,
frame_00120.png,1771860767258182917,1771860767.258183,42.30057183762186,-83.69862782752548,236.88833618164062,0.7143379349116369,0.6995937347035905,-0.017021006986016992,-0.00045434661032134034,0.011630000000000001,-0.03407,-0.00384,-0.14500000000000002,-0.8316,-10.3042,6.047531176436394,13.527964389817628,16.94999885559082,16.889999389648438,16.84000015258789,16.84000015258789,13.763555349729195,13.714835230188905,13.674235388702774,13.674235388702774,13.706715339330913,0.013213440275451125,-0.6000000238418579,0.949999988079071,0.0,0.0,0.0,0.0,0.0,,,,,
frame_00121.png,1771860767306784291,1771860767.3067842,42.30057401626168,-83.69862779450385,236.89309692382812,0.7143479256099078,0.6995633402352135,-0.017836977042455147,-0.00012816301909143607,0.0171,-0.036090000000000004,0.0022,-0.752,-0.2842,-9.8954,6.032526814713668,13.494400532905594,16.8799991607666,16.90999984741211,16.8799991607666,16.920000076293945,13.706714952134744,13.731075786297227,13.706714952134744,13.739196064351386,13.720925438729527,0.0167865853152617,-0.4000000059604645,1.75,0.0,0.0,0.0,0.0,0.0,,,,,
frame_00122.png,1771860767357645021,1771860767.357645,42.300577278140395,-83.69862774523843,236.9009246826172,0.7143704296960618,0.6995209781725246,-0.018581958683331484,3.292278010997216e-05,0.014700000000000003,-0.022820000000000003,0.0015900000000000003,-0.5810000000000001,-0.44120000000000004,-9.7477,6.017553371093214,13.460905837933256,16.8799991607666,16.78999900817871,16.85999870300293,16.799999237060547,13.706714952134744,13.63363399843197,13.690474396026422,13.641754276486129,13.668144405769816,0.015395588553376211,-0.30000001192092896,2.0,0.0,0.0,0.0,0.0,0.0,,,,,
frame_00123.png,1771860767407740647,1771860767.4077406,42.30057944701,-83.6986277146182,236.9058074951172,0.7144139935029413,0.6994692747536666,-0.018850328010711778,0.0002114158162771092,-0.00034,-0.006720000000000001,0.0020100000000000005,-0.5757,-0.4529,-9.3504,6.0007653095221904,13.42335195148257,16.809999465942383,16.770000457763672,16.829999923706055,16.78999900817871,13.649874554540292,13.617394991108322,13.666115110648613,13.63363399843197,13.641754663682299,0.016270355794076284,-0.30000001192092896,2.125,0.0,0.0,0.0,0.0,0.0,,,,,
frame_00124.png,1771860767458673349,1771860767.4586735,42.30058269002837,-83.6986276749898,236.9110870361328,0.7144593303072568,0.6994252538468079,-0.01876171532233577,0.00042149305790397133,-0.013660000000000002,-0.007180000000000001,0.00232,-0.6137,-0.43310000000000004,-9.2835,5.986929550311979,13.392402188274879,16.760000228881836,16.719999313354492,16.78999900817871,16.770000457763672,13.609274713054162,13.576793600837517,13.63363399843197,13.617394991108322,13.609274325857992,0.016193669704228718,-0.30000001192092896,2.5250000953674316,0.0,0.0,0.0,0.0,0.0,,,,,
frame_00125.png,1771860767508798932,1771860767.508799,42.30058592118658,-83.6986276334542,236.91477966308594,0.7144922720892419,0.6993990082695599,-0.018483336111392197,0.00043202141369488113,-0.008510000000000002,0.009810000000000001,0.0014100000000000002,-0.4243,-0.23090000000000002,-9.550500000000001,5.971188743063251,13.35719094690791,16.739999771118164,16.739999771118164,16.760000228881836,16.770000457763672,13.593034156945839,13.593034156945839,13.609274713054162,13.617394991108322,13.60318450451354,0.018416563675955913,-0.30000001192092896,2.299999952316284,0.0,0.0,0.0,0.0,0.0,,,,,
frame_00126.png,1771860767559805715,1771860767.5598056,42.300588072380606,-83.69862760634376,236.9168701171875,0.7144833496550366,0.6994107830241374,-0.018385898449201056,0.00024164746512682657,0.006470000000000001,0.010700000000000001,5.000000000000001e-05,-0.4897,-0.0286,-9.867600000000001,5.957801665639264,13.327244857935096,16.68000030517578,16.709999084472656,16.719999313354492,16.709999084472656,13.544314037405549,13.568673322783358,13.576793600837517,13.568673322783358,13.564613570952446,0.017810786516465914,-0.30000001192092896,3.049999952316284,0.0,0.0,0.0,0.0,0.0,,,,,
frame_00127.png,1771860767609908647,1771860767.6099088,42.30059129376986,-83.6986275731845,236.91966247558594,0.7145149519973897,0.6993856544073204,-0.018112698709308817,0.00014116259360286975,-0.012680000000000002,0.014300000000000002,0.0025400000000000006,-0.1694,-0.5645,-9.21,5.9457216132019015,13.300222505435862,16.729999542236328,16.719999313354492,16.729999542236328,16.649999618530273,13.58491387889168,13.576793600837517,13.58491387889168,13.519953203243064,13.566643640465983,0.020031329169210063,-0.30000001192092896,2.9750001430511475,0.0,0.0,0.0,0.0,0.0,,,,,
frame_00128.png,1771860767660877466,1771860767.6608775,42.300593435372306,-83.69862755370791,236.9210968017578,0.7145738536922875,0.6993405249835927,-0.01752184277850083,0.00015086640362334386,-0.015070000000000002,0.013610000000000002,0.004660000000000001,-0.4456,0.1535,-9.7049,5.936383633034531,13.279334004080264,16.6299991607666,16.559999465942383,16.690000534057617,16.670000076293945,13.503712647134742,13.446872249540291,13.55243431545971,13.536193759351388,13.509803242871534,0.017355481737296136,-0.30000001192092896,2.825000047683716,0.0,0.0,0.0,0.0,0.0,,,,,
frame_00129.png,1771860767711622312,1771860767.7116225,42.300596646070645,-83.69862752324661,236.92306518554688,0.7146236267222383,0.6992991364735105,-0.017139980317983167,0.0001045583884336366,-0.011170000000000003,0.016050000000000002,0.0024500000000000004,-0.21430000000000002,-0.2536,-9.6395,5.927964667288219,13.260501282843709,16.649999618530273,16.65999984741211,16.6299991607666,16.729999542236328,13.519953203243064,13.528073481297227,13.503712647134742,13.58491387889168,13.534163302641677,0.020637381194029858,-0.30000001192092896,3.2250001430511475,0.0,0.0,0.0,0.0,0.0,,,,,
frame_00130.png,1771860767762671671,1771860767.7626717,42.300598785657,-83.69862749974617,236.9246368408203,0.7146236676295491,0.6993028555098408,-0.016985854483705418,0.00010337762196750478,0.0014500000000000003,0.0024600000000000004,0.00109,-0.40440000000000004,-0.221,-9.820500000000001,5.920581770335504,13.243986185334304,16.59000015258789,16.6299991607666,16.690000534057617,16.600000381469727,13.471233083702774,13.503712647134742,13.55243431545971,13.479353361756935,13.50168335201354,0.019457674077355682,-0.20000000298023224,3.1500000953674316,0.0,0.0,0.0,0.0,0.0,,,,,
frame_00131.png,1771860767813015967,1771860767.8130162,42.30060199518874,-83.6986274601668,236.9276885986328,0.7146156398418834,0.6993098146767716,-0.01703730776191854,2.311581221033388e-05,0.013320000000000002,0.013150000000000002,-0.0004300000000000001,-0.4247,0.1562,-9.9018,5.909750092042892,13.219756370894428,16.520000457763672,16.489999771118164,16.559999465942383,16.53999900817871,13.414392686108322,13.39003185194584,13.446872249540291,13.43063169343197,13.420482120256606,0.015183770693695251,0.10000000149011612,3.799999952316284,0.0,0.0,0.0,0.0,0.0,,,,,
frame_00132.png,1771860767863798082,1771860767.863798,42.300604126937074,-83.69862742877108,236.92959594726562,0.7145915178229443,0.6993329151521893,-0.017100622658881792,-7.172809680349804e-05,0.010220000000000002,-0.00192,-0.00595,0.3799,0.2109,-9.7695,5.90805692730608,13.215968862968063,16.5,16.399999618530273,16.520000457763672,16.520000457763672,13.39815213,13.316950898243064,13.414392686108322,13.414392686108322,13.385972100114927,0.012863471373878811,0.4000000059604645,4.025000095367432,0.0,0.0,0.0,0.0,0.0,,,,,
frame_00133.png,1771860767913959558,1771860767.9139597,42.30060732586831,-83.69862737994086,236.93325805664062,0.7145554136465618,0.6993617054765651,-0.01742609831258889,-0.0003111894939109143,0.01862,-0.0073100000000000005,-0.0058200000000000005,0.1066,0.5213,-9.5677,5.899173192286344,13.196096480753017,16.479999542236328,16.459999084472656,16.459999084472656,16.489999771118164,13.381911573891678,13.365671017783358,13.365671017783358,13.39003185194584,13.375821365351058,0.013619549149263685,0.800000011920929,4.0,0.0,0.0,0.0,0.0,0.0,,,,,
frame_00134.png,1771860767965225364,1771860767.9652255,42.300609450370295,-83.69862734491562,236.93605041503906,0.7145341158127487,0.699367867416289,-0.018031263836693165,-0.0006759361929826184,0.022550000000000004,-0.006750000000000001,-0.0013200000000000002,-0.0951,-0.1623,-9.5995,5.885171768205817,13.164776135170321,16.420000076293945,16.479999542236328,16.43000030517578,16.459999084472656,13.333191454351388,13.381911573891678,13.341311732405547,13.365671017783358,13.35552144460799,0.01448906593467129,1.100000023841858,4.025000095367432,0.0,0.0,0.0,0.0,0.0,,,,,
frame_00135.png,1771860768014965875,1771860768.0149658,42.30061263594924,-83.69862729500382,236.9413299560547,0.7145265555796134,0.6993656021439828,-0.01840861089234936,-0.000823986851981155,0.005890000000000001,-0.006060000000000001,0.0029800000000000004,-0.2592,-0.3178,-9.6103,5.871053878208944,13.133195262320715,16.43000030517578,16.3799991607666,16.44999885559082,16.40999984741211,13.341311732405547,13.300710342134742,13.357550739729195,13.325071176297227,13.331160997641678,0.015073691616306742,1.3000000715255737,4.200000286102295,0.0,0.0,0.0,0.0,0.0,,,,,
frame_00136.png,1771860768074448635,1771860768.0744486,42.30061581260118,-83.6986272545949,236.9468231201172,0.714479820782178,0.6994115718189335,-0.01848347118777747,-0.0006326086358573184,-0.010150000000000001,-0.008310000000000001,-0.0029600000000000004,-0.4006,-0.2684,-9.9428,5.8570411657250565,13.101849665257008,16.43000030517578,16.309999465942383,16.420000076293945,16.35999870300293,13.341311732405547,13.24386994454029,13.333191454351388,13.28446978602642,13.30071072933091,0.015178090815775033,1.3000000715255737,4.650000095367432,0.0,0.0,0.0,0.0,0.0,,,,,
frame_00137.png,1771860768124999651,1771860768.1249998,42.30061792864473,-83.69862723642856,236.95106506347656,0.7144363119016474,0.6994629433239432,-0.018229129965606515,-0.00021441472729830322,-0.014560000000000002,-0.0016300000000000002,-0.004600000000000001,-0.3257,0.1462,-9.7806,5.846989345961978,13.079364347556188,16.35999870300293,16.34000015258789,16.420000076293945,16.40999984741211,13.28446978602642,13.268230778702774,13.333191454351388,13.325071176297227,13.302740798844452,0.017078540313773,1.3000000715255737,4.825000286102295,0.0,0.0,0.0,0.0,0.0,,,,,
frame_00138.png,1771860768167152646,1771860768.1671526,42.30062003772701,-83.6986272194757,236.9547576904297,0.71440973666923,0.6994936149289022,-0.018094479460875945,2.5277216144706475e-05,-0.023940000000000003,0.00021000000000000004,-0.00015000000000000001,-0.4197,0.034300000000000004,-8.9481,5.838028176675081,13.059318749531558,16.299999237060547,16.40999984741211,16.35999870300293,16.299999237060547,13.23574966648613,13.325071176297227,13.28446978602642,13.23574966648613,13.270260073823977,0.016152551931545838,1.3000000715255737,4.75,0.0,0.0,0.0,0.0,0.0,,,,,
frame_00139.png,1771860768216968608,1771860768.2169688,42.300623198469175,-83.69862719351072,236.95950317382812,0.7143548166716426,0.6995538459500947,-0.01793287362419517,0.00015671003010350864,-0.015760000000000003,-0.0024400000000000003,-0.00203,-0.7084,-0.21630000000000002,-9.114600000000001,5.830449975533972,13.042366768270963,16.350000381469727,16.31999969482422,16.350000381469727,16.31999969482422,13.276351056756935,13.251990222594452,13.276351056756935,13.251990222594452,13.264170639675694,0.017006412666167932,1.3000000715255737,5.025000095367432,0.0,0.0,0.0,0.0,0.0,,,,,
frame_00140.png,1771860768267420992,1771860768.267421,42.30062530177485,-83.69862717446556,236.96180725097656,0.7142751370745206,0.6996418190900212,-0.017672927581850524,0.00014549318781972634,0.0016000000000000003,0.013280000000000002,-0.0031700000000000005,-1.0818,-0.41650000000000004,-9.3825,5.819503975734998,13.017881223480646,16.350000381469727,16.170000076293945,16.369998931884766,16.34000015258789,13.276351056756935,13.130189149351388,13.292590064080583,13.268230778702774,13.24184026222292,0.017203954691053264,1.3000000715255737,5.099999904632568,0.0,0.0,0.0,0.0,0.0,,,,,
frame_00141.png,1771860768316330664,1771860768.3163307,42.30062845352828,-83.69862714870514,236.96347045898438,0.7141961652351696,0.6997317760537484,-0.017299006283387888,0.00015338074307882877,0.006200000000000001,0.0007100000000000001,-0.007810000000000001,-0.6553,0.2629,-9.6936,5.819849300786919,13.018653694902293,16.279998779296875,16.239999771118164,16.260000228881836,16.350000381469727,13.219509110377807,13.18702954694584,13.203270103054162,13.276351056756935,13.221539954283687,0.015584273469140522,1.3000000715255737,5.224999904632568,0.0,0.0,0.0,0.0,0.0,,,,,
frame_00142.png,1771860768367045803,1771860768.3670459,42.300630555029045,-83.69862713296567,236.96405029296875,0.7141378351087934,0.6997961466128899,-0.017102793223954967,1.0761753467211551e-05,0.00198,-0.003910000000000001,0.00017,-0.055900000000000005,1.1509,-10.0198,5.819866982514822,13.018693247866706,16.260000228881836,16.239999771118164,16.260000228881836,16.31999969482422,13.203270103054162,13.18702954694584,13.203270103054162,13.251990222594452,13.211389993912155,0.014801542856616981,1.3000000715255737,5.575000286102295,0.0,0.0,0.0,0.0,0.0,,,,,
frame_00143.png,1771860768417307471,1771860768.4173074,42.30063370121459,-83.69862709470856,236.9649658203125,0.7140776663508466,0.6998580810193832,-0.017078131945195186,-0.0003004331170523571,0.01144,-0.005040000000000001,0.0054,0.5769000000000001,1.9389,-9.5358,5.81820425356947,13.014973822979691,16.279998779296875,16.15999984741211,16.279998779296875,16.209999084472656,13.219509110377807,13.122068871297225,13.219509110377807,13.162668712783356,13.180938951209049,0.01275186031771527,1.3000000715255737,5.849999904632568,0.0,0.0,0.0,0.0,0.0,,,,,
frame_00144.png,1771860768468883284,1771860768.4688833,42.30063684274106,-83.69862705545505,236.9665069580078,0.7139853068920075,0.6999460962549054,-0.017315085334279737,-0.0007947953895706497,0.014920000000000001,-0.0018200000000000002,-0.0017200000000000004,0.449,1.1119,-9.577,5.806965901810323,12.989834304395586,16.270000457763672,16.229999542236328,16.229999542236328,16.19999885559082,13.211390381108323,13.178909268891678,13.178909268891678,13.154548434729195,13.180939338405219,0.014711891586251054,1.3000000715255737,5.900000095367432,0.0,0.0,0.0,0.0,0.0,,,,,
frame_00145.png,1771860768518820972,1771860768.5188208,42.30063893390747,-83.69862702901854,236.9681854248047,0.7138630398330059,0.7000664342659352,-0.01746962398727149,-0.001166281399475885,0.009680000000000001,0.010460000000000002,-0.009780000000000002,0.14880000000000002,-0.32370000000000004,-10.1452,5.796934765710536,12.967395254808528,16.270000457763672,16.270000457763672,16.279998779296875,16.229999542236328,13.211390381108323,13.211390381108323,13.219509110377807,13.178909268891678,13.205299785371533,0.018346362232984796,1.3000000715255737,6.400000095367432,0.0,0.0,0.0,0.0,0.0,,,,,
frame_00146.png,1771860768569838725,1771860768.5698388,42.30064206977811,-83.6986269906836,236.97183227539062,0.7137569678493861,0.7001712057938858,-0.017589407363262977,-0.0013733798440004178,0.00458,0.0008600000000000002,-0.008280000000000001,-0.5653,-0.4698,-10.0214,5.794741968959799,12.962490100044933,16.19999885559082,16.100000381469727,16.25,16.260000228881836,13.154548434729195,13.073348751756935,13.195149825,13.203270103054162,13.156579278635075,0.01497313996710161,1.3000000715255737,6.5,0.0,0.0,0.0,0.0,0.0,,,,,
frame_00147.png,1771860768619903443,1771860768.6199036,42.300644161637614,-83.69862696764552,236.9752197265625,0.7137516580036044,0.7001689609334625,-0.017892023942501202,-0.0013683280682631597,-0.0018400000000000003,-0.016190000000000003,0.004790000000000001,-0.5662,-0.4096,-10.3093,5.794053420018401,12.960949857375963,16.170000076293945,16.1299991607666,16.19999885559082,16.190000534057617,13.130189149351388,13.097708037134742,13.154548434729195,13.14642970545971,13.132218831668759,0.013214230143427924,1.3000000715255737,6.474999904632568,0.0,0.0,0.0,0.0,0.0,,,,,
frame_00148.png,1771860768670246761,1771860768.6702466,42.300647298489025,-83.6986269431058,236.98080444335938,0.7137650337136794,0.7001503581684038,-0.018106754117392078,-0.0010478834373098774,-0.020320000000000005,-0.01386,0.008660000000000001,-0.1552,-0.2454,-9.679400000000001,5.794304502886656,12.961511514687277,16.18000030517578,16.19999885559082,16.209999084472656,16.19999885559082,13.138309427405549,13.154548434729195,13.162668712783356,13.154548434729195,13.152518752411824,0.01473649408158205,1.3000000715255737,6.575000286102295,0.0,0.0,0.0,0.0,0.0,,,,,
frame_00149.png,1771860768720376816,1771860768.7203767,42.300649390867896,-83.69862693307147,236.9842071533203,0.7137590568672112,0.700152346590052,-0.018282439752724602,-0.000672830707281379,-0.015010000000000003,-0.008700000000000001,0.005350000000000001,-0.4112,-0.27290000000000003,-9.263,5.791468592386653,12.9551677530534,16.18000030517578,16.079999923706055,16.190000534057617,16.19999885559082,13.138309427405549,13.057108195648613,13.14642970545971,13.154548434729195,13.124098940810766,0.01303967582492712,1.3000000715255737,6.325000286102295,0.0,0.0,0.0,0.0,0.0,,,,,
frame_00150.png,1771860768781249561,1771860768.7812495,42.300652520548326,-83.69862691625643,236.98826599121094,0.7136932929172757,0.700213538484555,-0.01851082138759439,-0.00048338327534408346,0.005190000000000001,-0.009780000000000002,-0.01042,-0.3483,-1.2688000000000001,-9.388,5.784894862892378,12.940462714598478,16.18000030517578,16.19999885559082,16.10999870300293,16.260000228881836,13.138309427405549,13.154548434729195,13.08146748102642,13.203270103054162,13.144398861553832,0.015759571466118255,1.3000000715255737,6.0,0.0,0.0,0.0,0.0,0.0,,,,,
frame_00151.png,1771860768822740321,1771860768.8227403,42.300654603130724,-83.69862690026244,236.9903106689453,0.7136779524134931,0.7002324315423581,-0.018389414702896782,-0.00038920694412859823,0.019060000000000004,-0.0038800000000000006,-0.010340000000000002,0.0516,0.5653,-9.0907,5.782927306385809,12.936061408746673,16.170000076293945,16.119998931884766,16.170000076293945,16.19999885559082,13.130189149351388,13.089587759080583,13.130189149351388,13.154548434729195,13.126128623128139,0.014692819427476826,1.3000000715255737,6.099999904632568,0.0,0.0,0.0,0.0,0.0,,,,,
frame_00152.png,1771860768873618308,1771860768.8736184,42.300657724050275,-83.69862688758768,236.9926300048828,0.713558263787129,0.7003625384135312,-0.01807600641614926,-0.00042066625234201234,0.0028300000000000005,0.014200000000000003,-0.010390000000000002,0.007500000000000001,-0.4737,-9.9846,5.778468477655828,12.92608727640743,16.170000076293945,16.170000076293945,16.19999885559082,16.239999771118164,13.130189149351388,13.130189149351388,13.154548434729195,13.18702954694584,13.150489070094451,0.01736038051488312,1.3000000715255737,5.125,0.0,0.0,0.0,0.0,0.0,,,,,
frame_00153.png,1771860768923834802,1771860768.9238348,42.30065980410923,-83.6986268768674,236.9937744140625,0.7135033779428658,0.7004259741949788,-0.017784245476049128,-0.0003239598472133298,0.005030000000000001,-0.00096,-0.0020100000000000005,0.2019,1.1906,-9.4397,5.776137763801025,12.920873609357066,16.119998931884766,16.1299991607666,16.170000076293945,16.06999969482422,13.089587759080583,13.097708037134742,13.130189149351388,13.048987917594452,13.091618215790291,0.013214633282193421,1.3000000715255737,3.924999952316284,0.0,0.0,0.0,0.0,0.0,,,,,
frame_00154.png,1771860768974616973,1771860768.974617,42.300662923181086,-83.6986268562905,236.99591064453125,0.7134574105323105,0.7004725745339972,-0.01778754830264277,-0.0005466329891863739,0.02806,0.008150000000000001,-0.005270000000000001,0.11520000000000001,0.6476000000000001,-10.1643,5.772798016293709,12.913402794568052,16.170000076293945,16.170000076293945,16.18000030517578,16.06999969482422,13.130189149351388,13.130189149351388,13.138309427405549,13.048987917594452,13.111918910925693,0.015372874176986571,1.3000000715255737,1.125,0.0,0.0,0.0,0.0,0.0,,,,,
frame_00155.png,1771860769024650955,1771860769.024651,42.300665001433416,-83.69862683792994,236.99786376953125,0.7133934130371743,0.700530785654186,-0.018049973280275113,-0.0008093518898934231,0.01759,-0.0007800000000000001,-0.006540000000000001,0.35300000000000004,0.047900000000000005,-10.0469,5.776415532643044,12.921494961590533,16.1299991607666,16.139999389648438,16.139999389648438,16.049999237060547,13.097708037134742,13.105828315188905,13.105828315188905,13.03274736148613,13.085528007249671,0.012694587286280024,1.3000000715255737,0.0,0.0,0.0,0.0,0.0,0.0,,,,,
frame_00156.png,1771860769075461791,1771860769.0754619,42.30066812199261,-83.69862680765382,237.0018768310547,0.7133495499104451,0.700565573433799,-0.01842968033942627,-0.0008023992299772864,0.012160000000000002,-0.01819,0.00029,-0.0427,0.5193,-9.2691,5.776949711707539,12.922689888107064,16.1299991607666,16.020000457763672,16.03999900817871,16.03999900817871,13.097708037134742,13.008388076108323,13.02462708343197,13.02462708343197,13.03883757002675,0.008987887423235242,1.3000000715255737,0.0,0.0,0.0,0.0,0.0,0.0,,,,,
frame_00157.png,1771860769134122195,1771860769.1341221,42.30067123817209,-83.69862677575965,237.00657653808594,0.7132212304929937,0.7006802170301073,-0.01902955815291138,-0.0007653451554143664,0.012170000000000002,-0.012770000000000002,-0.007440000000000001,0.1617,-0.621,-9.6635,5.768716061934615,12.90427170758402,16.020000457763672,16.06999969482422,16.10999870300293,16.119998931884766,13.008388076108323,13.048987917594452,13.08146748102642,13.089587759080583,13.057107808452447,0.011843837787343181,1.3000000715255737,0.0,0.0,0.0,0.0,0.0,0.0,,,,,
frame_00158.png,1771860769176404151,1771860769.1764042,42.3006733114503,-83.69862675586008,237.00953674316406,0.7131610294461294,0.7007364719244393,-0.019218474286029484,-0.0006270887843224317,-0.00396,0.006220000000000002,-0.0035800000000000007,-0.1597,-0.5645,-9.718200000000001,5.752489573685779,12.867974026960667,16.059999465942383,16.049999237060547,16.09000015258789,16.1299991607666,13.040867639540291,13.03274736148613,13.065228473702776,13.097708037134742,13.059137877965986,0.014855784648367894,1.3000000715255737,0.0,0.0,0.0,0.0,0.0,0.0,,,,,
frame_00159.png,1771860769226712817,1771860769.226713,42.300675384332614,-83.69862673784095,237.011962890625,0.7130871449717088,0.7008084181710785,-0.019340197417782118,-0.0004913862933460126,-0.013250000000000001,-0.004240000000000001,-0.0028300000000000005,-0.5428000000000001,-0.5141,-9.2592,5.740778613014169,12.841777310595916,16.03999900817871,16.049999237060547,16.029998779296875,16.1299991607666,13.02462708343197,13.03274736148613,13.016506805377809,13.097708037134742,13.042897321857664,0.015661384432807575,1.3000000715255737,0.0,0.0,0.0,0.0,0.0,0.0,,,,,
frame_00160.png,1771860769277207345,1771860769.2772074,42.30067848324284,-83.69862671872124,237.01451110839844,0.7130401284830105,0.7008566386820647,-0.019322978040337932,-0.0006080360698032496,0.0029900000000000005,0.0031400000000000004,-0.00034,-0.9637,-0.3267,-9.5385,5.7280281552795325,12.813255301670997,16.1299991607666,15.989999771118164,16.0,16.020000457763672,13.097708037134742,12.98402724194584,12.99214752,13.008388076108323,13.020567718797226,0.016179527547475984,1.2000000476837158,0.0,0.0,0.0,0.0,0.0,0.0,,,,,
frame_00161.png,1771860769327520593,1771860769.3275206,42.30068054349264,-83.69862671326374,237.01541137695312,0.713039823180218,0.7008661623959643,-0.01898435568731046,-0.0006536104457735163,-0.013990000000000002,0.008400000000000001,0.0044,-0.39630000000000004,-0.41900000000000004,-9.7347,5.721906743093683,12.799562069895984,16.020000457763672,16.0,16.029998779296875,16.0,13.008388076108323,12.99214752,13.016506805377809,12.99214752,13.002297480371531,0.01583924585610412,1.2000000476837158,0.0,0.0,0.0,0.0,0.0,0.0,,,,,
frame_00162.png,1771860769378351147,1771860769.3783512,42.30068363091947,-83.69862670864208,237.016845703125,0.7130322903896278,0.7008860964583151,-0.018529841942168133,-0.000526887792011169,-0.01755,0.0018800000000000004,0.00101,0.0366,-0.5344,-9.9495,5.7149297743431005,12.783955009419056,15.949999809265137,15.9399995803833,16.020000457763672,15.960000038146973,12.951546904121534,12.943426626067373,13.008388076108323,12.959667182175693,12.965757197118231,0.014221122302544487,1.2000000476837158,0.0,0.0,0.0,0.0,0.0,0.0,,,,,
frame_00163.png,1771860769426738034,1771860769.426738,42.30068568549432,-83.69862670492307,237.0181121826172,0.7130271904271261,0.7009001668978184,-0.018196034216101623,-0.0002934161131826246,-0.014220000000000002,-0.006110000000000001,-0.00041000000000000005,-0.2867,0.0974,-10.018600000000001,5.705185441356895,12.762157521188895,15.969999313354492,15.969999313354492,16.020000457763672,15.920000076293945,12.967786685837519,12.967786685837519,13.008388076108323,12.927186844351388,12.967787073033687,0.016112444271541647,1.2000000476837158,0.0,0.0,0.0,0.0,0.0,0.0,,,,,
frame_00164.png,1771860769477328089,1771860769.477328,42.300688764659434,-83.6986266941968,237.02069091796875,0.7130061620014573,0.7009203365213703,-0.01824388771654016,-0.00023528643612570833,0.00604,0.00026000000000000003,0.0006300000000000001,-0.32320000000000004,0.1647,-10.0412,5.6982165260337085,12.746568475745844,15.869999885559082,15.979999542236328,15.9399995803833,15.960000038146973,12.88658622847292,12.975906963891678,12.943426626067373,12.959667182175693,12.941396750151915,0.015284762701176364,1.2000000476837158,0.0,0.0,0.0,0.0,0.0,0.0,,,,,
frame_00165.png,1771860769527593811,1771860769.5275936,42.300690815538395,-83.69862668052501,237.02284240722656,0.7129152611568996,0.701000890613284,-0.018693417946727776,-0.000371341407948525,0.011070000000000002,-0.0068000000000000005,-0.0016800000000000003,-0.5901000000000001,-0.11370000000000001,-10.0496,5.686508060072486,12.72037733989855,15.869999885559082,15.899999618530273,15.969999313354492,15.90999984741211,12.88658622847292,12.910946288243066,12.967786685837519,12.919066566297225,12.921096442212683,0.0157793355456965,1.2000000476837158,0.0,0.0,0.0,0.0,0.0,0.0,,,,,
frame_00166.png,1771860769578872905,1771860769.578873,42.30069388441883,-83.69862666214527,237.02597045898438,0.712833242355266,0.7010814374442589,-0.018802217010064626,-0.0002515946671557537,-0.01403,-0.008090000000000002,-0.0035700000000000007,-0.0806,-0.6148,-9.475100000000001,5.675974702148551,12.69681485022418,15.809999465942383,15.869999885559082,15.889999389648438,15.84999942779541,12.837865334540291,12.88658622847292,12.902826010188903,12.870345672364598,12.874405811391679,0.013987048189834974,1.2000000476837158,0.0,0.0,0.0,0.0,0.0,0.0,,,,,
frame_00167.png,1771860769628484890,1771860769.628485,42.30069694304851,-83.6986266437343,237.02845764160156,0.7127712402724597,0.7011495621420757,-0.01861284768548279,-0.0001115772020942183,-0.014140000000000002,0.0033900000000000007,-0.0006100000000000001,-0.314,-0.1272,-9.5045,5.660381194072906,12.661933108269448,15.829999923706055,15.809999465942383,15.829999923706055,15.839999198913574,12.854105890648613,12.837865334540291,12.854105890648613,12.862225394310435,12.852075627536989,0.015016863352670818,1.2000000476837158,0.0,0.0,0.0,0.0,0.0,0.0,,,,,
frame_00168.png,1771860769679901866,1771860769.6799018,42.30069897611202,-83.69862663283769,237.029541015625,0.7127074382023708,0.7012167333092333,-0.018523435806841675,-0.0002877221766225214,0.0008300000000000001,0.009570000000000002,0.0023300000000000005,-0.5488000000000001,-0.0033,-9.4113,5.643209618010616,12.623521322912667,15.819999694824219,15.809999465942383,15.84999942779541,15.829999923706055,12.845985612594452,12.837865334540291,12.870345672364598,12.854105890648613,12.852075627536989,0.018105431818733298,1.2000000476837158,0.0,0.0,0.0,0.0,0.0,0.0,,,,,
frame_00169.png,1771860769729927701,1771860769.7299278,42.30070202262378,-83.69862661616487,237.03111267089844,0.7126442318938043,0.7012828899806165,-0.018444230110416474,-0.0005633334342533949,-0.005360000000000001,0.013060000000000002,-0.00042000000000000007,-0.44970000000000004,-0.5311,-9.6913,5.635866918118848,12.607096143816776,15.75,15.819999694824219,15.789999961853027,15.75,12.789145215000001,12.845985612594452,12.821625552824306,12.789145215000001,12.81147539885469,0.01621144573710202,1.2000000476837158,0.0,0.0,0.0,0.0,0.0,0.0,,,,,
frame_00170.png,1771860769780872788,1771860769.7808728,42.30070405082701,-83.69862660855917,237.03236389160156,0.7126192479809398,0.7013076907259768,-0.018462366048765194,-0.0006865679564018269,-0.00427,0.0008900000000000001,0.0033000000000000004,-0.8507,-0.5358,-10.132200000000001,5.629186291849817,12.592151983690531,15.729999542236328,15.729999542236328,15.769999504089355,15.729999542236328,12.772904658891678,12.772904658891678,12.805384996715986,12.772904658891678,12.781024743347754,0.014999243965753598,1.2000000476837158,0.0,0.0,0.0,0.0,0.0,0.0,,,,,
frame_00171.png,1771860769832501298,1771860769.8325012,42.300707089389356,-83.69862659743407,237.03477478027344,0.7126407365841465,0.7012855390309539,-0.018479474574779244,-0.0005313438709613625,-0.013790000000000002,-0.008360000000000001,0.0069900000000000006,-0.9516,-0.11710000000000001,-9.9177,5.622203297018812,12.576531443233263,15.719999313354492,15.699999809265137,15.869999885559082,15.710000038146973,12.764784380837519,12.748544599121534,12.88658622847292,12.756664877175693,12.789145021401916,0.016905581568998438,1.2000000476837158,0.0,0.0,0.0,0.0,0.0,0.0,,,,,
frame_00172.png,1771860769883481080,1771860769.883481,42.300709115151,-83.69862659340018,237.03663635253906,0.7126250463868282,0.7012996928416776,-0.018553866211528082,-0.00019527146312152272,0.0003800000000000001,-0.012690000000000002,-0.0015300000000000003,-0.6586000000000001,0.23320000000000002,-10.0168,5.614185640659895,12.558596427017745,15.670000076293945,15.719999313354492,15.719999313354492,15.679999351501465,12.724184539351388,12.764784380837519,12.764784380837519,12.732304043013212,12.74651433600991,0.014963289097170885,1.2000000476837158,0.0,0.0,0.0,0.0,0.0,0.0,,,,,
frame_00173.png,1771860769933325636,1771860769.9333255,42.30071214533414,-83.69862658555009,237.0396728515625,0.7126074723259057,0.7013130161937283,-0.018725440254099696,-3.9872660469373807e-05,-0.0024500000000000004,-0.00792,0.00044000000000000007,-0.4348,-0.3069,-9.9603,5.606335571707354,12.541036293775049,15.619999885559082,15.679999351501465,15.639999389648438,15.649999618530273,12.68358392347292,12.732304043013212,12.699823705188903,12.707943983243066,12.705913913729525,0.013147049102817417,1.2000000476837158,0.0,0.0,0.0,0.0,0.0,0.0,,,,,
frame_00174.png,1771860769984346514,1771860769.9843466,42.30071416017231,-83.69862658107247,237.04161071777344,0.7125625264776502,0.7013550891717715,-0.018859368904400695,9.464233776901449e-05,-0.0026000000000000003,-4e-05,-0.0019500000000000003,-0.5312,0.00030000000000000003,-9.3674,5.5902327245453405,12.505015190844455,15.569999694824219,15.649999618530273,15.699999809265137,15.670000076293945,12.642983307594454,12.707943983243066,12.748544599121534,12.724184539351388,12.705914107327608,0.016065467607767565,1.2000000476837158,0.0,0.0,0.0,0.0,0.0,0.0,,,,,
frame_00175.png,1771860770034217335,1771860770.0342171,42.3007171758403,-83.69862657139124,237.0440673828125,0.7124938070902509,0.7014249922313948,-0.01885612106567789,4.277364624164782e-05,0.004600000000000001,8e-05,-0.005410000000000001,-0.37670000000000003,-0.39280000000000004,-9.681700000000001,5.577727269129949,12.47704123740755,15.559999465942383,15.619999885559082,15.679999351501465,15.589999198913574,12.634863029540291,12.68358392347292,12.732304043013212,12.659223089310435,12.677493521334215,0.016065690584213786,1.2000000476837158,0.0,0.0,0.0,0.0,0.0,0.0,,,,,
frame_00176.png,1771860770085214967,1771860770.085215,42.30071918102416,-83.69862656331745,237.0456085205078,0.7124391265951413,0.7014819201501362,-0.018804229557672057,-8.688827637068733e-05,0.008560000000000002,0.00727,-0.0071200000000000005,-0.027800000000000002,-0.8631000000000001,-9.805200000000001,5.567220036514612,12.453537188480997,15.589999198913574,15.639999389648438,15.589999198913574,15.609999656677246,12.659223089310435,12.699823705188903,12.659223089310435,12.675463645418759,12.673433382307133,0.017657328235188532,1.2000000476837158,0.0,0.0,0.0,0.0,0.0,0.0,,,,,
frame_00177.png,1771860770135264187,1771860770.1352642,42.30072218528542,-83.69862655781361,237.0481719970703,0.7124212361238897,0.7014995979723827,-0.01882191576875811,-0.00017846873158951085,0.005700000000000001,-0.0006100000000000001,-0.00251,-0.44620000000000004,-0.2731,-9.9793,5.558408253988132,12.433825759676212,15.549999237060547,15.619999885559082,15.549999237060547,15.519999504089355,12.62674275148613,12.68358392347292,12.62674275148613,12.602382691715986,12.634863029540291,0.016168577053416438,1.2000000476837158,0.0,0.0,0.0,0.0,0.0,0.0,,,,,
frame_00178.png,1771860770197345645,1771860770.1973455,42.30072518274941,-83.69862655008669,237.05142211914062,0.7124313721393215,0.7014847586073525,-0.018990319260243978,-0.00020299670353655962,0.0020900000000000003,-0.01068,0.00013000000000000002,-0.26930000000000004,-0.36710000000000004,-9.7344,5.5494251611922705,12.413731120077438,15.4399995803833,15.469999313354492,15.539999961853027,15.50999927520752,12.53742201606737,12.561782075837517,12.618623247824306,12.594262413661824,12.578022438347755,0.013234644498187932,1.2000000476837158,0.0,0.0,0.0,0.0,0.0,0.0,,,,,
frame_00179.png,1771860770247257643,1771860770.2472577,42.3007271791766,-83.69862654273483,237.05384826660156,0.712407133933018,0.7015041550078182,-0.0191827386347461,-0.00013625924223350757,0.005270000000000001,-0.00871,-0.0017300000000000002,0.2447,-0.6067,-9.7425,5.5420673207168125,12.397272072404267,15.579999923706055,15.519999504089355,15.489999771118164,15.489999771118164,12.651103585648613,12.602382691715986,12.578022631945839,12.578022631945839,12.602382885314071,0.016544834356452622,1.3000000715255737,0.0,0.0,0.0,0.0,0.0,0.0,,,,,
frame_00180.png,1771860770287404391,1771860770.2874043,42.30072916854145,-83.69862654059737,237.0560760498047,0.7123909633733272,0.7015168055033997,-0.019320592698898777,-3.997613586530084e-05,0.009150000000000002,-0.0006500000000000001,-0.0021000000000000003,-0.509,0.1457,-9.4902,5.526287909854502,12.36197447706993,15.460000038146973,15.479999542236328,15.429999351501465,15.50999927520752,12.553662572175694,12.56990235389168,12.529301738013212,12.594262413661824,12.561782269435602,0.016163096982305905,1.3000000715255737,0.0,0.0,0.0,0.0,0.0,0.0,,,,,
frame_00181.png,1771860770337111271,1771860770.3371112,42.30073214963492,-83.6986265339275,237.05885314941406,0.7123660164845274,0.7015381780179976,-0.019463878945314154,2.752374536623173e-05,0.005110000000000001,0.00936,-0.0015900000000000003,-0.5730000000000001,-0.0903,-9.459200000000001,5.515048419551472,12.336832411631471,15.449999809265137,15.469999313354492,15.479999542236328,15.429999351501465,12.545542294121534,12.561782075837517,12.56990235389168,12.529301738013212,12.551632115465985,0.017411252472879103,1.3000000715255737,0.0,0.0,0.0,0.0,0.0,0.0,,,,,
frame_00182.png,1771860770388112232,1771860770.388112,42.30073413401271,-83.69862652967196,237.0601348876953,0.7123053035953589,0.7015982944570234,-0.019518719129064346,8.537259663313863e-05,0.00232,-0.00055,-0.006280000000000001,-0.4732,-0.2577,-9.6211,5.507794101233031,12.320604936812218,15.399999618530273,15.40999984741211,15.40999984741211,15.4399995803833,12.504941678243066,12.513061956297227,12.513061956297227,12.53742201606737,12.517121901726224,0.01595026915657694,1.3000000715255737,0.0,0.0,0.0,0.0,0.0,0.0,,,,,
frame_00183.png,1771860770437321240,1771860770.4373212,42.300737105494846,-83.69862652484248,237.0612335205078,0.7122460079293059,0.7016564481065226,-0.01959206090660983,6.456576096777365e-05,0.0034300000000000003,0.00015000000000000001,-0.0026800000000000005,-0.8419000000000001,-0.1928,-9.529,5.498895654562565,12.300699645517184,15.40999984741211,15.389999389648438,15.380000114440918,15.369999885559082,12.513061956297227,12.496821400188903,12.48870189652708,12.480581618472918,12.494791717871532,0.015778945746804076,1.3000000715255737,2.575000047683716,0.0,0.0,0.0,0.0,0.0,,,,,
frame_00184.png,1771860770487812618,1771860770.4878125,42.30073908542124,-83.69862652039747,237.06173706054688,0.7121782775169478,0.7017227812707184,-0.01967828611379476,6.583543056806718e-05,-0.00234,0.00029,-0.0016100000000000003,-0.901,-0.321,-9.7116,5.4894523116047695,12.279575453921174,15.170000076293945,15.399999618530273,15.380000114440918,15.359999656677246,12.318179929351386,12.504941678243066,12.48870189652708,12.472461340418759,12.446071211135074,0.013558755173472518,1.3000000715255737,4.175000190734863,0.0,0.0,0.0,0.0,0.0,,,,,
frame_00185.png,1771860770537681351,1771860770.5376813,42.300742045649876,-83.69862652040871,237.06202697753906,0.7121495335695636,0.7017591636562263,-0.019419031381049022,0.0001388574404485081,-0.006850000000000001,0.010260000000000002,-0.00011000000000000002,-0.7407,-0.23520000000000002,-10.0189,5.4747862812788535,12.24676842404392,15.369999885559082,15.429999351501465,15.299999237060547,15.299999237060547,12.480581618472918,12.529301738013212,12.42374044648613,12.42374044648613,12.464341062364596,0.01776571833378668,1.3000000715255737,7.25,0.0,0.0,0.0,0.0,0.0,,,,,
frame_00186.png,1771860770597799848,1771860770.5978,42.3007450001613,-83.69862652451309,237.06298828125,0.7121324493417907,0.701786297711772,-0.01906218445985631,7.879366587717029e-06,0.0006500000000000001,0.013690000000000003,-0.0026100000000000003,-0.45740000000000003,-0.3466,-10.2802,5.460348864808294,12.214472789644265,15.309999465942383,15.25999927520752,15.269999504089355,15.329999923706055,12.431860724540291,12.391260108661823,12.399380386715984,12.448101280648613,12.417650625141679,0.016634187901230814,1.3000000715255737,8.90000057220459,0.0,0.0,0.0,0.0,0.0,,,,,
frame_00187.png,1771860770638142208,1771860770.638142,42.3007469658523,-83.69862652760894,237.0643768310547,0.7121229979492969,0.7017977759675983,-0.01899128308087389,-0.0002204667329338692,0.008870000000000001,0.004350000000000001,-0.005330000000000001,-0.12490000000000001,-0.3178,-10.1776,5.456818565371282,12.206575721621638,15.299999237060547,15.229999542236328,15.229999542236328,15.329999923706055,12.42374044648613,12.36690004889168,12.36690004889168,12.448101280648613,12.401410456229526,0.01596145709093294,1.3000000715255737,9.225000381469727,0.0,0.0,0.0,0.0,0.0,,,,,
frame_00188.png,1771860770689222129,1771860770.689222,42.300749911388465,-83.69862652204473,237.06736755371094,0.7120772648880064,0.7018425415998051,-0.019045673381441197,-0.0005272151261423791,0.00898,0.003910000000000001,-0.0020100000000000005,-0.1265,-0.20320000000000002,-10.020000000000001,5.454635243399957,12.2016917613711,15.219999313354492,15.269999504089355,15.269999504089355,15.339999198913574,12.358779770837517,12.399380386715984,12.399380386715984,12.456220784310437,12.403440332144982,0.01653447527764882,1.3000000715255737,9.074999809265137,0.0,0.0,0.0,0.0,0.0,,,,,
frame_00189.png,1771860770739673017,1771860770.7396731,42.300751876011255,-83.69862651554499,237.06973266601562,0.7120185708607307,0.7019010925730592,-0.019078411704079434,-0.0006520744115266524,0.0004000000000000001,-0.00117,-0.0036300000000000004,0.23270000000000002,-0.3226,-9.865300000000001,5.4546186482204515,12.201654638950258,15.229999542236328,15.25999927520752,15.229999542236328,15.269999504089355,12.36690004889168,12.391260108661823,12.36690004889168,12.399380386715984,12.381110148290292,0.014707473260812858,1.3000000715255737,9.125,0.0,0.0,0.0,0.0,0.0,,,,,
frame_00190.png,1771860770790642936,1771860770.790643,42.30075482279446,-83.69862650577707,237.07351684570312,0.7119388508494018,0.7019812150562245,-0.019103533794952384,-0.0007080649439501072,-0.0016500000000000002,0.0005300000000000001,-0.0009400000000000002,0.1884,-0.2958,-9.506,5.457092922138223,12.207189441247877,15.199999809265137,15.239999771118164,15.289999961853027,15.289999961853027,12.342539989121533,12.375020326945839,12.415620942824306,12.415620942824306,12.387200550428995,0.014746318966171157,1.2000000476837158,9.125,0.0,0.0,0.0,0.0,0.0,,,,,
frame_00191.png,1771860770841646057,1771860770.8416462,42.30075678749973,-83.6986264998105,237.0758056640625,0.7118621800298831,0.7020581631442799,-0.01912657863125337,-0.0008638260497814742,0.0013400000000000003,0.0032900000000000004,-0.00458,0.1515,-0.8485,-9.3826,5.4571536507807075,12.207325287577397,15.269999504089355,15.229999542236328,15.299999237060547,15.319999694824219,12.399380386715984,12.36690004889168,12.42374044648613,12.439981002594452,12.40750047117206,0.01639795605335168,1.100000023841858,9.100000381469727,0.0,0.0,0.0,0.0,0.0,,,,,
frame_00192.png,1771860770892400445,1771860770.8924005,42.30075973531114,-83.69862649654223,237.0780029296875,0.7118184137784864,0.7021070977582545,-0.01894700578181609,-0.001086303486161771,-0.00044000000000000007,0.017030000000000003,-0.0014600000000000004,-0.2682,-0.4456,-9.4679,5.4525202586843715,12.196960667461418,15.25,15.359999656677246,15.299999237060547,15.299999237060547,12.383140605000001,12.472461340418759,12.42374044648613,12.42374044648613,12.425770709597755,0.01875959498227677,0.9000000357627869,9.175000190734863,0.0,0.0,0.0,0.0,0.0,,,,,
frame_00193.png,1771860770942529945,1771860770.9425302,42.300761699649904,-83.69862649820593,237.0786590576172,0.7118012548760282,0.7021330045103354,-0.018598852357430286,-0.001516649329026376,0.00543,0.033170000000000005,-0.0008000000000000001,0.005,-0.7836000000000001,-9.260900000000001,5.453274067570224,12.198646892710537,15.309999465942383,15.449999809265137,15.34999942779541,15.329999923706055,12.431860724540291,12.545542294121534,12.464341062364598,12.448101280648613,12.472461340418759,0.02244629671769938,0.5,9.02500057220459,0.0,0.0,0.0,0.0,0.0,,,,,
frame_00194.png,1771860770993770895,1771860770.993771,42.30076464809778,-83.69862650046655,237.07858276367188,0.7118174169725218,0.7021321563769881,-0.01793973869134885,-0.0021367385553265742,-0.009510000000000001,0.03501,0.0022400000000000007,0.109,-0.5446,-9.855,5.464041685348469,12.222733407623403,15.429999351501465,15.359999656677246,15.359999656677246,15.329999923706055,12.529301738013212,12.472461340418759,12.472461340418759,12.448101280648613,12.480581424874837,0.021095773641811713,-0.10000000149011612,9.0,0.0,0.0,0.0,0.0,0.0,,,,,
frame_00195.png,1771860771044002379,1771860771.0440023,42.300766617042555,-83.69862650687527,237.0786590576172,0.7118530933780418,0.70211264201978,-0.017280733306375903,-0.0020946647729474387,-0.028390000000000006,0.011840000000000002,-0.0031000000000000003,0.263,-0.167,-10.1181,5.478026290119384,12.254016129419657,15.339999198913574,15.380000114440918,15.25,15.279999732971191,12.456220784310437,12.48870189652708,12.383140605000001,12.407500664770147,12.433890987651916,0.014678849475349698,-1.3000000715255737,8.850000381469727,0.0,0.0,0.0,0.0,0.0,,,,,
frame_00196.png,1771860771094619461,1771860771.0946193,42.300769575873844,-83.69862651876733,237.07998657226562,0.7119069231650168,0.702068894477938,-0.016868678018218217,-0.0018021815010601883,-0.01831,0.00521,0.0011800000000000003,-0.2116,0.0103,-10.1548,5.48214602406256,12.263231727066504,15.359999656677246,15.479999542236328,15.299999237060547,15.369999885559082,12.472461340418759,12.56990235389168,12.42374044648613,12.480581618472918,12.486671439817371,0.01822029606255482,-3.1000001430511475,8.875,0.0,0.0,0.0,0.0,0.0,,,,,
frame_00197.png,1771860771144978028,1771860771.1449778,42.3007715516311,-83.69862652338176,237.081787109375,0.7120063622528766,0.7019674760955075,-0.01689701815278424,-0.0017588044442496426,-0.00237,-0.0012500000000000002,0.008950000000000001,-0.26730000000000004,-0.31570000000000004,-10.4346,5.489046446621442,12.27866755830537,15.34999942779541,15.34999942779541,15.369999885559082,15.319999694824219,12.464341062364598,12.464341062364598,12.480581618472918,12.439981002594452,12.462311186449142,0.014956315680975817,-4.599999904632568,9.125,0.0,0.0,0.0,0.0,0.0,,,,,
frame_00198.png,1771860771195814049,1771860771.1958141,42.30077451805498,-83.69862652739,237.08621215820312,0.7121294620046378,0.7018383821979495,-0.017083929921602552,-0.0016290970453952714,-0.003,-0.013580000000000002,0.00783,-0.3473,-0.527,-10.16,5.497892057781795,12.298454659734409,15.389999389648438,15.279999732971191,15.380000114440918,15.34999942779541,12.496821400188903,12.407500664770147,12.48870189652708,12.464341062364598,12.464341255962681,0.01348840978951537,-5.900000095367432,8.975000381469727,0.0,0.0,0.0,0.0,0.0,,,,,
frame_00199.png,1771860771254791615,1771860771.2547917,42.30077748915082,-83.69862652628466,237.0917510986328,0.712359624152081,0.7016029266395178,-0.017191250613886717,-0.0012490440744617457,-0.005800000000000001,-0.01007,0.014140000000000002,-0.262,0.0551,-9.868400000000001,5.503575326588727,12.311167791059388,15.40999984741211,15.299999237060547,15.389999389648438,15.40999984741211,12.513061956297227,12.42374044648613,12.496821400188903,12.513061956297227,12.486671439817373,0.014255645909191431,-7.599999904632568,8.625,0.0,0.0,0.0,0.0,0.0,,,,,
frame_00200.png,1771860771297296183,1771860771.297296,42.30077946956149,-83.69862652204833,237.09523010253906,0.712548271940951,0.7014091117050517,-0.017295807031112095,-0.001035968260800222,-0.0009200000000000001,-0.00877,0.01597,-0.2787,0.012400000000000001,-9.6272,5.509233774556303,12.323825399655977,15.460000038146973,15.339999198913574,15.40999984741211,15.339999198913574,12.553662572175694,12.456220784310437,12.513061956297227,12.456220784310437,12.494791524273449,0.013872812951589238,-9.199999809265137,8.550000190734863,0.0,0.0,0.0,0.0,0.0,,,,,
frame_00201.png,1771860771355693800,1771860771.3556938,42.3007824424123,-83.6986265109818,237.09934997558594,0.7129267147379106,0.7010228634916816,-0.017366628584452135,-0.0009189594891874934,-0.00474,-0.0038700000000000006,0.021240000000000002,-0.6226,-0.41250000000000003,-9.1658,5.50750735989492,12.319963513643343,15.489999771118164,15.449999809265137,15.489999771118164,15.339999198913574,12.578022631945839,12.545542294121534,12.578022631945839,12.456220784310437,12.539452085580914,0.017815683601214057,-11.90000057220459,7.950000286102295,0.0,0.0,0.0,0.0,0.0,,,,,
frame_00202.png,1771860771398174117,1771860771.3981743,42.30078442577214,-83.69862650257836,237.10147094726562,0.7132638911457392,0.700685190406353,-0.017148279431202815,-0.0009066671944355617,-0.00638,-0.0017900000000000004,0.024350000000000004,-0.39180000000000004,-0.24020000000000002,-9.770900000000001,5.51123340205833,12.32829844640036,15.40999984741211,15.299999237060547,15.5,15.420000076293945,12.513061956297227,12.42374044648613,12.586142910000001,12.521182234351388,12.511031886783686,0.01482227585402753,-13.90000057220459,5.175000190734863,0.0,0.0,0.0,0.0,0.0,,,,,
frame_00203.png,1771860771448442297,1771860771.4484425,42.30078740021142,-83.69862648873719,237.10440063476562,0.7137589204184099,0.7001893642980144,-0.016804284238972258,-0.0008207790837169182,-0.012810000000000002,-0.004560000000000001,0.030480000000000004,-0.23190000000000002,-0.1109,-9.8932,5.517915272006856,12.343245388563016,15.479999542236328,15.380000114440918,15.429999351501465,15.380000114440918,12.56990235389168,12.48870189652708,12.529301738013212,12.48870189652708,12.519151971239763,0.014251242451984178,-16.399999618530273,0.0,0.0,0.0,0.0,0.0,0.0,,,,,
frame_00204.png,1771860771497864477,1771860771.4978645,42.30078938757958,-83.69862647755633,237.10665893554688,0.7143183812981381,0.6996227847094527,-0.016639848491714737,-0.0005698220521605309,-0.014630000000000002,-0.00442,0.03756000000000001,-0.4086,-0.0531,-10.081100000000001,5.521584249370584,12.351452670787035,15.50999927520752,15.239999771118164,15.449999809265137,15.399999618530273,12.594262413661824,12.375020326945839,12.545542294121534,12.504941678243066,12.504941678243064,0.012426798008873299,-18.899999618530273,0.0,0.0,0.0,0.0,0.0,0.0,,,,,
frame_00205.png,1771860771547140038,1771860771.5471401,42.30079137324534,-83.69862646781091,237.10862731933594,0.7150091098394245,0.6989247730631677,-0.016312556595801317,-0.00018692924456070265,-0.027070000000000004,0.005700000000000001,0.043120000000000006,-0.2104,-0.29150000000000004,-9.3163,5.52047173996169,12.348964053989903,15.529999732971191,15.34999942779541,15.5,15.34999942779541,12.610502969770145,12.464341062364598,12.586142910000001,12.464341062364598,12.531332001124834,0.01476787415831931,-21.700000762939453,0.0,0.0,0.0,0.0,0.0,0.0,,,,,
frame_00206.png,1771860771606986458,1771860771.6069865,42.30079435043,-83.698626452063,237.1105499267578,0.7160295744740599,0.6978983972313973,-0.015472945737223902,0.00025213202150084697,-0.026130000000000004,0.010850000000000002,0.05049000000000001,-0.1444,0.5311,-9.8236,5.5160812527347645,12.339142797492505,15.619999885559082,15.339999198913574,15.529999732971191,15.339999198913574,12.68358392347292,12.456220784310437,12.610502969770145,12.456220784310437,12.551632115465985,0.017220751997185826,-25.200000762939453,0.0,0.0,0.0,0.0,0.0,0.0,,,,,
frame_00207.png,1771860771648764583,1771860771.6487646,42.30079732677618,-83.69862642017785,237.11277770996094,0.7167919793138837,0.6971211189086165,-0.015208781076213481,0.0003113535920385386,-0.0027,0.01623,0.06355000000000001,0.20770000000000002,0.4131,-10.502500000000001,5.506805248456021,12.318392932481213,15.489999771118164,15.389999389648438,15.519999504089355,15.339999198913574,12.578022631945839,12.496821400188903,12.602382691715986,12.456220784310437,12.533361877040292,0.017451054349163303,-27.600000381469727,0.0,0.0,0.0,0.0,0.0,0.0,,,,,
frame_00208.png,1771860771699273286,1771860771.699273,42.300799307606546,-83.69862638688991,237.1149444580078,0.7178039748336856,0.6960784383037126,-0.015232846244446627,0.0004709956675166603,-0.007760000000000001,0.00461,0.06417,0.06860000000000001,0.4112,-9.8869,5.503476399500888,12.310946497099518,15.609999656677246,15.15999984741211,15.559999465942383,15.210000038146973,12.675463645418759,12.310059651297227,12.634863029540291,12.350660267175694,12.492761648357995,0.014768576185536363,-30.30000114440918,0.0,0.0,0.0,0.0,0.0,0.0,,,,,
frame_00209.png,1771860771749105413,1771860771.7491055,42.300802277252515,-83.69862632228357,237.11756896972656,0.7189299765825131,0.6949179814470665,-0.015102378840832804,0.0007784509937617449,-0.018920000000000003,0.013700000000000002,0.06669000000000001,-0.6212,1.03,-9.3241,5.492471793633661,12.286329854050882,15.5,15.119999885559082,15.519999504089355,15.229999542236328,12.586142910000001,12.27757931347292,12.602382691715986,12.36690004889168,12.458251241020147,0.013992900159080562,-32.900001525878906,0.0,0.0,0.0,0.0,0.0,0.0,,,,,
frame_00210.png,1771860771800363716,1771860771.8003638,42.300804252442404,-83.69862627240985,237.11903381347656,0.7201526580689621,0.6936537647766513,-0.014954855052292578,0.0009777513751416805,-0.01832,-0.00135,0.07541,-0.30610000000000004,1.119,-9.6136,5.48636710986983,12.272674042752218,15.489999771118164,15.039999961853027,15.519999504089355,15.229999542236328,12.578022631945839,12.212618637824306,12.602382691715986,12.36690004889168,12.439981002594452,0.013632478077672023,-35.900001525878906,0.0,0.0,0.0,0.0,0.0,0.0,,,,,
