image_filename,timestamp_ns,timestamp_sec,latitude,longitude,altitude,orientation_x,orientation_y,orientation_z,orientation_w,angular_velocity_x,angular_velocity_y,angular_velocity_z,linear_acceleration_x,linear_acceleration_y,linear_acceleration_z,vehicle_speed_mps,vehicle_speed_mph,wheel_speed_fl_rads,wheel_speed_fr_rads,wheel_speed_rl_rads,wheel_speed_rr_rads,wheel_speed_fl_mph,wheel_speed_fr_mph,wheel_speed_rl_mph,wheel_speed_rr_mph,avg_wheel_speed_mph,wheel_slip,steering_angle_deg,throttle_pedal,brake_pedal,brake_torque_actual,abs_active,esc_active,trac_active,marwis_road_condition,marwis_friction,marwis_surface_temp_c,marwis_ice_percent,marwis_water_film_height
pylon_camera_1771860429461901604.png,1771860429461901604,1771860429.4619017,42.3009716503305,-83.69730811718125,238.91390991210938,-0.020415649991693097,-0.9996914808445121,-0.009649087813589868,-0.010345987951337943,-0.00096,-0.00206,0.005070000000000001,1.8444,0.1101,-10.1233,1.2493808835839602,2.794790073724304,3.299999952316284,3.299999952316284,3.2699999809265137,3.25,2.6796303872803833,2.6796303872803833,2.6552701339121536,2.6390299649999998,2.66339021836823,0.04701600187844239,-5.200000286102295,17.80000114440918,0.0,0.0,0.0,0.0,0.0,,,,,
pylon_camera_1771860429499080389.png,1771860429499080389,1771860429.4990804,42.300971659455925,-83.69730873497245,238.914306640625,-0.020530723701415343,-0.9996866535354174,-0.009611793719831431,-0.010615910179626207,0.0027400000000000002,-0.015450000000000002,0.010850000000000002,1.3208,0.2434,-10.046700000000001,1.3249144521365572,2.9637541345623504,3.3999998569488525,3.3999998569488525,3.379999876022339,3.3299999237060547,2.7608312318411494,2.7608312318411494,2.7445910629289965,2.703990640648613,2.742561041814977,0.07463274033695656,-5.200000286102295,17.649999618530273,0.0,0.0,0.0,0.0,0.0,,,,,
pylon_camera_1771860429547581885.png,1771860429547581885,1771860429.547582,42.30097166622208,-83.69730939005446,238.9148712158203,-0.020747361725736047,-0.9996796254505624,-0.00952033109261497,-0.010934200306005365,0.0041600000000000005,-0.014190000000000001,0.008420000000000002,1.4386,0.4424,-9.8468,1.4138330151591787,3.1626596249301735,3.6999998092651367,3.6599998474121094,3.68999981880188,3.68999981880188,3.0044339591215325,2.971953621297226,2.9963138746654563,2.9963138746654563,2.9922538324374184,0.053880534961620284,-4.800000190734863,17.524999618530273,0.0,0.0,0.0,0.0,0.0,,,,,
pylon_camera_1771860429597295537.png,1771860429597295537,1771860429.5972955,42.300971680597385,-83.6973104374553,238.9154510498047,-0.020891373625337606,-0.9996747278484535,-0.009385203840969546,-0.011220826976224776,0.00417,-0.00999,0.00185,1.5454,0.5767,-9.756300000000001,1.5015513657467419,3.358880312093517,3.9800000190734863,3.9700000286102295,3.9700000286102295,3.9599997997283936,3.231796711087847,3.2236766266317702,3.2236766266317702,3.215556348577609,3.223676578232249,0.040252620307568626,-4.0,17.92500114440918,0.0,0.0,0.0,0.0,0.0,,,,,
pylon_camera_1771860429657062365.png,1771860429657062365,1771860429.6570623,42.30097170097909,-83.69731156145012,238.91644287109375,-0.020911296778232225,-0.9996710141298977,-0.009274424940011912,-0.011600267996340268,0.010720000000000002,-0.012680000000000002,-0.0038000000000000004,1.7349,0.5844,-9.6196,1.6056086799240672,3.5916502804693433,4.210000038146973,4.230000019073486,4.210000038146973,4.159999847412109,3.4185588471756936,3.4347990160878465,3.4185588471756936,3.3779582312972263,3.412468735434115,0.04988836079324893,-3.5,17.67500114440918,0.0,0.0,0.0,0.0,0.0,,,,,
pylon_camera_1771860429707334398.png,1771860429707334398,1771860429.7073345,42.30097171522974,-83.69731235543892,238.917236328125,-0.02087033308220021,-0.9996681723114589,-0.00923202699389201,-0.011947557996900594,0.00928,-0.015110000000000002,-0.0018600000000000003,1.5094,0.629,-10.054300000000001,1.6869643448586555,3.773638021588121,4.429999828338623,4.429999828338623,4.529999732971191,4.489999771118164,3.5972007052093797,3.5972007052093797,3.678401549770146,3.645921211945839,3.6296810430336865,0.038148062355448396,-3.299999952316284,17.700000762939453,0.0,0.0,0.0,0.0,0.0,,,,,
pylon_camera_1771860429758375292.png,1771860429758375292,1771860429.7583752,42.30097174071528,-83.69731360050172,238.91819763183594,-0.020878351400608397,-0.9996676553972995,-0.008939658283456489,-0.012196544798976751,0.014300000000000002,-0.00010000000000000002,-0.0021000000000000003,0.9869,0.3677,-9.3828,1.7637481877243923,3.9453988710482024,4.769999980926514,4.730000019073486,4.730000019073486,4.769999980926514,3.8732839639121535,3.8408036260878466,3.8408036260878466,3.8732839639121535,3.857043795,0.02239445970762607,-3.1000001430511475,17.950000762939453,0.0,0.0,0.0,0.0,0.0,,,,,
pylon_camera_1771860429808303011.png,1771860429808303011,1771860429.808303,42.30097176004566,-83.69731446747676,238.9184112548828,-0.020855928573269733,-0.9996708548398797,-0.008567019281346303,-0.01224003299356347,0.013340000000000001,-0.0035500000000000006,-0.0011800000000000003,1.193,-0.3473,-9.472900000000001,1.8540994522698304,4.147509228760475,5.049999713897705,4.949999809265137,4.96999979019165,4.940000057220459,4.1006463286822985,4.019445484121532,4.035685653033686,4.01132559326354,4.041775764775264,0.025493243812940353,-2.9000000953674316,18.100000381469727,0.0,0.0,0.0,0.0,0.0,,,,,
pylon_camera_1771860429859548581.png,1771860429859548581,1771860429.8595486,42.300971787496856,-83.69731583233738,238.9181671142578,-0.020991048515043187,-0.9996661529189412,-0.008638707135910861,-0.01234225787701716,-0.0029400000000000003,-0.0159,0.008650000000000001,1.0807,0.2631,-10.5649,1.9379490165744728,4.335075673136101,5.179999828338623,5.21999979019165,5.190000057220459,5.139999866485596,4.206207620209379,4.238687958033686,4.214327898263541,4.173727282385073,4.208237689722919,0.029258539637307956,-2.700000047683716,17.700000762939453,0.0,0.0,0.0,0.0,0.0,,,,,
pylon_camera_1771860429900389837.png,1771860429900389837,1771860429.90039,42.30097180277284,-83.69731678116929,238.91864013671875,-0.021059401727805183,-0.9996586430992771,-0.008902427555976594,-0.012643008320394234,-0.016870000000000003,-0.026250000000000006,0.0016500000000000002,1.6800000000000002,0.3497,-10.4381,2.002006570027706,4.478368576757777,5.339999675750732,5.440000057220459,5.440000057220459,5.409999847412109,4.336128971506605,4.41733020326354,4.41733020326354,4.392969756297226,4.390939783582728,0.019522464861153842,-2.4000000953674316,17.774999618530273,0.0,0.0,0.0,0.0,0.0,,,,,
pylon_camera_1771860429960868133.png,1771860429960868133,1771860429.9608681,42.30097182298861,-83.69731826442467,238.92091369628906,-0.021071869475150495,-0.9996458525602904,-0.00908438583947883,-0.013476635698571169,0.0006000000000000001,-0.033960000000000004,-0.0032900000000000004,1.7084000000000001,-0.17470000000000002,-9.3184,2.0999392528168412,4.697438112196105,5.710000038146973,5.639999866485596,5.639999866485596,5.769999980926514,4.636572677175694,4.579731892385073,4.579731892385073,4.685293183912153,4.620332411464498,0.016414415451565943,-2.299999952316284,17.80000114440918,0.0,0.0,0.0,0.0,0.0,,,,,
pylon_camera_1771860430013565889.png,1771860430013565889,1771860430.013566,42.30097184857662,-83.69731981808549,238.9232940673828,-0.021045647998856,-0.9996393964593728,-0.008778163434457002,-0.014181029347935005,0.019390000000000004,-0.026150000000000007,-0.0026800000000000005,1.4048,0.42610000000000003,-9.2619,2.1813933595006803,4.879646061601452,5.859999656677246,5.900000095367432,5.96999979019165,5.87999963760376,4.758373750418759,4.790854475439234,4.847694873033686,4.774613919330911,4.792884254555648,0.017780348400377653,-1.899999976158142,17.700000762939453,0.0,0.0,0.0,0.0,0.0,,,,,
pylon_camera_1771860430064472772.png,1771860430064472772,1771860430.064473,42.3009718673998,-83.69732089688637,238.92442321777344,-0.02108601548181771,-0.9996326915712459,-0.00840572521697552,-0.014805596127926996,0.009260000000000001,-0.022690000000000002,0.004130000000000001,1.3635000000000002,0.3551,-9.4517,2.257537795592722,5.049976596473184,6.159999847412109,6.049999713897705,6.119999885559082,6.12999963760376,5.001976671297226,4.912655548682299,4.96949633347292,4.977616224330911,4.9654361944458385,0.016740751251478433,-1.399999976158142,17.80000114440918,0.0,0.0,0.0,0.0,0.0,,,,,
pylon_camera_1771860430111542253.png,1771860430111542253,1771860430.1115422,42.30097189335216,-83.69732256211533,238.92550659179688,-0.02121726277783098,-0.9996181919231866,-0.008598375023584187,-0.015471460286270557,-0.012810000000000002,-0.030250000000000003,0.003920000000000001,1.1722000000000001,0.041100000000000005,-9.520100000000001,2.328915250899656,5.209643681347477,6.279999732971191,6.269999980926514,6.279999732971191,6.309999942779541,5.099417684770146,5.091297793912154,5.099417684770146,5.12377813173646,5.103477823797226,0.020378717632909445,-1.100000023841858,17.825000762939453,0.0,0.0,0.0,0.0,0.0,,,,,
pylon_camera_1771860430162555357.png,1771860430162555357,1771860430.1625555,42.300971912003874,-83.69732370306075,238.92626953125,-0.021275443357938795,-0.9996045745261497,-0.009203203748708656,-0.0159170077928723,-0.005560000000000001,-0.025980000000000003,-0.0038700000000000006,1.419,1.0437,-10.371400000000001,2.396456928239172,5.360730361055333,6.579999923706055,6.649999618530273,6.549999713897705,6.539999961853027,5.343020605648613,5.399861003243066,5.318660158682299,5.310540267824307,5.3430205088495715,0.0033036267472843954,-0.9000000357627869,17.75,0.0,0.0,0.0,0.0,0.0,,,,,
pylon_camera_1771860430203562190.png,1771860430203562190,1771860430.2035623,42.30097193694819,-83.69732487220149,238.92694091796875,-0.02121248440557144,-0.9996005457543411,-0.009260151800294762,-0.016218169489872928,0.0034100000000000007,-0.009200000000000002,-0.006250000000000001,1.111,1.2483,-9.1022,2.4522535249150352,5.485544000023439,6.670000076293945,6.759999752044678,6.819999694824219,6.730000019073486,5.416101559351387,5.489182125857993,5.537902632594451,5.464822066087847,5.47700209597292,0.0015571662629052878,-0.9000000357627869,17.75,0.0,0.0,0.0,0.0,0.0,,,,,
pylon_camera_1771860430254437580.png,1771860430254437580,1771860430.2544377,42.30097197654433,-83.69732668861167,238.927490234375,-0.021052795130824975,-0.9996012813476708,-0.008718498084902075,-0.01667470948526219,0.035960000000000006,-0.016700000000000003,-0.007710000000000002,0.8078000000000001,0.5192,-9.1524,2.5337877215386824,5.667931105818741,6.909999847412109,6.899999618530273,6.920000076293945,6.989999771118164,5.610983586297227,5.602863308243065,5.619103864351388,5.675944261945839,5.62722375520938,0.0071820475318710225,-0.800000011920929,17.774999618530273,0.0,0.0,0.0,0.0,0.0,,,,,
pylon_camera_1771860430304282573.png,1771860430304282573,1771860430.3042827,42.300972000823904,-83.69732793493094,238.92758178710938,-0.020962190552121562,-0.9995999660739211,-0.008446995020465819,-0.017004195582169934,0.0036700000000000005,-0.00841,0.0024400000000000003,0.634,0.6437,-9.8309,2.596600137207824,5.80843871092567,7.199999809265137,7.139999866485596,7.179999828338623,7.099999904632568,5.846466229121533,5.797745722385073,5.83022606020938,5.765265384560767,5.809925849069188,0.0002560306164065514,-0.699999988079071,17.700000762939453,0.0,0.0,0.0,0.0,0.0,,,,,
pylon_camera_1771860430355435624.png,1771860430355435624,1771860430.3554356,42.300972021266595,-83.69732984927992,238.9274139404297,-0.021040994494338938,-0.9995849550062085,-0.009458521813176851,-0.017254872964897316,-0.05363000000000001,-0.0013300000000000002,0.00204,1.5708,0.33490000000000003,-9.4839,2.680008524672298,5.99501826918045,7.329999923706055,7.519999980926514,7.359999656677246,7.369999885559082,5.952027520648613,6.106309318912153,5.976387580418758,5.98450785847292,6.004808069613111,0.0016329892575956077,-0.800000011920929,17.75,0.0,0.0,0.0,0.0,0.0,,,,,
pylon_camera_1771860430405384377.png,1771860430405384377,1771860430.4053845,42.30097203004253,-83.69733115368552,238.92758178710938,-0.021219179995441595,-0.9995677719955727,-0.010593127454046676,-0.017372427546847893,-0.038540000000000005,0.01403,0.011120000000000001,1.2781,0.4514,-9.3826,2.74145614341673,6.1324729054546205,7.519999980926514,7.549999713897705,7.549999713897705,7.5,6.106309318912153,6.130669378682298,6.130669378682298,6.090069150000001,6.114429306569188,0.002942303890064192,-0.800000011920929,17.75,0.0,0.0,0.0,0.0,0.0,,,,,
pylon_camera_1771860430456315096.png,1771860430456315096,1771860430.456315,42.300972044628054,-83.69733316412754,238.92857360839844,-0.021241183289658627,-0.9995601877162706,-0.010910031870523041,-0.01758449514922547,-0.0005000000000000001,0.007570000000000001,-0.007020000000000001,1.2661,0.23290000000000002,-9.3786,2.814135585292078,6.295052456163262,7.779999732971191,7.819999694824219,7.710000038146973,7.730000019073486,6.317431514770146,6.349911852594452,6.260591117175694,6.276831286087847,6.301191442657035,0.0009752081553764347,-0.800000011920929,17.725000381469727,0.0,0.0,0.0,0.0,0.0,,,,,
pylon_camera_1771860430506014486.png,1771860430506014486,1771860430.5060143,42.30097206223812,-83.69733454068684,238.93002319335938,-0.021067557683535465,-0.9995522137910093,-0.010900322593685292,-0.018240419021964563,0.0031200000000000004,-0.025910000000000002,-0.01106,1.1527,0.0713,-10.4593,2.8999587936519196,6.487033823871726,7.909999847412109,7.909999847412109,7.96999979019165,7.929999828338623,6.422992806297226,6.422992806297226,6.471713313033686,6.4392329752093795,6.4392329752093795,0.007368675724557383,-1.0,17.67500114440918,0.0,0.0,0.0,0.0,0.0,,,,,
pylon_camera_1771860430556786408.png,1771860430556786408,1771860430.5567865,42.30097209108425,-83.69733666847625,238.93258666992188,-0.02091926207979289,-0.9995315957047131,-0.011160459879337208,-0.01934987848304712,0.00042000000000000007,-0.04963000000000001,-0.00708,1.4707000000000001,1.3193000000000001,-10.245000000000001,2.985350140624987,6.678049143569659,8.010000228881836,8.050000190734863,8.15999984741211,8.130000114440918,6.504194038054162,6.536674375878468,6.625995111297226,6.601635051527081,6.567124644189233,0.01661031492816067,-0.699999988079071,17.55000114440918,0.0,0.0,0.0,0.0,0.0,,,,,
pylon_camera_1771860430615938110.png,1771860430615938110,1771860430.615938,42.300972132892376,-83.69733886264724,238.9339141845703,-0.020946227195424993,-0.9995038278492765,-0.010849109701477542,-0.020872242323408105,0.023360000000000006,-0.04803000000000001,-0.00136,0.7175,1.3916000000000002,-9.709100000000001,3.063332974527444,6.852492064039421,8.229999542236328,8.269999504089355,8.289999961853027,8.239999771118164,6.682835508891679,6.715315846715985,6.731556402824307,6.690955786945839,6.705165886344452,0.021499649517014174,-0.20000000298023224,17.399999618530273,0.0,0.0,0.0,0.0,0.0,,,,,
pylon_camera_1771860430657898465.png,1771860430657898465,1771860430.6578984,42.30097216348244,-83.69734036282593,238.9344482421875,-0.020965735305931543,-0.999485315535876,-0.010536091746583572,-0.021875391240827508,-0.003110000000000001,-0.06365000000000001,0.004110000000000001,0.8805000000000001,0.38270000000000004,-9.6132,3.1212580651685786,6.982067016298201,8.5,8.460000038146973,8.460000038146973,8.40999984741211,6.90207837,6.869598032175693,6.869598032175693,6.828997416297226,6.867567962662154,0.01639901956953042,-0.10000000149011612,17.92500114440918,0.0,0.0,0.0,0.0,0.0,,,,,
pylon_camera_1771860430708009217.png,1771860430708009217,1771860430.7080092,42.30097220170544,-83.69734188011746,238.9344024658203,-0.02098449065491098,-0.9994696326363297,-0.009898365091918708,-0.022850097554736087,0.0035300000000000006,-0.03823000000000001,0.013320000000000002,-0.2984,0.2771,-10.0669,3.1761073257863983,7.104761521344626,8.639999389648438,8.679999351501465,8.670000076293945,8.550000190734863,7.015759165188904,7.04823950301321,7.040119999351387,6.9426789858784685,7.011699413357992,0.013098554780065434,-0.10000000149011612,17.875,0.0,0.0,0.0,0.0,0.0,,,,,
pylon_camera_1771860430759274363.png,1771860430759274363,1771860430.7592742,42.300972254750874,-83.69734420564795,238.93301391601562,-0.020961823742591257,-0.9994675791106691,-0.009213253770789376,-0.02324384234583392,0.02492,-0.008280000000000001,0.00393,1.0114,-1.1587,-9.510900000000001,3.2390438374362662,7.245546721714682,9.019999504089355,8.899999618530273,8.899999618530273,8.9399995803833,7.324322761715985,7.226881748243065,7.226881748243065,7.259362086067371,7.259362086067371,0.0019067387021720888,-0.4000000059604645,17.575000762939453,0.0,0.0,0.0,0.0,0.0,,,,,
pylon_camera_1771860430808780416.png,1771860430808780416,1771860430.8087802,42.3009722887004,-83.69734578126601,238.93116760253906,-0.020931344736200896,-0.999466074812789,-0.008978638533029883,-0.023427081677911576,0.007090000000000001,-0.012800000000000002,-0.008690000000000002,1.181,-1.9142000000000001,-9.4002,3.3079739951630085,7.39973934873994,9.079999923706055,9.019999504089355,9.09999942779541,9.069999694824219,7.373043655648613,7.324322761715985,7.389283437364598,7.364923377594453,7.362893308080912,0.004979370072717906,-0.5,17.700000762939453,0.0,0.0,0.0,0.0,0.0,,,,,
pylon_camera_1771860430860106175.png,1771860430860106175,1771860430.8601062,42.30097232456038,-83.69734819337239,238.92770385742188,-0.02091173448248862,-0.9994644142579845,-0.009303219736383043,-0.023388760023015587,-0.009600000000000001,0.006220000000000002,-0.006960000000000001,1.2302,-1.3046,-9.5318,3.371000420268475,7.540725680115363,9.329999923706055,9.319999694824219,9.289999961853027,9.260000228881836,7.576045960648614,7.567925682594453,7.543565622824306,7.519205563054161,7.551685707280384,0.0014534446192521673,-1.0,17.67500114440918,0.0,0.0,0.0,0.0,0.0,,,,,
pylon_camera_1771860430910011189.png,1771860430910011189,1771860430.910011,42.30097235233611,-83.69735066676591,238.92391967773438,-0.020909096873826083,-0.9994575677887401,-0.009750564436849237,-0.023501198924732777,-0.009070000000000002,-0.0030300000000000006,-0.00239,0.7934,-1.171,-10.369,3.4309418541378878,7.674811071195207,9.420000076293945,9.420000076293945,9.4399995803833,9.479999542236328,7.649126914351387,7.649126914351387,7.665366696067372,7.697847033891678,7.6653668896654565,0.0012305425426296286,-1.3000000715255737,17.975000381469727,0.0,0.0,0.0,0.0,0.0,,,,,
pylon_camera_1771860430960960106.png,1771860430960960106,1771860430.96096,42.30097236735227,-83.69735235227672,238.9218292236328,-0.020916205879531913,-0.9994451985430066,-0.010586944510970066,-0.02365848783960443,-0.028030000000000006,-0.021530000000000004,-0.005260000000000001,1.4323000000000001,-1.5238,-10.557500000000001,3.50771307220501,7.846543679738275,9.5,9.84999942779541,9.609999656677246,9.769999504089355,7.714087590000001,7.998290352364598,7.803408325418759,7.933329676715984,7.862278986124836,0.0020053805890602907,-1.3000000715255737,17.575000762939453,0.0,0.0,0.0,0.0,0.0,,,,,
pylon_camera_1771860431011411700.png,1771860431011411700,1771860431.0114117,42.30097238804317,-83.69735492729984,238.9195556640625,-0.02091524867159622,-0.9994275505029544,-0.01135351115579983,-0.02404623573670284,0.0025400000000000006,-0.014570000000000001,-0.009530000000000002,1.4199000000000002,-0.32130000000000003,-9.932,3.580673763477052,8.009752368472357,9.969999313354492,9.84999942779541,9.889999389648438,9.979999542236328,8.095731365837517,7.998290352364598,8.030770690188904,8.103851643891678,8.057161013070674,0.00591886520548684,-1.2000000476837158,17.850000381469727,0.0,0.0,0.0,0.0,0.0,,,,,
pylon_camera_1771860431062479755.png,1771860431062479755,1771860431.06248,42.300972414480746,-83.69735667461421,238.91802978515625,-0.020990227585005516,-0.9994104804410777,-0.011098462163163951,-0.02479770287902917,0.019310000000000004,-0.032060000000000005,-0.007290000000000001,1.4184,-0.2733,-9.4556,3.655128296025834,8.17630269051203,10.119999885559082,10.010000228881836,10.130000114440918,10.079999923706055,8.21753321347292,8.128212478054161,8.225653491527082,8.185052875648612,8.189113014675694,0.0015667624656961617,-0.9000000357627869,17.55000114440918,0.0,0.0,0.0,0.0,0.0,,,,,
pylon_camera_1771860431112410707.png,1771860431112410707,1771860431.1124105,42.30097245983614,-83.69735935348714,238.9147491455078,-0.021014006927140394,-0.999387873561568,-0.011101201195728664,-0.025672028025954738,-0.012050000000000002,-0.033370000000000004,-0.00335,0.2859,0.0634,-9.921000000000001,3.7181097656389848,8.317188459148472,10.1899995803833,10.170000076293945,10.170000076293945,10.109999656677246,8.274373611067372,8.258133829351388,8.258133829351388,8.20941293541876,8.250013551297227,0.008076636495756639,-0.699999988079071,17.850000381469727,0.0,0.0,0.0,0.0,0.0,,,,,
pylon_camera_1771860431163230568.png,1771860431163230568,1771860431.1632304,42.30097249205688,-83.69736116115331,238.9121551513672,-0.021060661381788526,-0.9993634793852335,-0.011726204500038796,-0.02629792275494163,-0.027520000000000006,-0.014520000000000002,0.0020000000000000005,0.3322,0.6054,-9.1358,3.7614893033796,8.414225882301963,10.449999809265137,10.559999465942383,10.429999351501465,10.460000038146973,8.485496194121533,8.57481692954029,8.46925563801321,8.493616472175693,8.505796308462681,0.010882810545093944,-0.699999988079071,17.875,0.0,0.0,0.0,0.0,0.0,,,,,
pylon_camera_1771860431213156461.png,1771860431213156461,1771860431.2131565,42.300972547867204,-83.69736390826064,238.9074249267578,-0.020883957910100392,-0.9993674765468223,-0.011854201514195757,-0.026229468711859324,0.0012200000000000002,0.008000000000000002,-0.00727,-0.42410000000000003,0.08950000000000001,-8.8674,3.8024041894350007,8.50575002751473,10.559999465942383,10.529999732971191,10.59999942779541,10.4399995803833,8.57481692954029,8.550456869770146,8.607297267364597,8.477375916067372,8.5524867456856,0.005494720397341069,-0.9000000357627869,17.850000381469727,0.0,0.0,0.0,0.0,0.0,,,,,
pylon_camera_1771860431264141064.png,1771860431264141064,1771860431.264141,42.300972582226166,-83.69736576397732,238.90455627441406,-0.02073060261477233,-0.9993926581888914,-0.011593292075340728,-0.025498087226806895,0.010280000000000003,0.019240000000000004,-0.006680000000000001,0.35660000000000003,-1.0854000000000001,-9.8751,3.8533853147909958,8.61979174606857,10.789999961853027,10.739999771118164,10.769999504089355,10.84999942779541,8.761579452824307,8.72097883694584,8.745338896715985,8.810299572364597,8.759549189712683,0.01621355222507033,-0.9000000357627869,18.0,0.0,0.0,0.0,0.0,0.0,,,,,
pylon_camera_1771860431314048244.png,1771860431314048244,1771860431.3140483,42.300972624428496,-83.69736858517606,238.90293884277344,-0.02076262404994439,-0.9993972871515269,-0.011896841698019994,-0.025148380352251497,-0.01081,-0.018410000000000003,-0.0019000000000000002,0.6224000000000001,-1.2922,-11.0477,3.924021105402574,8.777799771519234,10.84999942779541,10.889999389648438,10.929999351501465,10.969999313354492,8.810299572364597,8.842779910188904,8.87526024801321,8.907740585837518,8.859020079101057,0.009252923249098656,-0.800000011920929,17.649999618530273,0.0,0.0,0.0,0.0,0.0,,,,,
pylon_camera_1771860431365060704.png,1771860431365060704,1771860431.3650606,42.30097265119272,-83.69737050051862,238.903076171875,-0.020985225962190324,-0.9993757757899524,-0.012518764670500952,-0.025513909670432017,0.006080000000000001,-0.007530000000000001,0.009580000000000002,0.5715,0.060500000000000005,-9.146700000000001,4.0040345850987205,8.956785124790732,11.039999961853027,10.9399995803833,11.149999618530273,11.199999809265137,8.964581757824307,8.883380526067372,9.053902493243067,9.094503109121534,8.99909197156407,0.004723441076669358,-0.800000011920929,17.67500114440918,0.0,0.0,0.0,0.0,0.0,,,,,
pylon_camera_1771860431414929437.png,1771860431414929437,1771860431.4149294,42.30097268995196,-83.69737342080894,238.9015655517578,-0.021119676373845098,-0.9993706205487782,-0.012579464598908057,-0.02557497065920198,0.029500000000000002,0.009210000000000001,-0.007190000000000001,1.6282,1.3492,-8.776900000000001,4.059919409138563,9.081796123078417,11.319999694824219,11.239999771118164,11.279999732971191,11.369999885559082,9.191944122594451,9.12698344694584,9.159463784770146,9.23254473847292,9.177734023195839,0.010563758403871986,-0.800000011920929,17.700000762939453,0.0,0.0,0.0,0.0,0.0,,,,,
pylon_camera_1771860431465919171.png,1771860431465919171,1771860431.4659193,42.30097272844736,-83.69737538746624,238.89723205566406,-0.021037663984780464,-0.9993841751313977,-0.01236919853318913,-0.025212895879804288,0.007540000000000001,0.03606000000000001,-0.007030000000000001,1.1697,1.5499,-8.0702,4.104148960136844,9.180734974888512,11.40999984741211,11.429999351501465,11.40999984741211,11.5,9.265025076297226,9.28126485801321,9.265025076297226,9.33810603,9.287355260151916,0.011613480353701014,-0.800000011920929,17.700000762939453,0.0,0.0,0.0,0.0,0.0,,,,,
pylon_camera_1771860431515823871.png,1771860431515823871,1771860431.5158238,42.30097279325336,-83.6973783761722,238.8867950439453,-0.02086405248787243,-0.9994102964907963,-0.012308235299944894,-0.024336349885776886,-0.020690000000000004,0.04929000000000001,0.0008400000000000001,0.6468,1.175,-9.5303,4.153341066787057,9.29077476593864,11.59999942779541,11.739999771118164,11.5,11.569999694824219,9.419306487364599,9.532988056945838,9.33810603,9.394946427594453,9.421336750476224,0.014052862955653998,-0.699999988079071,17.55000114440918,0.0,0.0,0.0,0.0,0.0,,,,,
pylon_camera_1771860431566628291.png,1771860431566628291,1771860431.5666285,42.300972838949875,-83.69738039913356,238.8790740966797,-0.020608869504436467,-0.9994402994264265,-0.011921173357379375,-0.023499957573295854,0.012120000000000002,0.031120000000000002,-0.010290000000000002,0.3352,-0.6849000000000001,-10.700700000000001,4.216743809306542,9.432602896790177,11.75,11.920000076293945,11.800000190734863,11.75,9.541108335,9.679149964351387,9.581708950878468,9.541108335,9.585768896307464,0.016237935720733794,-0.30000001192092896,17.67500114440918,0.0,0.0,0.0,0.0,0.0,,,,,
pylon_camera_1771860431616568522.png,1771860431616568522,1771860431.6165686,42.30097290698222,-83.69738347178118,238.868408203125,-0.020476771356648993,-0.9994630470292634,-0.01155952490203728,-0.022818782654366206,0.009720000000000003,0.023330000000000004,-0.005300000000000001,0.1173,-1.4753,-11.2271,4.277741669524304,9.569051450225698,11.949999809265137,11.899999618530273,11.929999351501465,11.90999984741211,9.703510024121533,9.662909408243065,9.687269468013211,9.671029686297226,9.681179646668758,0.011717796379955162,-0.10000000149011612,17.67500114440918,0.0,0.0,0.0,0.0,0.0,,,,,
pylon_camera_1771860431666814849.png,1771860431666814849,1771860431.666815,42.30097294690073,-83.69738554747875,238.8623809814453,-0.020543511342924592,-0.9994704483036482,-0.01190346423517872,-0.022250722428930707,-0.020190000000000003,0.010150000000000001,0.007060000000000001,1.1123,0.29460000000000003,-11.0905,4.335504076124364,9.698262488045636,12.019999504089355,12.389999389648438,12.079999923706055,11.899999618530273,9.760350421715986,10.060793740188904,9.809071315648612,9.662909408243065,9.823281221449141,0.012890838287539397,-0.20000000298023224,17.75,0.0,0.0,0.0,0.0,0.0,,,,,
pylon_camera_1771860431717030832.png,1771860431717030832,1771860431.717031,42.3009729911147,-83.69738870634106,238.85696411132812,-0.020582071253289924,-0.9994717718889766,-0.012086683451514698,-0.02205601104408611,0.00559,-0.013550000000000001,0.0008200000000000001,2.3482000000000003,-0.19,-10.7608,4.406996499416591,9.85818674940495,12.300000190734863,12.219999313354492,12.199999809265137,12.319999694824219,9.987713560878468,9.922752110837518,9.906512329121533,10.003953342594452,9.955232835857993,0.009844212624487002,-0.4000000059604645,17.5,0.0,0.0,0.0,0.0,0.0,,,,,
pylon_camera_1771860431767827983.png,1771860431767827983,1771860431.767828,42.30097302430254,-83.69739084533222,238.85528564453125,-0.020658706764372203,-0.9994681853638203,-0.011559349464593775,-0.02242645135395131,0.034710000000000005,0.00128,-0.0030700000000000002,1.2544,0.3403,-9.5573,4.460020080395698,9.976797318640354,12.369999885559082,12.329999923706055,12.399999618530273,12.460000038146973,10.04455395847292,10.012073620648613,10.068914018243065,10.117634912175694,10.060794127385073,0.008419215712419164,-0.20000000298023224,17.149999618530273,0.0,0.0,0.0,0.0,0.0,,,,,
pylon_camera_1771860431818156319.png,1771860431818156319,1771860431.8181562,42.30097308657584,-83.6973940968886,238.8512725830078,-0.02055009658896273,-0.9994686864521327,-0.011042399914873626,-0.02276189218744391,0.015210000000000003,0.009080000000000001,-0.014020000000000003,0.7908000000000001,-0.29410000000000003,-8.352400000000001,4.510275766455924,10.089216273015914,12.429999351501465,12.460000038146973,12.619999885559082,12.739999771118164,10.09327407801321,10.117634912175694,10.24755626347292,10.34499727694584,10.200865632651915,0.011066207385663083,-0.10000000149011612,17.149999618530273,0.0,0.0,0.0,0.0,0.0,,,,,
pylon_camera_1771860431868959725.png,1771860431868959725,1771860431.8689597,42.30097313027705,-83.69739628853807,238.8460235595703,-0.020396146656937897,-0.9994721489148714,-0.011335551195491608,-0.022603672801831443,-0.020150000000000005,0.00936,-0.0019000000000000002,0.0747,0.3115,-9.7874,4.553296294397176,10.18545061278882,12.710000038146973,12.739999771118164,12.670000076293945,12.550000190734863,10.320637217175694,10.34499727694584,10.288156879351387,10.190715865878467,10.286126809837846,0.009884314487040687,0.0,16.80000114440918,0.0,0.0,0.0,0.0,0.0,,,,,
pylon_camera_1771860431918919578.png,1771860431918919578,1771860431.9189196,42.30097318991215,-83.69739960420524,238.8378143310547,-0.02033531654294296,-0.9994735978809337,-0.012018740116102631,-0.022238523468551364,-0.029060000000000006,0.0017000000000000001,0.00727,0.6175,0.7713,-10.6887,4.603016089908043,10.296670812158899,12.789999961853027,12.819999694824219,12.6899995803833,12.519999504089355,10.385597892824308,10.409957952594452,10.304396661067372,10.166355031715984,10.316576884550528,0.0019332532577542546,0.0,16.700000762939453,0.0,0.0,0.0,0.0,0.0,,,,,
pylon_camera_1771860431970018485.png,1771860431970018485,1771860431.9700186,42.30097323803301,-83.69740296400023,238.83352661132812,-0.020319040202457395,-0.9994666598056605,-0.012560197297849372,-0.02226598270919707,-0.00863,-0.0012100000000000001,0.0041,-0.0922,0.9597,-10.3222,4.645706937399217,10.392167676545805,12.929999351501465,12.969999313354492,13.00999927520752,12.979999542236328,10.499278688013211,10.531759025837516,10.564239363661825,10.539879303891679,10.53378909535106,0.013627707251575737,0.10000000149011612,17.0,0.0,0.0,0.0,0.0,0.0,,,,,
pylon_camera_1771860432019955646.png,1771860432019955646,1771860432.0199556,42.3009732654099,-83.69740522705449,238.83212280273438,-0.02038569115807759,-0.9994604343529708,-0.0126829967378735,-0.022414400565820777,-0.00234,0.01302,0.007480000000000001,0.3199,0.3307,-9.988000000000001,4.692202022531109,10.496174392280741,13.09000015258789,13.119999885559082,13.029999732971191,13.119999885559082,10.629200813702774,10.65356087347292,10.580479919770147,10.65356087347292,10.62920062010469,0.012673782165984335,0.10000000149011612,14.850000381469727,0.0,0.0,0.0,0.0,0.0,,,,,
pylon_camera_1771860432070993297.png,1771860432070993297,1771860432.0709934,42.30097331398037,-83.69740865569518,238.83119201660156,-0.02039070096958162,-0.9994563979498188,-0.012479378980023634,-0.022702268860523615,0.0015500000000000002,-0.00956,-0.00037000000000000005,0.4938,-0.0971,-10.1228,4.742835414548713,10.609438252220599,13.079999923706055,13.130000114440918,13.239999771118164,13.229999542236328,10.621080535648614,10.661681151527082,10.751001886945838,10.742881608891679,10.694161295753304,0.007985629542164686,0.20000000298023224,0.0,0.0,0.0,0.0,0.0,0.0,,,,,
pylon_camera_1771860432120688518.png,1771860432120688518,1771860432.1206887,42.30097335021042,-83.69741096078592,238.83009338378906,-0.02036347875053418,-0.9994552890223705,-0.01252847786641692,-0.022748433368856413,-0.007430000000000001,0.0038900000000000002,-0.004470000000000001,0.7905000000000001,-0.24750000000000003,-8.608500000000001,4.784044532998872,10.701620577646498,13.299999237060547,13.34000015258789,13.399999618530273,13.460000038146973,10.799722006486132,10.832203118702774,10.880923238243065,10.929644132175694,10.860623123901917,0.014857800750994915,0.20000000298023224,0.0,0.0,0.0,0.0,0.0,0.0,,,,,
pylon_camera_1771860432171913735.png,1771860432171913735,1771860432.1719136,42.30097340285309,-83.6974144563257,238.8264617919922,-0.020227019704379734,-0.9994498743949802,-0.013042227212553678,-0.022819214602456273,-0.00033000000000000005,0.004900000000000001,-0.012270000000000001,0.30770000000000003,0.1595,-9.6159,4.827757041102831,10.79940283552457,13.399999618530273,13.420000076293945,13.399999618530273,13.460000038146973,10.880923238243065,10.897163794351389,10.880923238243065,10.929644132175694,10.897163600753304,0.00905242324206587,0.30000001192092896,0.0,0.0,0.0,0.0,0.0,0.0,,,,,
pylon_camera_1771860432221652804.png,1771860432221652804,1771860432.2216527,42.30097344426184,-83.69741680963072,238.8232879638672,-0.020092093224648055,-0.9994404934547225,-0.013311269285845428,-0.02319090215650075,0.006950000000000001,-0.018070000000000003,-0.016040000000000002,0.2025,0.2765,-9.5252,4.873235754764713,10.901135989263379,13.609999656677246,13.389999389648438,13.5,13.569999694824219,11.051445205418759,10.872802960188904,10.962124470000001,11.018964867594454,10.97633437580053,0.006898215618190121,0.5,0.0,0.0,0.0,0.0,0.0,0.0,,,,,
pylon_camera_1771860432272422883.png,1771860432272422883,1771860432.272423,42.30097350034168,-83.69742036679646,238.81808471679688,-0.0199843296848769,-0.9994282569125922,-0.013299765409043658,-0.023809705831204103,-0.010130000000000002,-0.02476,-0.008510000000000002,-0.0444,0.2989,-9.4658,4.903910912693995,10.969754477041706,13.619999885559082,13.579999923706055,13.529999732971191,13.449999809265137,11.059565483472921,11.027085145648613,10.986484529770147,10.921523854121533,10.998664753253303,0.002635453352406645,0.4000000059604645,0.0,0.0,0.0,0.0,0.0,0.0,,,,,
pylon_camera_1771860432322086168.png,1771860432322086168,1771860432.322086,42.30097353360203,-83.69742275098098,238.81529235839844,-0.0199198574014946,-0.9994084938242066,-0.013496698701294805,-0.024570325136256146,-0.01591,-0.028730000000000002,-0.0044,0.513,0.5274,-10.2703,4.939243497454531,11.04879134919594,13.619999885559082,13.479999542236328,13.59999942779541,13.469999313354492,11.059565483472921,10.945883913891679,11.043324927364598,10.937763635837516,10.996634490141677,0.004720594081818563,0.4000000059604645,0.0,0.0,0.0,0.0,0.0,0.0,,,,,
pylon_camera_1771860432372800400.png,1771860432372800400,1771860432.3728006,42.30097358503542,-83.6974263413273,238.8109893798828,-0.01989770752141351,-0.9993874351253887,-0.01359927024062271,-0.025375097986255132,-0.025690000000000004,-0.03245000000000001,0.00892,-0.2748,1.6506,-9.2963,4.956201011599475,11.08672429088733,13.829999923706055,13.729999542236328,13.649999618530273,13.710000038146973,11.230087450648613,11.148886218891679,11.083925543243065,11.132646437175694,11.148886412489762,0.005606897039328898,0.4000000059604645,0.0,0.0,0.0,0.0,0.0,0.0,,,,,
pylon_camera_1771860432422800985.png,1771860432422800985,1771860432.4228008,42.30097362356015,-83.69742873768186,238.80685424804688,-0.01973662800430459,-0.9993769745846617,-0.01360932026601669,-0.025902018973923826,-0.004560000000000001,-0.026910000000000007,-0.0048400000000000006,-0.1613,0.033,-9.7189,4.969490918510349,11.11645301525254,13.75999927520752,13.799999237060547,13.719999313354492,13.799999237060547,11.173246278661823,11.20572661648613,11.140765940837518,11.20572661648613,11.1813663631179,0.0058393938944638814,0.4000000059604645,0.0,0.0,0.0,0.0,0.0,0.0,,,,,
pylon_camera_1771860432473860658.png,1771860432473860658,1771860432.4738605,42.300973681080414,-83.69743234847878,238.7999267578125,-0.01952523997765554,-0.9993742561475989,-0.01339571487442455,-0.026275767852747035,0.017720000000000003,-0.03277000000000001,-0.00905,0.1799,-0.8398,-10.496500000000001,4.982304919901501,11.145117167524464,13.779999732971191,13.84000015258789,13.799999237060547,13.799999237060547,11.189486834770145,11.238207728702776,11.20572661648613,11.20572661648613,11.209786949111296,0.005802521464311844,0.4000000059604645,0.0,0.0,0.0,0.0,0.0,0.0,,,,,
pylon_camera_1771860432523571205.png,1771860432523571205,1771860432.5235713,42.30097372113775,-83.69743476329973,238.79544067382812,-0.01934150243891475,-0.9993673920952723,-0.013188009614418753,-0.026773089147680205,0.013280000000000002,-0.036410000000000005,-0.0117,-0.2844,-0.7735000000000001,-9.775400000000001,4.992831052286057,11.168663494100773,13.899999618530273,14.019999504089355,13.929999351501465,13.779999732971191,11.286927848243065,11.384368861715986,11.311287908013211,11.189486834770145,11.293017863185602,0.011134221131338775,0.4000000059604645,0.0,0.0,0.0,0.0,0.0,0.0,,,,,
pylon_camera_1771860432574761578.png,1771860432574761578,1771860432.5747614,42.30097377402049,-83.69743838295541,238.79000854492188,-0.019325366375582465,-0.9993491478735403,-0.013264107991223958,-0.027420326367052016,0.010890000000000002,-0.028280000000000003,-0.00033000000000000005,-0.7591,0.7292000000000001,-9.9831,4.9963757646988345,11.176592803085411,13.869999885559082,13.989999771118164,13.869999885559082,13.799999237060547,11.26256778847292,11.36000880194584,11.26256778847292,11.20572661648613,11.272717748844453,0.008600558994374926,0.5,0.0,0.0,0.0,0.0,0.0,0.0,,,,,
pylon_camera_1771860432624679041.png,1771860432624679041,1771860432.624679,42.300973809133865,-83.69744080351192,238.78744506835938,-0.019372454704188413,-0.9993281759266297,-0.013101093478548632,-0.02821818824013325,0.034800000000000005,-0.035960000000000006,0.00016,-0.871,1.6780000000000002,-10.3512,4.998693770329903,11.181778042601774,13.84000015258789,13.84999942779541,14.0,13.989999771118164,11.238207728702776,11.246327232364598,11.368129080000001,11.36000880194584,11.303168210753304,0.010856070267987978,0.5,0.0,0.0,0.0,0.0,0.0,0.0,,,,,
pylon_camera_1771860432675780396.png,1771860432675780396,1771860432.6757803,42.30097386819372,-83.69744443622001,238.785400390625,-0.01925981567058105,-0.99931066350271,-0.012524085828281606,-0.029161697211829925,0.028740000000000005,-0.029420000000000005,-0.016690000000000003,0.10260000000000001,-0.32070000000000004,-10.3793,5.004311111594543,11.194343697970298,13.859999656677246,13.90999984741211,14.170000076293945,13.859999656677246,11.254447510418759,11.295048126297226,11.506170709351387,11.254447510418759,11.327528464121531,0.011897505538925116,0.6000000238418579,0.0,0.0,0.0,0.0,0.0,0.0,,,,,
pylon_camera_1771860432725706072.png,1771860432725706072,1771860432.725706,42.30097390827164,-83.69744685598079,238.7849578857422,-0.019184665540772194,-0.9992796065142231,-0.012446402307876525,-0.030287021683534022,0.015440000000000002,-0.06705000000000001,-0.004940000000000001,0.2933,1.4609,-9.7674,5.022126278939837,11.234195158411678,13.75,14.00999927520752,13.969999313354492,13.869999885559082,11.165126775000001,11.376248583661823,11.343768245837518,11.26256778847292,11.286927848243065,0.004693944611768953,0.6000000238418579,0.0,0.0,0.0,0.0,0.0,0.0,,,,,
pylon_camera_1771860432776541695.png,1771860432776541695,1771860432.7765417,42.30097397285477,-83.69745050513141,238.7835693359375,-0.01903637366117278,-0.9992505716414551,-0.011989894983556744,-0.03149847568281089,0.011580000000000002,-0.05721000000000001,-0.010890000000000002,-0.3073,0.0734,-8.2154,5.027532700921241,11.246288999998761,13.899999618530273,13.949999809265137,13.899999618530273,13.869999885559082,11.286927848243065,11.327528464121533,11.286927848243065,11.26256778847292,11.290987987270146,0.003974554386019239,0.6000000238418579,0.0,0.0,0.0,0.0,0.0,0.0,,,,,
pylon_camera_1771860432826550437.png,1771860432826550437,1771860432.8265505,42.300974017245736,-83.69745294158264,238.78028869628906,-0.018868197740325776,-0.9992291633984811,-0.011521391714413971,-0.03243960019739018,0.037930000000000005,-0.03293000000000001,-0.021040000000000003,-0.6565000000000001,0.0887,-8.3271,5.038944243955451,11.271815937073708,14.139999389648438,13.719999313354492,14.059999465942383,13.979999542236328,11.481809875188905,11.140765940837518,11.416849199540291,11.351888523891677,11.347828384864599,0.006743584903731554,0.699999988079071,0.0,0.0,0.0,0.0,0.0,0.0,,,,,
pylon_camera_1771860432877837479.png,1771860432877837479,1771860432.8778377,42.3009740807283,-83.69745659027453,238.77218627929688,-0.018895738652354832,-0.9992164446018955,-0.010898633522205917,-0.03302525829236923,0.021320000000000006,-0.012610000000000001,-0.006360000000000001,-0.5967,1.3193000000000001,-9.011800000000001,5.030489672772797,11.25290356861238,14.039999961853027,13.869999885559082,14.0,13.880000114440918,11.400609417824308,11.26256778847292,11.368129080000001,11.27068806652708,11.325498588206077,0.006451225601558134,0.699999988079071,0.0,0.0,0.0,0.0,0.0,0.0,,,,,
pylon_camera_1771860432927768780.png,1771860432927768780,1771860432.927769,42.30097411865672,-83.69745902256135,238.76480102539062,-0.018933733252348484,-0.9992217897849067,-0.010681474878077428,-0.03291253041936834,-0.021060000000000002,0.011030000000000002,0.00136,-0.364,0.3785,-8.5013,5.029955902839533,11.251709557297866,14.0,14.09000015258789,13.929999351501465,13.829999923706055,11.368129080000001,11.441210033702776,11.311287908013211,11.230087450648613,11.33767861809115,0.007640533232349933,0.699999988079071,0.0,0.0,0.0,0.0,0.0,0.0,,,,,
pylon_camera_1771860432979116262.png,1771860432979116262,1771860432.9791162,42.300974164815365,-83.69746266180468,238.7516632080078,-0.01890274718570656,-0.999240372660307,-0.011221461843266936,-0.032178293749423444,-0.027650000000000004,0.03486,-0.0002800000000000001,-0.8827,-0.2882,-9.6943,5.02343408388466,11.237120639604953,14.09000015258789,14.069999694824219,14.09999942779541,14.0,11.441210033702776,11.424969477594452,11.449329537364598,11.368129080000001,11.420909532165457,0.016355514767078694,0.699999988079071,0.0,0.0,0.0,0.0,0.0,0.0,,,,,
pylon_camera_1771860433028608210.png,1771860433028608210,1771860433.0286083,42.30097419219344,-83.69746508660623,238.74278259277344,-0.018860257266854086,-0.9992636608869672,-0.011958457249857737,-0.03119971196674282,-0.018660000000000003,0.040810000000000006,-0.0030600000000000007,-0.527,-0.6107,-10.590300000000001,5.0246360541469155,11.239809374963402,14.179999351501465,14.239999771118164,13.989999771118164,14.170000076293945,11.51429021301321,11.56301110694584,11.36000880194584,11.506170709351387,11.485870207814068,0.02189190444802075,0.6000000238418579,0.0,0.0,0.0,0.0,0.0,0.0,,,,,
pylon_camera_1771860433079617709.png,1771860433079617709,1771860433.0796177,42.30097423067509,-83.69746873280674,238.73143005371094,-0.01878729274245311,-0.9992829305652131,-0.012322725178373583,-0.030476429524912668,-0.01156,0.02477,-0.0006700000000000001,-0.5381,0.24020000000000002,-9.9282,5.035991418364367,11.265210643395989,14.09000015258789,14.029999732971191,14.049999237060547,14.139999389648438,11.441210033702776,11.392489139770145,11.40872892148613,11.481809875188905,11.431059492536988,0.014722214647466482,0.6000000238418579,0.0,0.0,0.0,0.0,0.0,0.0,,,,,
pylon_camera_1771860433129802133.png,1771860433129802133,1771860433.1298022,42.300974272429215,-83.69747238413179,238.72305297851562,-0.01869525566073854,-0.9992973442407833,-0.012576641590988319,-0.029952183482822314,-0.008130000000000002,0.024230000000000005,-0.00234,-0.3153,0.5046,-10.7699,5.040248758967346,11.274734058884416,14.119999885559082,14.109999656677246,14.059999465942383,14.09000015258789,11.46557009347292,11.457449815418759,11.416849199540291,11.441210033702776,11.445269785533686,0.015125476641720762,0.6000000238418579,0.0,0.0,0.0,0.0,0.0,0.0,,,,,
pylon_camera_1771860433180401939.png,1771860433180401939,1771860433.1804018,42.300974304875204,-83.69747482617568,238.7191925048828,-0.01858971030916423,-0.999303323207464,-0.012859493468409882,-0.02969721072552257,-0.0002800000000000001,0.01025,-0.0028400000000000005,-0.36050000000000004,0.8562000000000001,-10.941600000000001,5.0446680007537745,11.284619637606149,14.119999885559082,14.149999618530273,14.170000076293945,14.1899995803833,11.46557009347292,11.489930153243066,11.506170709351387,11.522410491067372,11.496020361783685,0.018733526779497384,0.9000000357627869,0.0,0.0,0.0,0.0,0.0,0.0,,,,,
pylon_camera_1771860433230270922.png,1771860433230270922,1771860433.2302709,42.3009743618315,-83.69747848794634,238.71458435058594,-0.01843548622459451,-0.999314993060997,-0.012697212458254656,-0.029469616335339715,0.01946,0.021830000000000006,-0.00885,-0.3206,0.9171,-10.3011,5.05082478623272,11.298391997315422,14.059999465942383,14.00999927520752,14.149999618530273,14.09999942779541,11.416849199540291,11.376248583661823,11.489930153243066,11.449329537364598,11.433089368452444,0.011921817827618971,1.5,0.0,0.0,0.0,0.0,0.0,0.0,,,,,
pylon_camera_1771860433281386593.png,1771860433281386593,1771860433.2813866,42.30097440391955,-83.6974809335514,238.71157836914062,-0.01825992938533827,-0.9993300844594251,-0.01220120102754867,-0.02927606473975443,0.017660000000000006,0.010650000000000001,-0.011800000000000001,-0.127,0.4112,-9.3292,5.050637662058038,11.297973411764108,14.09000015258789,14.09999942779541,14.210000038146973,14.1899995803833,11.441210033702776,11.449329537364598,11.538651047175694,11.522410491067372,11.487900277327611,0.016810702118110886,2.1000001430511475,0.0,0.0,0.0,0.0,0.0,0.0,,,,,
pylon_camera_1771860433331370288.png,1771860433331370288,1771860433.3313704,42.30097447585036,-83.69748458981498,238.70533752441406,-0.018133291738127277,-0.9993583448295613,-0.011508454614765637,-0.02866422548472469,0.025190000000000004,0.03366,-0.0039700000000000004,-0.5039,0.6623,-8.204600000000001,5.042744918362984,11.280317817682894,14.109999656677246,14.109999656677246,14.239999771118164,14.09999942779541,11.457449815418759,11.457449815418759,11.56301110694584,11.449329537364598,11.48181006878699,0.01786228494273795,2.5,0.0,0.0,0.0,0.0,0.0,0.0,,,,,
pylon_camera_1771860433382522550.png,1771860433382522550,1771860433.3825226,42.300974526995866,-83.69748701624405,238.69845581054688,-0.01794761622177249,-0.9994053819549756,-0.010883737220669534,-0.027355252795331724,0.028560000000000006,0.07456000000000002,-0.0032700000000000003,-0.3765,1.3046,-8.7771,5.031610914057675,11.255411718092175,14.210000038146973,14.25,14.299999237060547,14.199999809265137,11.538651047175694,11.571131385000001,11.61173122648613,11.530530769121533,11.56301110694584,0.02732902150165009,2.6000001430511475,0.0,0.0,0.0,0.0,0.0,0.0,,,,,
pylon_camera_1771860433432166411.png,1771860433432166411,1771860433.4321663,42.300974596097085,-83.69749066671986,238.68434143066406,-0.017695618242997813,-0.9994679142645334,-0.00997355656246661,-0.025520219830496977,0.05575000000000001,0.08802000000000001,-0.01561,-0.10980000000000001,-0.2646,-8.7955,5.039107058703828,11.272180143896941,14.1899995803833,14.279999732971191,14.109999656677246,14.289999961853027,11.522410491067372,11.595491444770145,11.457449815418759,11.603611722824308,11.544740868520147,0.02417994754730547,2.6000001430511475,0.0,0.0,0.0,0.0,0.0,0.0,,,,,
pylon_camera_1771860433483444322.png,1771860433483444322,1771860433.4834442,42.300974645156934,-83.69749310440682,238.67393493652344,-0.017309308104193788,-0.9995211227553414,-0.009348924691573581,-0.023885364262803053,0.04973,0.0415,-0.03325,0.2416,-1.5916000000000001,-10.4105,5.05739872112037,11.313097495223001,14.229999542236328,14.279999732971191,14.1899995803833,14.179999351501465,11.554890828891677,11.595491444770145,11.522410491067372,11.51429021301321,11.546770744435602,0.020655107879276192,2.6000001430511475,0.0,0.0,0.0,0.0,0.0,0.0,,,,,
pylon_camera_1771860433533753732.png,1771860433533753732,1771860433.5337539,42.30097469994999,-83.69749676369298,238.66053771972656,-0.01706257239958814,-0.9995519104096716,-0.009625376436972572,-0.02263181715928109,-0.005280000000000001,0.019310000000000004,-0.019240000000000004,0.1311,-0.4259,-11.135200000000001,5.071987558223903,11.345731848493378,14.25,14.289999961853027,14.170000076293945,14.1899995803833,11.571131385000001,11.603611722824308,11.506170709351387,11.522410491067372,11.550831077060767,0.01807721452491627,2.6000001430511475,0.0,0.0,0.0,0.0,0.0,0.0,,,,,
pylon_camera_1771860433584396202.png,1771860433584396202,1771860433.5843964,42.30097473286542,-83.69749921544908,238.65377807617188,-0.01688562500786528,-0.9995606835731735,-0.010140557546538323,-0.022146887263663304,-0.006470000000000001,0.0029900000000000005,-0.011050000000000003,0.16840000000000002,0.6633,-11.1369,5.086229897635883,11.377591107217613,14.1899995803833,14.25,14.139999389648438,14.1899995803833,11.522410491067372,11.571131385000001,11.481809875188905,11.522410491067372,11.524440560580913,0.012906901995286438,2.6000001430511475,0.0,0.0,0.0,0.0,0.0,0.0,,,,,
pylon_camera_1771860433634485684.png,1771860433634485684,1771860433.6344857,42.3009747745251,-83.69750290812546,238.64859008789062,-0.016763503190800444,-0.9995479448131532,-0.010271169282171465,-0.02274629776800127,0.006080000000000001,-0.0342,-0.005740000000000001,0.2696,0.1671,-10.836400000000001,5.103859019867399,11.41702639590218,14.149999618530273,14.149999618530273,14.199999809265137,14.15999984741211,11.489930153243066,11.489930153243066,11.530530769121533,11.498050431297225,11.502110376726222,0.007452376641134863,2.6000001430511475,0.0,0.0,0.0,0.0,0.0,0.0,,,,,
pylon_camera_1771860433685613974.png,1771860433685613974,1771860433.685614,42.30097480293229,-83.6975053716656,238.6471710205078,-0.016634927768864605,-0.9995251254822473,-0.010535741040883971,-0.023702338883360558,-0.008760000000000002,-0.033190000000000004,-0.009600000000000001,-0.0351,0.34190000000000004,-10.287600000000001,5.105308751352697,11.420269358250904,14.170000076293945,14.149999618530273,14.170000076293945,14.199999809265137,11.506170709351387,11.489930153243066,11.506170709351387,11.530530769121533,11.508200585266843,0.0076995755754579575,2.6000001430511475,0.0,0.0,0.0,0.0,0.0,0.0,,,,,
pylon_camera_1771860433735433205.png,1771860433735433205,1771860433.735433,42.30097484039977,-83.69750907945212,238.64630126953125,-0.016464734367531153,-0.9994999448917973,-0.010806616693783267,-0.02473842596315682,-0.012720000000000002,-0.027910000000000004,-0.009510000000000001,-0.2776,0.2672,-9.6201,5.105541404600259,11.420789789606504,14.229999542236328,14.059999465942383,14.15999984741211,14.25,11.554890828891677,11.416849199540291,11.498050431297225,11.571131385000001,11.510230461182298,0.007831391105472351,2.6000001430511475,0.0,0.0,0.0,0.0,0.0,0.0,,,,,
pylon_camera_1771860433786379500.png,1771860433786379500,1771860433.7863796,42.30097486615159,-83.69751155086722,238.64547729492188,-0.016265446418103235,-0.9994799797698986,-0.010996943185077646,-0.025578751583430124,-0.007910000000000002,-0.026630000000000004,-0.00928,-0.734,0.4657,-9.3152,5.099324686952792,11.40688336523218,14.139999389648438,14.149999618530273,14.149999618530273,14.269999504089355,11.481809875188905,11.489930153243066,11.489930153243066,11.587371166715984,11.512260337097754,0.0092380160725374,2.799999952316284,0.0,0.0,0.0,0.0,0.0,0.0,,,,,
pylon_camera_1771860433836323830.png,1771860433836323830,1771860433.8363237,42.30097491197643,-83.69751525050805,238.6427459716797,-0.01605084703655224,-0.9994724523697062,-0.010928746762692227,-0.026033627440137503,0.00031,-0.012620000000000003,-0.006070000000000001,-0.868,0.18960000000000002,-9.3704,5.095245209070301,11.39775781797772,14.149999618530273,14.229999542236328,14.170000076293945,14.289999961853027,11.489930153243066,11.554890828891677,11.506170709351387,11.603611722824308,11.538650853577611,0.012361469496891762,2.799999952316284,0.0,0.0,0.0,0.0,0.0,0.0,,,,,
pylon_camera_1771860433886700856.png,1771860433886700856,1771860433.8867009,42.300974943411354,-83.69751772041873,238.63998413085938,-0.01580298866176716,-0.999471546826767,-0.010661978699252369,-0.026328973456679092,0.006810000000000001,-0.018580000000000003,-0.011740000000000002,-0.7903,0.0603,-9.404200000000001,5.100629873572945,11.409802989390265,14.170000076293945,14.179999351501465,14.1899995803833,14.25999927520752,11.506170709351387,11.51429021301321,11.522410491067372,11.579250888661823,11.530530575523448,0.010581040377773866,2.799999952316284,0.0,0.0,0.0,0.0,0.0,0.0,,,,,
pylon_camera_1771860433945706121.png,1771860433945706121,1771860433.9457061,42.300974990232355,-83.69752142013128,238.63499450683594,-0.015551943918966249,-0.999469415057667,-0.010596409818593723,-0.0265846102770553,9e-05,-0.005740000000000001,-0.007110000000000001,-0.8390000000000001,0.562,-9.890600000000001,5.096166238313095,11.399818105132095,14.199999809265137,14.170000076293945,14.1899995803833,14.289999961853027,11.530530769121533,11.506170709351387,11.522410491067372,11.603611722824308,11.540680923091152,0.012356584698105142,2.799999952316284,0.0,0.0,0.0,0.0,0.0,0.0,,,,,
pylon_camera_1771860433988155013.png,1771860433988155013,1771860433.9881551,42.3009750207921,-83.6975238826974,238.631591796875,-0.015355367937508746,-0.9994679847160673,-0.010701963949104231,-0.026710076202413068,-0.007790000000000001,-0.00354,-0.008380000000000002,-0.3904,0.3488,-9.8657,5.099223281790367,11.406656527968146,14.1899995803833,14.289999961853027,14.1899995803833,14.210000038146973,11.522410491067372,11.603611722824308,11.522410491067372,11.538651047175694,11.546770938033685,0.012283565278045397,2.799999952316284,0.0,0.0,0.0,0.0,0.0,0.0,,,,,
pylon_camera_1771860434038030931.png,1771860434038030931,1771860434.0380309,42.30097506540323,-83.69752758319176,238.62693786621094,-0.015089084941573627,-0.9994650576158572,-0.010791357365590944,-0.026934452412576238,-0.004750000000000001,-0.007140000000000001,-0.008690000000000002,-0.5849,0.225,-10.188600000000001,5.098295179322233,11.404580418433076,14.25,14.199999809265137,14.219999313354492,14.269999504089355,11.571131385000001,11.530530769121533,11.546770550837518,11.587371166715984,11.558950967918758,0.01353583769168525,2.799999952316284,0.0,0.0,0.0,0.0,0.0,0.0,,,,,
pylon_camera_1771860434098022788.png,1771860434098022788,1771860434.098023,42.30097510740726,-83.69753128765151,238.62303161621094,-0.014815024929293708,-0.9994583179532452,-0.010883391039152321,-0.02729720699820198,-0.007190000000000001,-0.009890000000000001,-0.007850000000000001,-0.3335,0.040600000000000004,-9.9547,5.102302660974841,11.413544914441061,14.199999809265137,14.229999542236328,14.229999542236328,14.34999942779541,11.530530769121533,11.554890828891677,11.554890828891677,11.652331842364598,11.573161067317372,0.013984800872370083,2.799999952316284,0.0,0.0,0.0,0.0,0.0,0.0,,,,,
pylon_camera_1771860434138917826.png,1771860434138917826,1771860434.138918,42.30097513189511,-83.69753375958122,238.62060546875,-0.014673456297410958,-0.9994522081425208,-0.01095443342933653,-0.027567620636705693,-0.005360000000000001,-0.010910000000000001,-0.006710000000000001,-0.3493,0.3685,-9.2318,5.10299109596102,11.415084902199045,14.1899995803833,14.239999771118164,14.279999732971191,14.299999237060547,11.522410491067372,11.56301110694584,11.595491444770145,11.61173122648613,11.573161067317372,0.01384800607903275,2.799999952316284,0.0,0.0,0.0,0.0,0.0,0.0,,,,,
pylon_camera_1771860434198851719.png,1771860434198851719,1771860434.1988518,42.300975169929956,-83.69753746146536,238.61561584472656,-0.014397162014192721,-0.9994544235223155,-0.010990694344157175,-0.027618502230327715,0.0017200000000000004,0.010210000000000002,-0.011290000000000001,-0.5418000000000001,0.2792,-9.1515,5.091844844281403,11.390151405966842,14.25,14.289999961853027,14.289999961853027,14.269999504089355,11.571131385000001,11.603611722824308,11.603611722824308,11.587371166715984,11.59143149934115,0.01767141508486581,2.799999952316284,0.0,0.0,0.0,0.0,0.0,0.0,,,,,
pylon_camera_1771860434240221128.png,1771860434240221128,1771860434.2402213,42.300975192600596,-83.69753992605524,238.6110076904297,-0.014220898575799057,-0.9994704403596898,-0.011012634922097312,-0.02711690917079243,-0.0009300000000000002,0.03386,-0.009240000000000002,-0.3527,0.167,-9.352500000000001,5.088550718583188,11.382782644427477,14.399999618530273,14.359999656677246,14.210000038146973,14.299999237060547,11.692932458243066,11.66045212041876,11.538651047175694,11.61173122648613,11.625941713080913,0.0213620057809393,2.700000047683716,0.0,0.0,0.0,0.0,0.0,0.0,,,,,
pylon_camera_1771860434290769897.png,1771860434290769897,1771860434.2907698,42.30097523568417,-83.6975436199707,238.60218811035156,-0.01402474768322437,-0.9994844728113215,-0.010941829277671825,-0.026727727803819004,0.021280000000000004,-0.013030000000000002,-0.009570000000000002,-2.2592000000000003,1.8149000000000002,-9.2997,5.094746300176411,11.396641788716622,14.449999809265137,14.079999923706055,14.289999961853027,14.329999923706055,11.733533074121533,11.433089755648613,11.603611722824308,11.636092060648613,11.601581653310769,0.017982478382101125,2.9000000953674316,0.0,0.0,0.0,0.0,0.0,0.0,,,,,
pylon_camera_1771860434341163042.png,1771860434341163042,1771860434.341163,42.30097527876496,-83.69754606562958,238.5953369140625,-0.013775643499546242,-0.9995440543214026,-0.009460472932598543,-0.025147854158912256,0.03731,0.051870000000000006,-0.00013000000000000002,-0.3546,0.6063000000000001,-9.0469,5.070309621760118,11.341978405300079,14.399999618530273,14.359999656677246,14.359999656677246,14.329999923706055,11.692932458243066,11.66045212041876,11.66045212041876,11.636092060648613,11.6624821899323,0.028258190342035066,2.9000000953674316,0.0,0.0,0.0,0.0,0.0,0.0,,,,,
pylon_camera_1771860434391840381.png,1771860434391840381,1771860434.3918402,42.30097533968885,-83.69754972680039,238.58468627929688,-0.013515941732680559,-0.9996087994213996,-0.008283333928689345,-0.02304243514502703,0.032440000000000004,0.06585,-0.00131,0.0845,0.4878,-9.876000000000001,5.061003873546144,11.321162004890313,14.359999656677246,14.479999542236328,14.359999656677246,14.289999961853027,11.66045212041876,11.757893133891677,11.66045212041876,11.603611722824308,11.670602274388376,0.030866113332458058,3.0,0.0,0.0,0.0,0.0,0.0,0.0,,,,,
pylon_camera_1771860434441822258.png,1771860434441822258,1771860434.4418223,42.30097537318379,-83.69755218080866,238.5792999267578,-0.01321691249109358,-0.9996534788430379,-0.00792641917804151,-0.021340275073877726,0.0039700000000000004,0.045770000000000005,-0.006560000000000001,0.5864,-0.31770000000000004,-10.9381,5.077988859296822,11.359156398915433,14.299999237060547,14.34000015258789,14.269999504089355,14.309999465942383,11.61173122648613,11.644212338702776,11.587371166715984,11.619851504540291,11.615791559111296,0.02259280101296663,2.9000000953674316,0.0,0.0,0.0,0.0,0.0,0.0,,,,,
pylon_camera_1771860434493023597.png,1771860434493023597,1771860434.4930234,42.30097541606179,-83.69755587312608,238.5738525390625,-0.012938328848929648,-0.999670445730694,-0.007945963279317264,-0.020699305465553295,-0.009010000000000002,0.009430000000000001,-0.005700000000000001,0.23070000000000002,-0.5107,-10.8985,5.093162556758217,11.393099049714726,14.199999809265137,14.329999923706055,14.289999961853027,14.399999618530273,11.530530769121533,11.636092060648613,11.603611722824308,11.692932458243066,11.61579175270938,0.01954627990355538,2.6000001430511475,0.0,0.0,0.0,0.0,0.0,0.0,,,,,
pylon_camera_1771860434542881624.png,1771860434542881624,1771860434.5428815,42.3009754356259,-83.69755834480041,238.57164001464844,-0.01269004463162765,-0.9996652243074744,-0.00814113397426956,-0.021026745234281014,-0.010080000000000002,-0.013810000000000001,-0.011400000000000002,-0.0017000000000000001,-1.2748000000000002,-10.1137,5.110072342482108,11.430925225791928,14.149999618530273,14.15999984741211,14.25,14.279999732971191,11.489930153243066,11.498050431297225,11.571131385000001,11.595491444770145,11.53865085357761,0.009424051479456541,2.1000001430511475,0.0,0.0,0.0,0.0,0.0,0.0,,,,,
pylon_camera_1771860434593372043.png,1771860434593372043,1771860434.593372,42.30097545175418,-83.69756206243474,238.56979370117188,-0.012549612151546652,-0.9996417054021864,-0.008684083676284614,-0.02198987826608696,-0.025040000000000003,-0.037070000000000006,-0.004890000000000001,-0.5493,-0.6584,-9.2332,5.12238338083794,11.458464279931622,14.139999389648438,14.229999542236328,14.229999542236328,14.289999961853027,11.481809875188905,11.554890828891677,11.554890828891677,11.603611722824308,11.548800813949143,0.007883825599189258,1.600000023841858,0.0,0.0,0.0,0.0,0.0,0.0,,,,,
pylon_camera_1771860434644166427.png,1771860434644166427,1771860434.6441665,42.30097545786134,-83.69756454091105,238.5677490234375,-0.012465729617437415,-0.9996136664126556,-0.009424345449715564,-0.022984891102580427,-0.031520000000000006,-0.033870000000000004,-0.0029600000000000004,-0.5071,-0.097,-9.1731,5.127671723070715,11.470293984205805,14.170000076293945,14.229999542236328,14.239999771118164,14.279999732971191,11.506170709351387,11.554890828891677,11.56301110694584,11.595491444770145,11.554891022489763,0.007375315610955132,1.5,0.0,0.0,0.0,0.0,0.0,0.0,,,,,
pylon_camera_1771860434694842334.png,1771860434694842334,1771860434.6948423,42.30097546485688,-83.69756826546046,238.5621337890625,-0.012378938969585473,-0.9995843382594541,-0.010139206241910118,-0.023981431841742135,-0.012580000000000001,-0.03375,-0.0024200000000000003,-0.7959,0.4186,-9.2715,5.1308968291772565,11.477508353059774,14.239999771118164,14.210000038146973,14.25,14.289999961853027,11.56301110694584,11.538651047175694,11.571131385000001,11.603611722824308,11.56910131548646,0.007980213092353673,1.5,0.20000000298023224,0.0,0.0,0.0,0.0,0.0,,,,,
pylon_camera_1771860434745289031.png,1771860434745289031,1771860434.7452888,42.30097547300285,-83.6975707507035,238.5568084716797,-0.012277814025442702,-0.9995709965502886,-0.01039596094382377,-0.02447452010304298,0.00026000000000000003,-0.017030000000000003,-0.0073500000000000015,-0.38480000000000003,0.5404,-9.4273,5.131703266007157,11.47931230386205,14.309999465942383,14.4399995803833,14.25,14.239999771118164,11.619851504540291,11.725412796067372,11.571131385000001,11.56301110694584,11.619851698138376,0.01224284090860071,1.600000023841858,1.0750000476837158,0.0,0.0,0.0,0.0,0.0,,,,,
pylon_camera_1771860434795880556.png,1771860434795880556,1771860434.7958806,42.30097549318199,-83.6975744727366,238.5488739013672,-0.012132212360902395,-0.999565692485104,-0.0103696683781138,-0.024773086358641193,0.007020000000000001,-0.009880000000000002,-0.0083,-0.2636,0.5436,-9.867700000000001,5.127371269773558,11.469621888207264,14.34999942779541,14.359999656677246,14.170000076293945,14.309999465942383,11.652331842364598,11.66045212041876,11.506170709351387,11.619851504540291,11.60970154416876,0.012213101471594354,1.600000023841858,2.8500001430511475,0.0,0.0,0.0,0.0,0.0,,,,,
pylon_camera_1771860434846090261.png,1771860434846090261,1771860434.8460903,42.3009755088067,-83.69757695386022,238.54393005371094,-0.01198298345469323,-0.9995667774735351,-0.01032176838014131,-0.02482189711129484,0.016790000000000003,0.02578,-0.010410000000000003,-0.4525,1.1671,-8.585,5.123480451698464,11.460918361622364,14.34000015258789,14.329999923706055,14.210000038146973,14.729999542236328,11.644212338702776,11.636092060648613,11.538651047175694,11.96089543889168,11.694962721354692,0.020421082530003982,1.600000023841858,3.424999952316284,0.0,0.0,0.0,0.0,0.0,,,,,
pylon_camera_1771860434897426425.png,1771860434897426425,1771860434.8974264,42.30097555019322,-83.69758068232025,238.53855895996094,-0.01156888550745594,-0.9995593320717924,-0.009725572492561275,-0.025548303192182046,0.019340000000000003,-0.03586,-0.024730000000000005,0.3493,0.0216,-15.6692,5.132905961061285,11.48200266053643,14.229999542236328,14.229999542236328,14.149999618530273,14.25,11.554890828891677,11.554890828891677,11.489930153243066,11.571131385000001,11.542710799006606,0.0052872430241485,1.600000023841858,4.175000190734863,0.0,0.0,0.0,0.0,0.0,,,,,
pylon_camera_1771860434947071431.png,1771860434947071431,1771860434.9470716,42.30097558560848,-83.69758317505801,238.5422821044922,-0.011204821829011002,-0.9995090046203146,-0.008460655102696241,-0.02801105078216518,0.034370000000000005,-0.14193,-0.01101,-0.6269,-0.22060000000000002,-10.975900000000001,5.162831890517186,11.548945169173514,13.899999618530273,14.109999656677246,14.149999618530273,14.119999885559082,11.286927848243065,11.457449815418759,11.489930153243066,11.46557009347292,11.424969477594452,0.010734806492109648,1.8000000715255737,4.900000095367432,0.0,0.0,0.0,0.0,0.0,,,,,
pylon_camera_1771860434997927013.png,1771860434997927013,1771860434.997927,42.30097563623757,-83.69758692442706,238.55104064941406,-0.011023920823809874,-0.9994433412281865,-0.00760929706486076,-0.03055453227408125,0.013330000000000003,-0.10985000000000002,0.008000000000000002,-0.681,-0.08410000000000001,-8.3368,5.156678200415666,11.53517973363782,14.019999504089355,14.219999313354492,14.25,14.1899995803833,11.384368861715986,11.546770550837518,11.571131385000001,11.522410491067372,11.50617032215522,0.0025148642806149643,2.5,4.775000095367432,0.0,0.0,0.0,0.0,0.0,,,,,
pylon_camera_1771860435047954237.png,1771860435047954237,1771860435.047954,42.30097565479831,-83.69758941602136,238.5543212890625,-0.010932038099178365,-0.9993985679812223,-0.007586443690058625,-0.03202247230021482,0.0029400000000000003,-0.029220000000000003,0.00117,-0.5473,0.4541,-7.5971,5.122064290026335,11.457750492931511,14.25,14.25,14.359999656677246,14.279999732971191,11.571131385000001,11.571131385000001,11.66045212041876,11.595491444770145,11.599551583797227,0.012375997448469095,2.299999952316284,5.700000286102295,0.0,0.0,0.0,0.0,0.0,,,,,
pylon_camera_1771860435098778773.png,1771860435098778773,1771860435.098779,42.30097567592638,-83.69759313591842,238.5535125732422,-0.010921033673905456,-0.999395343537843,-0.007457415495344594,-0.032156885615682584,0.009390000000000003,0.03266000000000001,-0.0013900000000000002,-0.5058,-0.8439000000000001,-7.4038,5.1032470619058286,11.415657482659626,14.149999618530273,14.25999927520752,14.420000076293945,14.329999923706055,11.489930153243066,11.579250888661823,11.709173014351387,11.636092060648613,11.603611529226223,0.016464583564468296,1.7000000476837158,5.625,0.0,0.0,0.0,0.0,0.0,,,,,
pylon_camera_1771860435148794914.png,1771860435148794914,1771860435.148795,42.30097568589878,-83.6975956066526,238.54917907714844,-0.01088993020603235,-0.9994348038070011,-0.00694870921027547,-0.031035428137530505,0.037770000000000005,0.06619000000000001,-0.010330000000000002,-0.2606,-0.8821,-8.1159,5.0876886867428395,11.380854330922528,14.739999771118164,14.380000114440918,14.4399995803833,14.319999694824219,11.96901571694584,11.67669267652708,11.725412796067372,11.627971782594452,11.749773243033687,0.03241574853557189,1.899999976158142,5.724999904632568,0.0,0.0,0.0,0.0,0.0,,,,,
pylon_camera_1771860435199929036.png,1771860435199929036,1771860435.199929,42.30097570014038,-83.6975992995415,238.5369415283203,-0.010847262871714836,-0.999486369208944,-0.007139340361469598,-0.029297857821302568,-0.023970000000000005,0.07921,-0.0072000000000000015,-0.6055,0.23750000000000002,-9.1669,5.096993881171845,11.401669492548548,14.34000015258789,14.559999465942383,14.4399995803833,14.460000038146973,11.644212338702776,11.822853809540293,11.725412796067372,11.741653352175694,11.733533074121535,0.029106577926142626,1.8000000715255737,5.75,0.0,0.0,0.0,0.0,0.0,,,,,
pylon_camera_1771860435249865270.png,1771860435249865270,1771860435.2498653,42.300975703675924,-83.69760300797086,238.52174377441406,-0.010616516853391045,-0.9995271805187966,-0.008157211078897669,-0.027679683550594407,-0.039040000000000005,0.06829,-0.0058400000000000014,-0.5084000000000001,-0.4425,-9.5761,5.119022531837414,11.450946262368387,14.519999504089355,14.619999885559082,14.429999351501465,14.519999504089355,11.790373471715984,11.87157470347292,11.71729251801321,11.790373471715984,11.792403541229525,0.029819132064507262,1.399999976158142,5.575000286102295,0.0,0.0,0.0,0.0,0.0,,,,,
pylon_camera_1771860435300845993.png,1771860435300845993,1771860435.300846,42.30097570507677,-83.69760548871416,238.51112365722656,-0.010336001507067927,-0.9995514693086985,-0.00930154969390361,-0.026523733691916945,-0.02767,0.033900000000000007,-0.004710000000000001,-0.6677000000000001,0.5003000000000001,-10.9425,5.1460058573142,11.511306342460427,14.449999809265137,14.619999885559082,14.380000114440918,14.469999313354492,11.733533074121533,11.87157470347292,11.67669267652708,11.749772855837517,11.757893327489764,0.021421285968194592,1.0,5.525000095367432,0.0,0.0,0.0,0.0,0.0,,,,,
pylon_camera_1771860435350636482.png,1771860435350636482,1771860435.3506365,42.300975709489954,-83.69760923154637,238.49769592285156,-0.010098124790558771,-0.9995668092341514,-0.00971341396102891,-0.025881872853283968,-0.0058200000000000005,0.01831,-0.0053100000000000005,-0.4117,0.5236000000000001,-11.0296,5.1700252976470695,11.565036389318637,14.549999237060547,14.489999771118164,14.389999389648438,14.449999809265137,11.81473353148613,11.76601341194584,11.684812180188905,11.733533074121533,11.749773049435602,0.015973720609092572,1.0,5.724999904632568,0.0,0.0,0.0,0.0,0.0,,,,,
pylon_camera_1771860435401540660.png,1771860435401540660,1771860435.4015405,42.30097571110917,-83.69761174018642,238.49099731445312,-0.009971758241472173,-0.9995694152624224,-0.009945957934807601,-0.02574152346446625,-0.020540000000000003,0.0014100000000000002,-0.0022500000000000003,-0.4202,0.3916,-10.6782,5.1858436211630226,11.600421029924412,14.50999927520752,14.529999732971191,14.50999927520752,14.399999618530273,11.782253193661825,11.798493749770145,11.782253193661825,11.692932458243066,11.763983148834214,0.014099670907450462,1.399999976158142,5.974999904632568,0.0,0.0,0.0,0.0,0.0,,,,,
pylon_camera_1771860435451656755.png,1771860435451656755,1771860435.4516568,42.30097571519372,-83.69761551124408,238.48333740234375,-0.009916791280968562,-0.99956507816219,-0.010388271689946008,-0.025756466772453,-0.025200000000000004,-0.008310000000000001,0.00101,-0.1047,0.2399,-10.348600000000001,5.20259019348071,11.63788210740474,14.549999237060547,14.5,14.569999694824219,14.59999942779541,11.81473353148613,11.77413369,11.830974087594452,11.855334147364598,11.818793864111296,0.015545075559018422,1.5,5.900000095367432,0.0,0.0,0.0,0.0,0.0,,,,,
pylon_camera_1771860435502645260.png,1771860435502645260,1771860435.5026453,42.30097571838596,-83.6976180342619,238.4789276123047,-0.009864933544904586,-0.9995605617562533,-0.01065842707068623,-0.02584113774695223,-0.009940000000000001,-0.005860000000000001,-0.0019000000000000002,-0.07250000000000001,0.1515,-9.887500000000001,5.2152037959732755,11.66609797936446,14.630000114440918,14.50999927520752,14.630000114440918,14.589999198913574,11.879694981527082,11.782253193661825,11.879694981527082,11.847213869310437,11.847214256506607,0.015525009087229834,1.399999976158142,5.724999904632568,0.0,0.0,0.0,0.0,0.0,,,,,
pylon_camera_1771860435552569212.png,1771860435552569212,1771860435.5525692,42.300975726287255,-83.6976218306343,238.47314453125,-0.009783598858542686,-0.9995597065970941,-0.010596132535582104,-0.02593060192502989,0.005980000000000001,0.008820000000000001,-0.00144,-0.17750000000000002,0.2006,-9.8458,5.222137094521006,11.68160735221782,14.609999656677246,14.589999198913574,14.699999809265137,14.589999198913574,11.863454425418759,11.847213869310437,11.936535379121532,11.847213869310437,11.87360438579029,0.01643584035856317,1.100000023841858,5.724999904632568,0.0,0.0,0.0,0.0,0.0,,,,,
pylon_camera_1771860435603319042.png,1771860435603319042,1771860435.603319,42.30097573176076,-83.69762436872475,238.46978759765625,-0.009646129936471903,-0.999555277433675,-0.010670101246147156,-0.026121800687062165,0.006640000000000001,-0.01233,-0.012450000000000001,0.387,-0.524,-9.6205,5.241939352187074,11.725903814481354,14.559999465942383,14.469999313354492,14.670000076293945,14.609999656677246,11.822853809540293,11.749772855837517,11.912175319351388,11.863454425418759,11.83706410253699,0.00947989083096132,0.6000000238418579,5.599999904632568,0.0,0.0,0.0,0.0,0.0,,,,,
pylon_camera_1771860435653017774.png,1771860435653017774,1771860435.6530178,42.30097573841366,-83.69762818249798,238.4640655517578,-0.009564549127043298,-0.9995466670714972,-0.01076529974566003,-0.02644027359245128,0.0073500000000000015,-0.022770000000000002,-0.006980000000000001,-0.5855,0.2386,-9.9319,5.2548769900796914,11.754844534188866,14.670000076293945,14.65999984741211,14.729999542236328,14.739999771118164,11.912175319351388,11.904055041297227,11.96089543889168,11.96901571694584,11.936535379121533,0.015456677832209624,0.30000001192092896,6.0,0.0,0.0,0.0,0.0,0.0,,,,,
pylon_camera_1771860435703812408.png,1771860435703812408,1771860435.7038124,42.30097575111588,-83.6976307343219,238.46060180664062,-0.00946158823649873,-0.999537689067554,-0.01059612726468829,-0.026881379587507307,0.03289,-0.015030000000000003,-0.0070100000000000015,-1.4426,1.6891,-11.014100000000001,5.256652682189063,11.758816650896005,14.639999389648438,14.739999771118164,14.84999942779541,14.670000076293945,11.887814485188905,11.96901571694584,12.058336452364598,11.912175319351388,11.956835493462684,0.016840031479833487,0.30000001192092896,5.950000286102295,0.0,0.0,0.0,0.0,0.0,,,,,
pylon_camera_1771860435753683523.png,1771860435753683523,1771860435.7536836,42.30097576507968,-83.69763457300053,238.45697021484375,-0.009158820842097182,-0.9995285729897998,-0.00999623312712023,-0.027546743927827633,0.013080000000000001,-0.035980000000000005,-0.01012,-1.0273,-0.1955,-9.285400000000001,5.2743533595060486,11.79841200401346,14.6899995803833,14.6899995803833,14.949999809265137,14.710000038146973,11.928415101067372,11.928415101067372,12.139537684121532,11.944655657175694,11.985255885857994,0.015836358467645854,0.5,6.050000190734863,0.0,0.0,0.0,0.0,0.0,,,,,
pylon_camera_1771860435804472704.png,1771860435804472704,1771860435.804473,42.30097577178923,-83.69763713293706,238.45364379882812,-0.009143244559434383,-0.999520829632291,-0.009955210427313127,-0.027846112752964575,-0.014390000000000002,-0.01963,0.0017000000000000001,-0.4691,-0.7197,-9.057400000000001,5.283792010438443,11.819525699830171,14.710000038146973,14.75999927520752,14.84999942779541,14.699999809265137,11.944655657175694,11.985255498661825,12.058336452364598,11.936535379121532,11.981195746830911,0.013678217815716846,0.699999988079071,6.275000095367432,0.0,0.0,0.0,0.0,0.0,,,,,
pylon_camera_1771860435854356334.png,1771860435854356334,1771860435.8543563,42.3009757698205,-83.69764097025838,238.44680786132812,-0.009285873231818342,-0.9995136306318526,-0.010412767530668082,-0.027889944636151045,0.013410000000000002,0.0027700000000000003,0.0023300000000000005,-0.9331,1.3222,-8.2065,5.2766448394101495,11.80353790707014,15.0,14.779999732971191,14.84999942779541,14.84999942779541,12.180138300000001,12.001496054770147,12.058336452364598,12.058336452364598,12.074576814874836,0.022962514285005006,0.800000011920929,6.400000095367432,0.0,0.0,0.0,0.0,0.0,,,,,
pylon_camera_1771860435905455681.png,1771860435905455681,1771860435.9054556,42.30097577362704,-83.69764352745219,238.44146728515625,-0.009321425453320042,-0.9995292013287703,-0.010169506007875797,-0.027405617419505344,-0.00021000000000000004,0.012190000000000003,-0.0039700000000000004,-0.6051000000000001,-0.4101,-10.0465,5.288925148106701,11.831008220805804,14.529999732971191,14.90999984741211,14.889999389648438,14.789999961853027,11.798493749770145,12.107057346297227,12.090816790188905,12.009616332824306,12.001496054770145,0.014410254036044352,0.5,6.450000286102295,0.0,0.0,0.0,0.0,0.0,,,,,
pylon_camera_1771860435955563511.png,1771860435955563511,1771860435.9555635,42.300975782778515,-83.69764736440791,238.4336700439453,-0.00925504890150014,-0.9995554670165245,-0.009522219061518402,-0.02669344060537899,0.028870000000000003,0.01795,-0.0016600000000000002,-0.6846,0.20950000000000002,-10.4571,5.288142109155687,11.829256609654722,15.069999694824219,14.880000114440918,14.869999885559082,14.84999942779541,12.236978697594452,12.082697286527083,12.07457700847292,12.058336452364598,12.113147361239763,0.02399903569200932,1.2000000476837158,7.474999904632568,0.0,0.0,0.0,0.0,0.0,,,,,
pylon_camera_1771860436006407284.png,1771860436006407284,1771860436.0064073,42.30097578658263,-83.69764993428424,238.4286346435547,-0.009219862246799881,-0.9995716353323377,-0.009720696293133876,-0.02602014686281656,-0.04014000000000001,0.013600000000000001,0.0040100000000000005,-0.10640000000000001,-0.42810000000000004,-10.0733,5.317948687533022,11.895932137090119,14.569999694824219,15.039999961853027,14.9399995803833,14.960000038146973,11.830974087594452,12.212618637824306,12.131417406067373,12.147657962175694,12.080667023415456,0.015529248502465445,1.2000000476837158,7.349999904632568,0.0,0.0,0.0,0.0,0.0,,,,,
pylon_camera_1771860436056435793.png,1771860436056435793,1771860436.0564358,42.30097578328022,-83.6976538076371,238.42181396484375,-0.009016247932232935,-0.9995572441602396,-0.011083806685540692,-0.02609927488206022,-0.06080000000000001,-0.026910000000000007,-0.0038800000000000006,0.40390000000000004,0.1044,-10.0089,5.35414211953122,11.976894672864168,14.84999942779541,14.769999504089355,14.949999809265137,15.029999732971191,12.058336452364598,11.993375776715984,12.139537684121532,12.204498359770147,12.098937068243066,0.010189819541070799,0.9000000357627869,7.175000190734863,0.0,0.0,0.0,0.0,0.0,,,,,
pylon_camera_1771860436107281916.png,1771860436107281916,1771860436.107282,42.300975778446585,-83.69765640306896,238.41737365722656,-0.008776344745930642,-0.9995328331619657,-0.011814091248301663,-0.026786534902658653,-0.027120000000000005,-0.037290000000000004,-0.0063300000000000006,-0.08660000000000001,0.3623,-9.2071,5.373315587229391,12.019784569696915,14.929999351501465,14.889999389648438,14.929999351501465,14.960000038146973,12.123297128013212,12.090816790188905,12.123297128013212,12.147657962175694,12.121267252097756,0.008442970155778716,0.0,7.200000286102295,0.0,0.0,0.0,0.0,0.0,,,,,
pylon_camera_1771860436157325929.png,1771860436157325929,1771860436.1573257,42.300975770201035,-83.69766031140134,238.40957641601562,-0.008617182570672732,-0.9995222222473082,-0.011710764393856977,-0.027275069122875487,0.004760000000000001,-0.01606,-0.00417,-0.12610000000000002,-0.0304,-9.2222,5.378723398069985,12.031881518078674,14.960000038146973,15.039999961853027,14.960000038146973,15.0,12.147657962175694,12.212618637824306,12.147657962175694,12.180138300000001,12.172018215543924,0.011647114148746035,-0.10000000149011612,7.5,0.0,0.0,0.0,0.0,0.0,,,,,
pylon_camera_1771860436208446274.png,1771860436208446274,1771860436.2084463,42.300975767015274,-83.6976629200888,238.4033660888672,-0.008560220052923173,-0.9995225296001427,-0.011526211347183948,-0.027360224895953463,-0.0014200000000000003,0.0012300000000000002,-0.0006000000000000001,-0.3047,-0.22740000000000002,-9.562100000000001,5.383213220519526,12.041924981508949,15.139999389648438,15.029999732971191,15.029999732971191,15.059999465942383,12.293819095188905,12.204498359770147,12.204498359770147,12.228858419540291,12.232918558567373,0.01586071806224554,0.5,7.650000095367432,0.0,0.0,0.0,0.0,0.0,,,,,
pylon_camera_1771860436258345093.png,1771860436258345093,1771860436.2583451,42.30097576573319,-83.69766683774208,238.39337158203125,-0.00856044078164081,-0.999531308406273,-0.011629590594292735,-0.026993239743999652,-0.00223,0.019410000000000004,0.0006000000000000001,-0.3346,0.3083,-9.7604,5.392806093393042,12.063383662554632,15.119999885559082,15.139999389648438,15.089999198913574,15.029999732971191,12.27757931347292,12.293819095188905,12.253218479310437,12.204498359770147,12.257278811935603,0.016073031813025367,1.7000000476837158,7.224999904632568,0.0,0.0,0.0,0.0,0.0,,,,,
pylon_camera_1771860436309388338.png,1771860436309388338,1771860436.3093884,42.30097577525618,-83.69766945930088,238.3869171142578,-0.008481480793974483,-0.9995494416282964,-0.01120963880358398,-0.02652022288736806,0.033280000000000004,0.015150000000000002,-0.005740000000000001,-0.2788,0.5008,-10.1574,5.407071096796487,12.095293619267933,15.179999351501465,15.139999389648438,15.179999351501465,15.15999984741211,12.326299433013212,12.293819095188905,12.326299433013212,12.310059651297227,12.314119403128139,0.018091812464280658,2.4000000953674316,0.0,0.0,0.0,0.0,0.0,0.0,,,,,
pylon_camera_1771860436359370082.png,1771860436359370082,1771860436.35937,42.30097579858509,-83.69767340333031,238.37828063964844,-0.00827878214511163,-0.9995743610839682,-0.009960788907983754,-0.026140794060264465,0.056620000000000004,0.015640000000000005,-0.012630000000000002,0.09680000000000001,-0.261,-10.236600000000001,5.426107953657609,12.137877925854852,15.359999656677246,15.179999351501465,15.229999542236328,15.1899995803833,12.472461340418759,12.326299433013212,12.36690004889168,12.33441971106737,12.375020133347755,0.01953736962436963,2.299999952316284,0.0,0.0,0.0,0.0,0.0,0.0,,,,,
pylon_camera_1771860436411027844.png,1771860436411027844,1771860436.411028,42.300975827868754,-83.69767736742047,238.372314453125,-0.008062208828194695,-0.9995806931115687,-0.009139180858012646,-0.026266216336788606,0.03728000000000001,-0.0032000000000000006,-0.010460000000000002,-0.8318000000000001,1.0268000000000002,-10.419400000000001,5.439683105386343,12.168244725762927,15.170000076293945,15.1899995803833,15.399999618530273,15.239999771118164,12.318179929351386,12.33441971106737,12.504941678243066,12.375020326945839,12.383140411401914,0.017660368482235147,2.200000047683716,0.0,0.0,0.0,0.0,0.0,0.0,,,,,
pylon_camera_1771860436460974448.png,1771860436460974448,1771860436.4609745,42.300975844708766,-83.69768001925216,238.36949157714844,-0.007763787995965111,-0.9995803218125852,-0.008125897164882724,-0.0266996935613185,0.00858,-0.030420000000000006,0.0033100000000000004,0.0695,-0.0413,-10.0251,5.471679521999299,12.239818789941113,15.119999885559082,15.210000038146973,15.139999389648438,15.299999237060547,12.27757931347292,12.350660267175694,12.293819095188905,12.42374044648613,12.336449780580912,0.007894805658333096,2.1000001430511475,0.0,0.0,0.0,0.0,0.0,0.0,,,,,
pylon_camera_1771860436512260059.png,1771860436512260059,1771860436.5122602,42.300975864902526,-83.69768401226281,238.36813354492188,-0.007378338668112162,-0.999559027077402,-0.007299576197533828,-0.027821353200598562,0.004470000000000001,-0.05394000000000001,-0.012110000000000003,0.1849,-2.2353,-10.3994,5.482406398509842,12.263814169082607,14.819999694824219,15.25999927520752,15.399999618530273,15.339999198913574,12.033976392594452,12.391260108661823,12.504941678243066,12.456220784310437,12.346599740952446,0.006750393534055874,2.1000001430511475,0.0,0.0,0.0,0.0,0.0,0.0,,,,,
pylon_camera_1771860436561747464.png,1771860436561747464,1771860436.5617476,42.30097586022321,-83.69768667692264,238.36639404296875,-0.007253414363862954,-0.9995305542544541,-0.007875843617377814,-0.028705925854505276,-0.037110000000000004,-0.02289,-0.0038900000000000002,-0.9398000000000001,-1.7584000000000002,-7.6429,5.471471162542493,12.239352702337806,15.170000076293945,15.329999923706055,15.469999313354492,15.489999771118164,12.318179929351386,12.448101280648613,12.561782075837517,12.578022631945839,12.47652147944584,0.01937755883632086,2.1000001430511475,0.0,0.0,0.0,0.0,0.0,0.0,,,,,
pylon_camera_1771860436612792636.png,1771860436612792636,1771860436.6127925,42.30097582814696,-83.6976906653669,238.35801696777344,-0.0073221277966292195,-0.9995154431339077,-0.00955679877213223,-0.028704232764299866,-0.038000000000000006,0.018540000000000004,0.005420000000000001,-1.4369,0.5255000000000001,-7.9496,5.467242615884055,12.229893697175678,15.769999504089355,15.25999927520752,15.389999389648438,15.460000038146973,12.805384996715986,12.391260108661823,12.496821400188903,12.553662572175694,12.561782269435604,0.027137486267486598,1.3000000715255737,0.0,0.0,0.0,0.0,0.0,0.0,,,,,
pylon_camera_1771860436663040410.png,1771860436663040410,1771860436.6630404,42.300975799054875,-83.69769332841412,238.3495635986328,-0.007441286801915859,-0.999514105243183,-0.010694213041518675,-0.02831632882408398,-0.04922000000000001,0.00562,0.012770000000000002,-0.9049,1.7322000000000002,-9.4311,5.494190865741809,12.290175315212482,15.5,15.399999618530273,15.369999885559082,15.269999504089355,12.586142910000001,12.504941678243066,12.480581618472918,12.399380386715984,12.492761648357993,0.016483599944644798,0.30000001192092896,0.0,0.0,0.0,0.0,0.0,0.0,,,,,
pylon_camera_1771860436714124103.png,1771860436714124103,1771860436.714124,42.300975756011525,-83.69769733209205,238.33612060546875,-0.0073819923208454106,-0.9995081505753226,-0.011507673176200727,-0.028222979660958224,-0.036770000000000004,-0.005200000000000001,-0.0027,-0.6454000000000001,0.8733000000000001,-9.8727,5.5099063957900345,12.325330012998561,15.429999351501465,15.399999618530273,15.339999198913574,15.40999984741211,12.529301738013212,12.504941678243066,12.456220784310437,12.513061956297227,12.500881539215985,0.014243150165738638,0.0,0.0,0.0,0.0,0.0,0.0,0.0,,,,,
pylon_camera_1771860436764165163.png,1771860436764165163,1771860436.7641652,42.30097573257925,-83.69770000914681,238.3274688720703,-0.007297360419139643,-0.9994867318969045,-0.012657728442086534,-0.0285097036751551,-0.047040000000000005,-0.01631,-0.004790000000000001,-0.6347,0.6765,-10.4269,5.51977087444413,12.347396259879053,15.380000114440918,15.429999351501465,15.309999465942383,15.389999389648438,12.48870189652708,12.529301738013212,12.431860724540291,12.496821400188903,12.486671439817371,0.011279720599141304,1.0,0.0,0.0,0.0,0.0,0.0,0.0,,,,,
pylon_camera_1771860436815575726.png,1771860436815575726,1771860436.8155758,42.30097571629324,-83.69770402995451,238.31619262695312,-0.007031135909854992,-0.999467334317152,-0.01338700019989461,-0.028920563383714588,0.0016300000000000002,-0.016450000000000003,-0.007510000000000001,-0.8692000000000001,1.2228,-10.606900000000001,5.518814273166776,12.34525640021769,15.529999732971191,15.5,15.289999961853027,15.389999389648438,12.610502969770145,12.586142910000001,12.415620942824306,12.496821400188903,12.527272055695839,0.014743772796403017,2.4000000953674316,0.0,0.0,0.0,0.0,0.0,0.0,,,,,
pylon_camera_1771860436865078668.png,1771860436865078668,1771860436.8650787,42.30097571955802,-83.69770671507914,238.3101806640625,-0.006699365620367271,-0.9994692847160951,-0.01262481594774093,-0.02927253715801732,0.042,-0.018780000000000005,-0.012040000000000002,-0.536,0.9667,-10.850200000000001,5.530424978506998,12.371228851421446,15.449999809265137,15.639999389648438,15.380000114440918,15.489999771118164,12.545542294121534,12.699823705188903,12.48870189652708,12.578022631945839,12.578022631945839,0.016715702458340056,3.5,0.0,0.0,0.0,0.0,0.0,0.0,,,,,
pylon_camera_1771860436916361852.png,1771860436916361852,1771860436.9163618,42.30097573458519,-83.69771074927725,238.3042449951172,-0.006323581341068974,-0.9994673443640543,-0.011530863523213156,-0.029867692500374122,0.016080000000000004,-0.023990000000000004,-0.015080000000000001,0.5449,-0.6932,-9.935,5.546630493472671,12.407479616068757,15.369999885559082,15.429999351501465,15.479999542236328,15.449999809265137,12.480581618472918,12.529301738013212,12.56990235389168,12.545542294121534,12.531332001124834,0.009982074433205401,3.799999952316284,0.0,0.0,0.0,0.0,0.0,0.0,,,,,
pylon_camera_1771860436966046996.png,1771860436966046996,1771860436.966047,42.300975747834954,-83.6977134414599,238.3013916015625,-0.005952966864925469,-0.9994490434528414,-0.01074827882977269,-0.03083255144977814,0.039950000000000006,-0.047610000000000006,-0.021430000000000005,-0.4222,-0.1439,-11.263200000000001,5.54696210486049,12.408221410846625,15.299999237060547,15.429999351501465,15.5,15.479999542236328,12.42374044648613,12.529301738013212,12.586142910000001,12.56990235389168,12.527271862097756,0.00959448153843085,3.799999952316284,0.0,0.0,0.0,0.0,0.0,0.0,,,,,
pylon_camera_1771860437017401553.png,1771860437017401553,1771860437.0174017,42.30097576734461,-83.69771749359468,238.29747009277344,-0.005675996497460035,-0.999423378162613,-0.009621803064911718,-0.03206423477289589,0.07527000000000002,-0.04354,-0.006070000000000001,-0.8073,2.5568,-8.6845,5.562632088180101,12.443274223333596,15.449999809265137,15.469999313354492,15.529999732971191,15.479999542236328,12.545542294121534,12.561782075837517,12.610502969770145,12.56990235389168,12.571932423405219,0.010339577651544756,3.799999952316284,0.0,0.0,0.0,0.0,0.0,0.0,,,,,
pylon_camera_1771860437067339428.png,1771860437067339428,1771860437.0673394,42.30097577122294,-83.69772020785638,238.2945556640625,-0.005419287760598413,-0.9993877344096492,-0.008260260446356065,-0.033564203090118476,0.04957000000000001,-0.0592,-0.007610000000000001,-0.0488,1.2351,-8.2873,5.580896084935242,12.484129688235042,15.529999732971191,15.380000114440918,15.429999351501465,15.420000076293945,12.610502969770145,12.48870189652708,12.529301738013212,12.521182234351388,12.537422209665456,0.004268821516700263,3.799999952316284,0.0,0.0,0.0,0.0,0.0,0.0,,,,,
pylon_camera_1771860437118287057.png,1771860437118287057,1771860437.118287,42.30097577430644,-83.69772426851686,238.28713989257812,-0.005189921025686607,-0.9993667084349104,-0.007364850782617154,-0.03442391268682084,-0.011250000000000001,-0.03504000000000001,0.00909,-1.4095,1.4906000000000001,-8.3398,5.5574730022430625,12.431733657637597,15.589999198913574,15.339999198913574,15.639999389648438,15.529999732971191,12.659223089310435,12.456220784310437,12.699823705188903,12.610502969770145,12.60644263714498,0.014053468672894861,3.6000001430511475,0.0,0.0,0.0,0.0,0.0,0.0,,,,,
pylon_camera_1771860437168366325.png,1771860437168366325,1771860437.1683664,42.300975762304,-83.6977269690816,238.27960205078125,-0.005072079797731167,-0.9993913493437085,-0.006872288313986268,-0.033822721901353964,-0.0074600000000000005,0.07629000000000001,-0.0012700000000000003,-1.5245,-0.3175,-8.5214,5.522668130938423,12.353877248821398,15.679999351501465,15.4399995803833,15.769999504089355,15.619999885559082,12.732304043013212,12.53742201606737,12.805384996715986,12.68358392347292,12.689673744817373,0.027181466128620574,3.700000047683716,0.0,0.0,0.0,0.0,0.0,0.0,,,,,
pylon_camera_1771860437219293392.png,1771860437219293392,1771860437.2192934,42.300975735800584,-83.69773100232675,238.26431274414062,-0.004960085987292196,-0.9994437274135439,-0.007077907165144405,-0.03221081357062787,-0.02528,0.08450000000000002,-0.013340000000000001,-0.3667,-2.5223,-9.3871,5.529614299813904,12.369415411825715,15.6899995803833,15.75999927520752,15.59999942779541,15.65999984741211,12.74042432106737,12.797264718661824,12.667343367364598,12.716064261297227,12.730274167097756,0.029173468855047402,3.700000047683716,0.0,0.0,0.0,0.0,0.0,0.0,,,,,
pylon_camera_1771860437269320639.png,1771860437269320639,1771860437.2693207,42.300975712738854,-83.69773369017003,238.25331115722656,-0.004804496588633523,-0.9994839750645439,-0.008110222695909464,-0.03070707881793333,-0.06022,0.04142000000000001,-0.0014200000000000003,-2.5325,-2.4928,-10.4435,5.52878340641365,12.367556753142951,15.489999771118164,16.19999885559082,15.619999885559082,15.639999389648438,12.578022631945839,13.154548434729195,12.68358392347292,12.699823705188903,12.778994673834216,0.03326751830645181,3.4000000953674316,0.0,0.0,0.0,0.0,0.0,0.0,,,,,
pylon_camera_1771860437320900576.png,1771860437320900576,1771860437.3209007,42.3009756550933,-83.69773772463829,238.2380828857422,-0.004705714674281381,-0.9995164556714092,-0.009944249107097817,-0.029083036312673952,-0.027420000000000007,0.00446,0.007170000000000001,-0.9500000000000001,0.1136,-12.6638,5.5628869732995945,12.443844386052795,15.789999961853027,15.769999504089355,15.639999389648438,15.649999618530273,12.821625552824306,12.805384996715986,12.699823705188903,12.707943983243066,12.758694559493065,0.0253016803869034,4.0,0.0,0.0,0.0,0.0,0.0,0.0,,,,,
pylon_camera_1771860437373575741.png,1771860437373575741,1771860437.3735757,42.30097559547092,-83.69774178214061,238.2278289794922,-0.004579974572660018,-0.9995220415009896,-0.010961586330832407,-0.028540427672335018,-0.0018900000000000002,-0.008690000000000002,-0.0037600000000000008,0.2606,1.6626,-11.057500000000001,5.588105584388123,12.50025690594117,15.589999198913574,15.670000076293945,15.639999389648438,15.630000114440918,12.659223089310435,12.724184539351388,12.699823705188903,12.691704201527081,12.693733883844452,0.015477840124335833,5.200000286102295,0.0,0.0,0.0,0.0,0.0,0.0,,,,,
pylon_camera_1771860437421925761.png,1771860437421925761,1771860437.4219258,42.30097556266132,-83.69774450158893,238.22332763671875,-0.004320454167331512,-0.9994958783819688,-0.011124609239064132,-0.029420500378522133,-5.000000000000001e-05,-0.052210000000000006,-0.013120000000000001,0.1052,1.137,-9.9674,5.612926542140905,12.555779899176677,15.549999237060547,15.479999542236328,15.619999885559082,15.630000114440918,12.62674275148613,12.56990235389168,12.68358392347292,12.691704201527081,12.642983307594454,0.006945280111472394,6.900000095367432,0.0,0.0,0.0,0.0,0.0,0.0,,,,,
pylon_camera_1771860437471627938.png,1771860437471627938,1771860437.471628,42.30097552854906,-83.69774859746606,238.21788024902344,-0.003907174036043294,-0.9994589490122909,-0.010973382760560934,-0.030759195390794598,0.0011500000000000002,-0.0627,-0.01837,-0.6754,0.9365,-9.1243,5.619297718551014,12.570031838535506,15.559999465942383,15.649999618530273,15.489999771118164,15.630000114440918,12.634863029540291,12.707943983243066,12.578022631945839,12.691704201527081,12.65313346156407,0.006611090894280898,7.599999904632568,0.0,0.0,0.0,0.0,0.0,0.0,,,,,
pylon_camera_1771860437522592183.png,1771860437522592183,1771860437.5225923,42.30097551490085,-83.69775132643916,238.2128143310547,-0.0032545427912062945,-0.9994435077546324,-0.010522032442975723,-0.031486022162305595,0.009130000000000001,-0.026850000000000002,-0.0318,-0.44010000000000005,-0.10210000000000001,-8.267900000000001,5.612446754927668,12.554706643967899,15.65999984741211,15.65999984741211,15.699999809265137,15.9399995803833,12.716064261297227,12.716064261297227,12.748544599121534,12.943426626067373,12.781024936945839,0.018026569588280885,7.5,0.0,0.0,0.0,0.0,0.0,0.0,,,,,
pylon_camera_1771860437572620660.png,1771860437572620660,1771860437.5726206,42.30097551917739,-83.69775540408747,238.19969177246094,-0.002529907455322445,-0.9994699311769969,-0.009068685823448733,-0.031164325417891586,0.07687000000000002,0.03898000000000001,-0.027140000000000004,-1.4428,0.2795,-7.683400000000001,5.6030265702312905,12.533634256013183,15.59999942779541,15.859999656677246,15.609999656677246,15.899999618530273,12.667343367364598,12.878465950418759,12.675463645418759,12.910946288243066,12.783054812861296,0.01990009854711136,7.400000095367432,0.0,0.0,0.0,0.0,0.0,0.0,,,,,
pylon_camera_1771860437623426511.png,1771860437623426511,1771860437.6234267,42.30097552376123,-83.69775812099465,238.1876678466797,-0.001794266668960654,-0.9995240223168905,-0.007272373486063022,-0.029926944422440368,0.08290000000000002,0.058460000000000005,-0.034690000000000006,0.6506000000000001,-0.7596,-11.5294,5.609574601000726,12.548281807962566,15.609999656677246,15.829999923706055,15.619999885559082,15.789999961853027,12.675463645418759,12.854105890648613,12.68358392347292,12.821625552824306,12.75869475309115,0.016768267428857595,7.5,0.0,0.0,0.0,0.0,0.0,0.0,,,,,
pylon_camera_1771860437673555220.png,1771860437673555220,1771860437.6735551,42.300975518155944,-83.69776220649803,238.17185974121094,-0.0011970879460707635,-0.9995532184906173,-0.006097080945104381,-0.02923621024426146,0.014960000000000003,0.00544,-0.027880000000000005,0.3971,-1.5729,-11.895000000000001,5.627663735523048,12.588746116540928,15.679999351501465,15.739999771118164,15.59999942779541,15.819999694824219,12.732304043013212,12.781024936945839,12.667343367364598,12.845985612594452,12.756664489979526,0.013338768760930209,7.700000286102295,0.0,0.0,0.0,0.0,0.0,0.0,,,,,
pylon_camera_1771860437724790642.png,1771860437724790642,1771860437.7247906,42.30097550997972,-83.69776493794339,238.1642303466797,-0.0007717947089800344,-0.9995493054118835,-0.005476499757364549,-0.02950590337468544,-0.0005400000000000001,-0.014530000000000003,-0.011460000000000001,-0.9312,-1.4568,-11.0097,5.635063895758136,12.605299830977206,15.789999961853027,15.869999885559082,15.679999351501465,15.789999961853027,12.821625552824306,12.88658622847292,12.732304043013212,12.821625552824306,12.815535344283687,0.01667834292920446,7.700000286102295,0.0,0.0,0.0,0.0,0.0,0.0,,,,,
pylon_camera_1771860437774467407.png,1771860437774467407,1771860437.7744672,42.30097547113337,-83.69776905038778,238.15834045410156,-0.00038020146697315203,-0.9995247533840228,-0.00534101584093913,-0.03035780573821953,-0.0037,-0.03135,-0.027930000000000007,-0.2675,-1.9339000000000002,-10.3672,5.652795860147405,12.644965171398137,15.719999313354492,15.719999313354492,15.769999504089355,15.339999198913574,12.764784380837519,12.764784380837519,12.805384996715986,12.456220784310437,12.697793635675366,0.004177826001191502,7.400000095367432,0.0,0.0,0.0,0.0,0.0,0.0,,,,,
pylon_camera_1771860437825773570.png,1771860437825773570,1771860437.8257735,42.30097543095495,-83.69777179625726,238.15811157226562,-0.00012607101740730398,-0.9994675488241971,-0.0060345875311567775,-0.03206535056378364,0.04113000000000001,-0.08311,-0.010270000000000001,1.2237,1.1963000000000001,-9.988100000000001,5.66641147696516,12.675422489282445,15.469999313354492,15.65999984741211,15.719999313354492,15.339999198913574,12.561782075837517,12.716064261297227,12.764784380837519,12.456220784310437,12.624712875570674,0.004000625127458083,6.900000095367432,0.0,0.0,0.0,0.0,0.0,0.0,,,,,
pylon_camera_1771860437875759829.png,1771860437875759829,1771860437.8757598,42.3009753588739,-83.69777592116166,238.1586151123047,0.00032647787959610904,-0.9994273170557202,-0.006824522877487681,-0.033141472847382454,-0.00863,-0.06433000000000001,-0.022220000000000004,-0.28040000000000004,1.6476000000000002,-7.972,5.647707770158001,12.63358341937724,15.630000114440918,15.59999942779541,15.84999942779541,15.829999923706055,12.691704201527081,12.667343367364598,12.870345672364598,12.854105890648613,12.770874782976222,0.010867175134839854,6.800000190734863,0.0,0.0,0.0,0.0,0.0,0.0,,,,,
pylon_camera_1771860437926814765.png,1771860437926814765,1771860437.9268148,42.30097530915553,-83.69777866124481,238.15554809570312,0.0007138366043322179,-0.9994201364995225,-0.0071238881488673855,-0.03328860787446802,-0.015300000000000001,0.0039700000000000004,-0.007450000000000001,-1.7951000000000001,0.9097000000000001,-6.815300000000001,5.630668497604883,12.595467589032268,15.75,15.75999927520752,15.819999694824219,15.960000038146973,12.789145215000001,12.797264718661824,12.845985612594452,12.959667182175693,12.848015682107993,0.020050711995451175,7.0,0.0,0.0,0.0,0.0,0.0,0.0,,,,,
pylon_camera_1771860437976372639.png,1771860437976372639,1771860437.9763727,42.30097524299713,-83.69778276150377,238.14569091796875,0.00121494121292992,-0.9994487008164012,-0.007404668191372655,-0.03234175695958153,-0.01114,0.05426000000000001,-0.012320000000000001,0.1661,-0.40750000000000003,-9.8259,5.6393874631307,12.614971391775589,15.819999694824219,15.899999618530273,15.739999771118164,15.960000038146973,12.845985612594452,12.910946288243066,12.781024936945839,12.959667182175693,12.874406004989762,0.02056561248987956,7.099999904632568,0.0,0.0,0.0,0.0,0.0,0.0,,,,,
pylon_camera_1771860438027587719.png,1771860438027587719,1771860438.027588,42.30097519947373,-83.69778549204936,238.13619995117188,0.0017171322547804284,-0.9994799923333477,-0.0077019058390957185,-0.03126462903340523,-0.024640000000000002,0.027570000000000004,-0.015640000000000005,0.188,-0.44620000000000004,-9.411900000000001,5.645234940570665,12.628051847960144,15.799999237060547,15.90999984741211,15.829999923706055,15.9399995803833,12.82974505648613,12.919066566297225,12.854105890648613,12.943426626067373,12.886586034874835,0.020473006448453318,7.099999904632568,0.0,0.0,0.0,0.0,0.0,0.0,,,,,
pylon_camera_1771860438077583541.png,1771860438077583541,1771860438.0775836,42.30097513597636,-83.69778960174246,238.12051391601562,0.002165470435476823,-0.9995084374211352,-0.007760458129399567,-0.030298012333739653,0.00103,0.038200000000000005,-0.014780000000000003,-0.6264000000000001,0.6238,-9.2817,5.644703337740856,12.626862684326031,15.769999504089355,16.0,15.960000038146973,15.880000114440918,12.805384996715986,12.99214752,12.959667182175693,12.894706506527081,12.91297655135469,0.02265914140206954,7.0,0.0,0.0,0.0,0.0,0.0,0.0,,,,,
pylon_camera_1771860438128390735.png,1771860438128390735,1771860438.1283906,42.300975097336995,-83.69779235454784,238.11029052734375,0.002717469539027572,-0.999515006724079,-0.007274613332334064,-0.030157033898148437,0.034710000000000005,-0.045040000000000004,-0.023620000000000006,-1.2659,-0.17020000000000002,-11.581900000000001,5.68305252603313,12.71264751758455,15.479999542236328,15.710000038146973,15.839999198913574,15.989999771118164,12.56990235389168,12.756664877175693,12.862225394310435,12.98402724194584,12.793204966830912,0.006336795630881133,7.0,0.0,0.0,0.0,0.0,0.0,0.0,,,,,
pylon_camera_1771860438178305270.png,1771860438178305270,1771860438.1783054,42.30097504131918,-83.6977964813237,238.0970458984375,0.0032588566561523305,-0.9995237373684291,-0.006747122588243615,-0.02993584184755121,0.024620000000000003,-0.03459,-0.03230000000000001,-0.1608,-0.5833,-10.3427,5.680226854723696,12.706326660405624,15.829999923706055,15.719999313354492,15.75999927520752,15.869999885559082,12.854105890648613,12.764784380837519,12.797264718661824,12.88658622847292,12.825685304655218,0.009393638888690738,7.0,0.0,0.0,0.0,0.0,0.0,0.0,,,,,
pylon_camera_1771860438229450541.png,1771860438229450541,1771860438.2294505,42.30097500385306,-83.69779922250832,238.08934020996094,0.0037471360198565997,-0.9995507627954374,-0.006339501873961527,-0.029052405798792823,0.019020000000000002,0.008660000000000001,-0.016800000000000002,-0.4298,0.7797000000000001,-9.2269,5.654699490296552,12.64922347782397,15.869999885559082,15.869999885559082,15.929999351501465,15.90999984741211,12.88658622847292,12.88658622847292,12.93530634801321,12.919066566297225,12.906886342814069,0.020369856334803593,7.200000286102295,0.0,0.0,0.0,0.0,0.0,0.0,,,,,
pylon_camera_1771860438279428238.png,1771860438279428238,1771860438.2794282,42.300974941916714,-83.69780331574198,238.0789794921875,0.0041455089646148515,-0.9996047963108654,-0.005925720404019983,-0.027165267998508737,0.028100000000000003,0.08729,-0.016620000000000003,0.5681,0.42310000000000003,-9.905700000000001,5.618041566559943,12.567221901900599,16.06999969482422,15.9399995803833,15.929999351501465,15.899999618530273,13.048987917594452,12.943426626067373,12.93530634801321,12.910946288243066,12.959666794979526,0.031227656847499147,7.700000286102295,0.0,0.0,0.0,0.0,0.0,0.0,,,,,
pylon_camera_1771860438330454077.png,1771860438330454077,1771860438.330454,42.30097486464894,-83.69780740481892,238.07098388671875,0.004581896982729038,-0.999658462305875,-0.005373348065567449,-0.025161321325783463,0.026370000000000005,0.07996,-0.024630000000000006,0.2894,-0.5287000000000001,-10.601,5.611550320438924,12.552701373802647,15.989999771118164,16.049999237060547,15.769999504089355,16.06999969482422,12.98402724194584,13.03274736148613,12.805384996715986,13.048987917594452,12.967786879435602,0.033067424554465576,7.5,0.0,0.0,0.0,0.0,0.0,0.0,,,,,
pylon_camera_1771860438380755951.png,1771860438380755951,1771860438.380756,42.30097480896348,-83.69781012962542,238.0670623779297,0.004920707347616903,-0.9996946007765648,-0.005952243544370826,-0.0234747228774277,-0.03674,0.06302,-0.024190000000000003,-0.6950000000000001,0.799,-10.5798,5.623400880363326,12.57921036531994,15.979999542236328,15.609999656677246,15.90999984741211,16.06999969482422,12.975906963891678,12.675463645418759,12.919066566297225,13.048987917594452,12.90485627330053,0.025887627166040126,7.5,0.0,0.0,0.0,0.0,0.0,0.0,,,,,
pylon_camera_1771860438432197693.png,1771860438432197693,1771860438.4321976,42.30097470837479,-83.69781423436551,238.06259155273438,0.005337126499013466,-0.999710183388434,-0.007158097679678074,-0.022356787510848564,-0.06014000000000001,0.04812,-0.021680000000000005,-0.6047,-1.2852000000000001,-9.775,5.6330432419709755,12.600779749694555,15.75,16.719999313354492,15.9399995803833,15.899999618530273,12.789145215000001,13.576793600837517,12.943426626067373,12.910946288243066,13.055077932536989,0.03605318018938046,6.900000095367432,0.0,0.0,0.0,0.0,0.0,0.0,,,,,
pylon_camera_1771860438485049218.png,1771860438485049218,1771860438.4850492,42.300974637948286,-83.69781697246788,238.05902099609375,0.005877629025478115,-0.9997215051545052,-0.007641941335780123,-0.02153987793071359,0.018990000000000003,0.03715000000000001,-0.00954,-1.887,-0.28350000000000003,-9.403,5.6159068492681055,12.562446667401797,15.9399995803833,16.229999542236328,15.84999942779541,15.90999984741211,12.943426626067373,13.178909268891678,12.870345672364598,12.919066566297225,12.977937033405219,0.03307400039210311,6.5,0.0,0.0,0.0,0.0,0.0,0.0,,,,,
pylon_camera_1771860438533285737.png,1771860438533285737,1771860438.5332856,42.30097454555801,-83.69782105923291,238.05059814453125,0.006320245749694198,-0.9997483599315624,-0.007370457975005952,-0.020222454278677037,0.03939000000000001,0.04976000000000001,-0.014000000000000002,-1.6322,2.4324,-8.587100000000001,5.606088661040354,12.54048396942761,16.270000457763672,15.989999771118164,15.869999885559082,15.960000038146973,13.211390381108323,12.98402724194584,12.88658622847292,12.959667182175693,13.010417758425694,0.03747333756366448,7.099999904632568,0.0,0.0,0.0,0.0,0.0,0.0,,,,,
pylon_camera_1771860438582799461.png,1771860438582799461,1771860438.5827994,42.30097449314509,-83.6978237759706,238.04290771484375,0.006836446992745215,-0.9997938728818407,-0.006243645556763629,-0.01806907940672568,0.028690000000000007,0.08971000000000001,-0.010720000000000002,-1.3674000000000002,1.4077000000000002,-8.6426,5.592529464174329,12.510152859590125,16.260000228881836,15.9399995803833,15.84999942779541,15.979999542236328,13.203270103054162,12.943426626067373,12.870345672364598,12.975906963891678,12.998237341344453,0.03901506937864219,8.100000381469727,0.0,0.0,0.0,0.0,0.0,0.0,,,,,
pylon_camera_1771860438633745642.png,1771860438633745642,1771860438.6337457,42.30097442021111,-83.69782785692668,238.03009033203125,0.0073155999833578456,-0.9998285249811174,-0.0057092085042007015,-0.016025216666935644,-0.014450000000000003,0.07374000000000001,-0.009190000000000002,-1.4253,0.9773000000000001,-8.6682,5.610495035481544,12.550340764670086,15.899999618530273,15.989999771118164,15.889999389648438,15.619999885559082,12.910946288243066,12.98402724194584,12.902826010188903,12.68358392347292,12.870345865962683,0.025497722117110145,9.100000381469727,0.0,0.0,0.0,0.0,0.0,0.0,,,,,
pylon_camera_1771860438683595427.png,1771860438683595427,1771860438.6835954,42.30097436496706,-83.6978305878647,238.02073669433594,0.007894052308783261,-0.9998488053286911,-0.006028515385482332,-0.014272610944831638,-0.008000000000000002,0.05985000000000001,4e-05,0.0123,3.325,-14.1721,5.618400236523481,12.568024225088836,15.809999465942383,16.0,15.649999618530273,15.460000038146973,12.837865334540291,12.99214752,12.707943983243066,12.553662572175694,12.772904852489763,0.0163017371491006,9.100000381469727,0.0,0.0,0.0,0.0,0.0,0.0,,,,,
pylon_camera_1771860438734419734.png,1771860438734419734,1771860438.7344198,42.3009742809087,-83.69783468418532,238.0128936767578,0.00848483323285304,-0.9998504713093291,-0.005777612137863317,-0.013916243225366626,0.00131,-0.019260000000000003,-0.009770000000000003,1.721,0.5151,-10.0671,5.644813534174743,12.627109187136849,15.75999927520752,15.899999618530273,15.569999694824219,15.609999656677246,12.797264718661824,12.910946288243066,12.642983307594454,12.675463645418759,12.756664489979526,0.010260092070373015,8.699999809265137,0.0,0.0,0.0,0.0,0.0,0.0,,,,,
pylon_camera_1771860438784586463.png,1771860438784586463,1771860438.7845864,42.30097421937189,-83.69783743353179,238.011962890625,0.009029616020899411,-0.9998281404788465,-0.005584049059928965,-0.015197826726981195,-0.0048200000000000005,-0.08809000000000002,-0.013190000000000002,0.029900000000000003,0.47100000000000003,-11.566500000000001,5.648650331747821,12.635691873099972,15.609999656677246,15.769999504089355,15.679999351501465,15.679999351501465,12.675463645418759,12.805384996715986,12.732304043013212,12.732304043013212,12.736364182040294,0.007967296919818229,8.600000381469727,0.0,0.0,0.0,0.0,0.0,0.0,,,,,
pylon_camera_1771860438835769744.png,1771860438835769744,1771860438.83577,42.30097412211614,-83.69784155209133,238.01687622070312,0.009702275414851746,-0.9997874535482032,-0.005494593629916737,-0.017341367311026177,-0.019040000000000005,-0.05713000000000001,-0.012410000000000001,-0.9690000000000001,1.1773,-10.449,5.641351546912057,12.619364929349459,15.569999694824219,15.639999389648438,15.619999885559082,15.670000076293945,12.642983307594454,12.699823705188903,12.68358392347292,12.724184539351388,12.687643868901915,0.005410647836457838,8.699999809265137,0.0,0.0,0.0,0.0,0.0,0.0,,,,,
pylon_camera_1771860438885420538.png,1771860438885420538,1771860438.8854206,42.30097403614473,-83.69784429131538,238.021240234375,0.010123663996348009,-0.9997487082636043,-0.00639481317469878,-0.018950939739338736,-0.08254000000000002,-0.009470000000000001,0.011160000000000002,0.0241,2.0543,-8.3292,5.621620961658063,12.575228793971387,15.609999656677246,15.519999504089355,15.649999618530273,15.9399995803833,12.675463645418759,12.602382691715986,12.707943983243066,12.943426626067373,12.732304236611297,0.012490861614797183,8.800000190734863,0.0,0.0,0.0,0.0,0.0,0.0,,,,,
pylon_camera_1771860438936926110.png,1771860438936926110,1771860438.9369261,42.30097390419663,-83.69784839392558,238.0242919921875,0.010572720919797274,-0.999715074730164,-0.007657192279919652,-0.01998385188103715,-0.11287000000000001,-0.00017,-0.00229,-0.9948,-1.5564,-7.5783000000000005,5.599463972551403,12.525664938759137,15.559999465942383,15.559999465942383,15.719999313354492,15.619999885559082,12.634863029540291,12.634863029540291,12.764784380837519,12.68358392347292,12.679523590847754,0.012283471802963578,8.5,0.0,0.0,0.0,0.0,0.0,0.0,,,,,
pylon_camera_1771860438986865969.png,1771860438986865969,1771860438.986866,42.30097381646904,-83.697851123591,238.02369689941406,0.010943927039143486,-0.9996949935546634,-0.008523835321842702,-0.020432683477936992,0.037070000000000006,-0.010380000000000002,-0.022750000000000003,-0.8952,0.6746,-8.716000000000001,5.611844611628342,12.553359685535904,15.679999351501465,15.65999984741211,15.460000038146973,15.369999885559082,12.732304043013212,12.716064261297227,12.553662572175694,12.480581618472918,12.620653123739762,0.005360591896478078,7.900000095367432,0.0,0.0,0.0,0.0,0.0,0.0,,,,,
pylon_camera_1771860439038096659.png,1771860439038096659,1771860439.0380967,42.300973691266115,-83.69785520950845,238.02110290527344,0.011460050215921336,-0.9996816988140673,-0.008473685978103959,-0.02081741941772308,0.10268000000000001,-0.04789,-0.035070000000000004,0.9031,3.2741000000000002,-11.3208,5.6105872222446145,12.55054698092787,15.589999198913574,15.639999389648438,15.449999809265137,15.479999542236328,12.659223089310435,12.699823705188903,12.545542294121534,12.56990235389168,12.618622860628138,0.005424136478172493,7.800000190734863,0.0,0.0,0.0,0.0,0.0,0.0,,,,,
pylon_camera_1771860439087710433.png,1771860439087710433,1771860439.0877104,42.30097362798236,-83.69785794132935,238.02151489257812,0.012118744731116293,-0.9996556369320628,-0.007924242413651176,-0.021884925365728853,0.04957000000000001,-0.0539,-0.03271,1.3611,1.3473000000000002,-9.1402,5.604463335355676,12.536848213390526,15.460000038146973,15.649999618530273,15.299999237060547,15.529999732971191,12.553662572175694,12.707943983243066,12.42374044648613,12.610502969770145,12.573962492918758,0.0029604154805504394,8.5,0.0,0.0,0.0,0.0,0.0,0.0,,,,,
pylon_camera_1771860439138780888.png,1771860439138780888,1771860439.1387808,42.300973514470655,-83.6978620356911,238.02420043945312,0.012897962272623409,-0.9996184967488186,-0.007742880184711639,-0.023163577730807246,-0.015640000000000005,-0.026140000000000004,-0.033120000000000004,0.2117,-1.7213,-8.282,5.583434266559669,12.489807448237986,15.359999656677246,15.59999942779541,15.489999771118164,15.639999389648438,12.472461340418759,12.667343367364598,12.578022631945839,12.699823705188903,12.604412761229526,0.009175907111979336,9.5,0.0,0.0,0.0,0.0,0.0,0.0,,,,,
pylon_camera_1771860439197219294.png,1771860439197219294,1771860439.1972194,42.30097340365787,-83.6978660981248,238.0229034423828,0.013632824961196499,-0.999598564446656,-0.00793173821052288,-0.023536005793711547,-0.015250000000000001,0.012320000000000001,-0.020220000000000002,-1.741,0.18280000000000002,-10.3228,5.537220194716661,12.386429342369489,15.869999885559082,15.619999885559082,15.40999984741211,15.639999389648438,12.88658622847292,12.68358392347292,12.513061956297227,12.699823705188903,12.695763953357993,0.02497367097799382,9.800000190734863,0.0,0.0,0.0,0.0,0.0,0.0,,,,,
pylon_camera_1771860439239515643.png,1771860439239515643,1771860439.2395155,42.3009733246947,-83.69786879916953,238.0205841064453,0.014141780274590954,-0.9996058930715086,-0.007345424885347691,-0.023110891818161016,0.012740000000000001,0.012240000000000003,-0.033920000000000006,-0.7293000000000001,-1.3989,-9.867,5.555922443692438,12.428265151193363,15.479999542236328,15.59999942779541,15.489999771118164,15.569999694824219,12.56990235389168,12.667343367364598,12.578022631945839,12.642983307594454,12.614562915199143,0.014989844659686145,9.600000381469727,0.0,0.0,0.0,0.0,0.0,0.0,,,,,
pylon_camera_1771860439289142578.png,1771860439289142578,1771860439.2891426,42.30097324443809,-83.69787149852436,238.018310546875,0.014586248032009141,-0.9995998523828591,-0.007296298218641979,-0.023111480195344373,-0.0033300000000000005,-0.011790000000000002,-0.02593,-0.4434,-0.38830000000000003,-9.5098,5.567970295012094,12.455215471724355,15.460000038146973,15.579999923706055,15.529999732971191,15.679999351501465,12.553662572175694,12.651103585648613,12.610502969770145,12.732304043013212,12.636893292651916,0.014586485584292253,9.40000057220459,0.0,0.0,0.0,0.0,0.0,0.0,,,,,
pylon_camera_1771860439339954961.png,1771860439339954961,1771860439.3399549,42.300973100428536,-83.69787556014731,238.0133819580078,0.01503279037228844,-0.999579494221148,-0.007700054822705174,-0.023570301269687847,-0.014260000000000002,-0.02858,-0.024530000000000003,-0.24700000000000003,-0.8581000000000001,-9.513200000000001,5.571338421697707,12.462749769032468,15.449999809265137,15.559999465942383,15.50999927520752,15.529999732971191,12.545542294121534,12.634863029540291,12.594262413661824,12.610502969770145,12.596292676773448,0.010715364603789763,9.40000057220459,0.0,0.0,0.0,0.0,0.0,0.0,,,,,
pylon_camera_1771860439390049225.png,1771860439390049225,1771860439.3900492,42.300972946775524,-83.6978796168952,238.006591796875,0.015516388223196453,-0.9995537721492027,-0.008518243325372932,-0.024061126520942416,-0.024450000000000003,-0.014140000000000002,-0.026750000000000003,-0.799,0.2417,-9.1789,5.560505597070077,12.438517390309938,15.469999313354492,15.589999198913574,15.519999504089355,15.579999923706055,12.561782075837517,12.659223089310435,12.602382691715986,12.651103585648613,12.618622860628138,0.014479657395382865,9.40000057220459,0.0,0.0,0.0,0.0,0.0,0.0,,,,,
pylon_camera_1771860439441204504.png,1771860439441204504,1771860439.4412045,42.300972841265015,-83.69788231701759,238.0009002685547,0.01607064056394536,-0.9995387043119074,-0.0092325806248529,-0.024059770351010028,-0.026720000000000004,0.011080000000000001,-0.022300000000000004,-0.8249000000000001,0.406,-9.59,5.548983398824983,12.412742924167558,15.549999237060547,15.579999923706055,15.469999313354492,15.579999923706055,12.62674275148613,12.651103585648613,12.561782075837517,12.651103585648613,12.622682999655218,0.016913270239320568,9.40000057220459,0.0,0.0,0.0,0.0,0.0,0.0,,,,,
pylon_camera_1771860439493981928.png,1771860439493981928,1771860439.4939818,42.30097268091495,-83.69788635248946,237.9920196533203,0.016651809206853163,-0.9995356478991025,-0.009838960301079228,-0.023545714880919544,-0.026300000000000004,0.025380000000000003,-0.021020000000000004,-0.8726,0.6124,-9.7972,5.536774491818162,12.385432331727719,15.529999732971191,15.65999984741211,15.5,15.59999942779541,12.610502969770145,12.716064261297227,12.586142910000001,12.667343367364598,12.645013377107993,0.020958577660249018,9.40000057220459,0.0,0.0,0.0,0.0,0.0,0.0,,,,,
pylon_camera_1771860439542145924.png,1771860439542145924,1771860439.542146,42.30097257173773,-83.69788904016104,237.9868621826172,0.0172274095196972,-0.999536880893532,-0.01013446698634312,-0.022946299783899636,-0.008910000000000001,0.0181,-0.019100000000000002,-0.4943,0.48050000000000004,-10.4657,5.540470699139185,12.39370052573241,15.59999942779541,15.449999809265137,15.5,15.529999732971191,12.667343367364598,12.545542294121534,12.586142910000001,12.610502969770145,12.60238288531407,0.01683777650979895,9.5,0.0,0.0,0.0,0.0,0.0,0.0,,,,,
pylon_camera_1771860439592187593.png,1771860439592187593,1771860439.5921876,42.300972405767126,-83.69789307568946,237.9806365966797,0.017760757210655786,-0.9995315755624643,-0.010288504957688363,-0.022700916780109503,-0.01017,0.005200000000000001,-0.020940000000000004,-0.2916,-0.1287,-10.1597,5.5428191683831285,12.398953910522957,15.40999984741211,15.559999465942383,15.489999771118164,15.559999465942383,12.513061956297227,12.634863029540291,12.578022631945839,12.634863029540291,12.590202661830913,0.015424587645708069,9.600000381469727,0.0,0.0,0.0,0.0,0.0,0.0,,,,,
pylon_camera_1771860439643479910.png,1771860439643479910,1771860439.6434798,42.30097229535501,-83.69789576292516,237.9774169921875,0.01829242840931322,-0.9995209614091864,-0.010705787929862692,-0.022552624489105246,-0.01716,0.003980000000000001,-0.023060000000000004,-0.2657,-0.2081,-10.251100000000001,5.538548398980348,12.3894004556151,15.50999927520752,15.769999504089355,15.479999542236328,15.559999465942383,12.594262413661824,12.805384996715986,12.56990235389168,12.634863029540291,12.651103198452445,0.02112311598732259,9.600000381469727,0.0,0.0,0.0,0.0,0.0,0.0,,,,,
pylon_camera_1771860439693081191.png,1771860439693081191,1771860439.6930811,42.300972129607175,-83.69789979710694,237.9742889404297,0.0188518094274297,-0.9995019757377819,-0.010856991329068196,-0.02285903578156837,0.0021200000000000004,-0.029750000000000002,-0.0233,-1.2841,-0.0881,-10.603,5.54297716425823,12.399307337815806,15.34999942779541,15.460000038146973,15.460000038146973,15.579999923706055,12.464341062364598,12.553662572175694,12.553662572175694,12.651103585648613,12.55569244809115,0.012612406968766416,9.699999809265137,0.0,0.0,0.0,0.0,0.0,0.0,,,,,
pylon_camera_1771860439744445296.png,1771860439744445296,1771860439.744445,42.30097201943183,-83.697902487089,237.97349548339844,0.0193946819944239,-0.9994839891347235,-0.010376131388726792,-0.023408068503813335,0.03302000000000001,-0.037000000000000005,-0.012400000000000001,-1.0207,0.5571,-10.9205,5.540167635378731,12.3930225902841,15.4399995803833,15.549999237060547,15.449999809265137,15.5,12.53742201606737,12.62674275148613,12.545542294121534,12.586142910000001,12.573962492918758,0.01460014304956666,9.90000057220459,0.0,0.0,0.0,0.0,0.0,0.0,,,,,
