image_filename,timestamp_ns,timestamp_sec,latitude,longitude,altitude,orientation_x,orientation_y,orientation_z,orientation_w,angular_velocity_x,angular_velocity_y,angular_velocity_z,linear_acceleration_x,linear_acceleration_y,linear_acceleration_z,vehicle_speed_mps,vehicle_speed_mph,wheel_speed_fl_rads,wheel_speed_fr_rads,wheel_speed_rl_rads,wheel_speed_rr_rads,wheel_speed_fl_mph,wheel_speed_fr_mph,wheel_speed_rl_mph,wheel_speed_rr_mph,avg_wheel_speed_mph,wheel_slip,steering_angle_deg,throttle_pedal,brake_pedal,brake_torque_actual,abs_active,esc_active,trac_active,marwis_road_condition,marwis_friction,marwis_surface_temp_c,marwis_ice_percent,marwis_water_film_height
pylon_camera_1771860617156225379.png,1771860617156225379,1771860617.1562252,42.30097096870884,-83.69729950038902,238.90541076660156,-0.03276757386727319,-0.9993359672821467,-0.009578851894018215,-0.012734056521836217,0.0009200000000000001,5.000000000000001e-05,-0.00039000000000000005,-0.25020000000000003,0.1925,-9.8032,-0.001426282338265301,0.003190508013759183,0.0,0.0,0.0,0.0,0.0,0.0,0.0,0.0,0.0,0.0,-0.6000000238418579,0.0,4892.0,4280.0,0.0,0.0,0.0,,,,,
pylon_camera_1771860617183659488.png,1771860617183659488,1771860617.1836596,42.30097096927664,-83.6972994999728,238.9054412841797,-0.032764220965800006,-0.9993361822475522,-0.009565839069517511,-0.01273559571779832,0.0016800000000000003,0.00012,0.00012,-0.2474,0.1887,-9.7901,-0.0016315167868659792,0.0036496051612119836,0.0,0.0,0.0,0.0,0.0,0.0,0.0,0.0,0.0,0.0,-0.6000000238418579,0.0,4892.0,4280.0,0.0,0.0,0.0,,,,,
pylon_camera_1771860617241496778.png,1771860617241496778,1771860617.2414968,42.30097097107491,-83.69729949436403,238.90518188476562,-0.032762368309885936,-0.99933640449626,-0.009563729307958862,-0.012724502070372026,0.0013700000000000001,0.00058,-0.0012700000000000003,-0.2594,0.1883,-9.7819,-0.0029379518054386787,0.006572021911657998,0.0,0.0,0.0,0.0,0.0,0.0,0.0,0.0,0.0,0.0,-0.6000000238418579,0.0,4892.0,4280.0,0.0,0.0,0.0,,,,,
pylon_camera_1771860617291681779.png,1771860617291681779,1771860617.2916818,42.300970972714715,-83.69729948809949,238.90487670898438,-0.03276541173281772,-0.9993363850327253,-0.009569034449866693,-0.012714201642293371,-0.0004300000000000001,-5.000000000000001e-05,0.0013000000000000002,-0.24500000000000002,0.20070000000000002,-9.8002,-0.0032231792090175186,0.0072100584998196484,0.0,0.0,0.0,0.0,0.0,0.0,0.0,0.0,0.0,0.0,-0.6000000238418579,0.0,4892.0,4280.0,0.0,0.0,0.0,,,,,
pylon_camera_1771860617343902527.png,1771860617343902527,1771860617.3439023,42.300970973953135,-83.69729948276475,238.9045867919922,-0.032759009064544764,-0.9993366722222398,-0.009562654410023423,-0.012712927181543595,-0.0010600000000000002,-0.0008700000000000001,-0.00055,-0.2222,0.2087,-9.810400000000001,-0.0025110486224763115,0.005617065105562161,0.0,0.0,0.0,0.0,0.0,0.0,0.0,0.0,0.0,0.0,-0.6000000238418579,0.0,4892.0,4280.0,0.0,0.0,0.0,,,,,
pylon_camera_1771860617387104407.png,1771860617387104407,1771860617.3871045,42.300970975187845,-83.69729947987057,238.9044952392578,-0.03275799453167022,-0.9993366402123707,-0.009553260528659964,-0.012725114403625752,0.00064,-0.0007600000000000002,-0.00011000000000000002,-0.198,0.19340000000000002,-9.7981,-0.0012144107140043881,0.0027165639025849763,0.0,0.0,0.0,0.0,0.0,0.0,0.0,0.0,0.0,0.0,-0.6000000238418579,0.0,4688.0,4280.0,0.0,0.0,0.0,,,,,
pylon_camera_1771860617436674438.png,1771860617436674438,1771860617.4366746,42.300970977258736,-83.6972994751897,238.90432739257812,-0.03276764714387037,-0.9993359817282568,-0.009565047211191235,-0.012743107773345539,0.00044000000000000007,-0.00046000000000000007,-1e-05,-0.2743,0.2049,-9.8116,-0.001606981845441453,0.003594721969341804,0.0,0.0,0.0,0.0,0.0,0.0,0.0,0.0,0.0,0.0,-0.6000000238418579,0.0,148.0,4252.0,0.0,0.0,0.0,,,,,
pylon_camera_1771860617484879934.png,1771860617484879934,1771860617.48488,42.300970978778786,-83.69729947231895,238.90428161621094,-0.0327651363207751,-0.9993360306238763,-0.009561399821472666,-0.012748465486089952,-0.0004700000000000001,-0.0015300000000000003,0.00109,-0.2783,0.20950000000000002,-9.782,-0.0034504625151227718,0.007718477618578734,0.0,0.0,0.0,0.0,0.0,0.0,0.0,0.0,0.0,0.0,-0.6000000238418579,0.0,0.0,3700.0,0.0,0.0,0.0,,,,,
pylon_camera_1771860617535691155.png,1771860617535691155,1771860617.5356913,42.30097098115842,-83.69729946653524,238.9040985107422,-0.03275830683396885,-0.9993364766684066,-0.009566695700931674,-0.012727060411279538,0.00026000000000000003,0.0009300000000000002,-0.0009200000000000001,-0.24300000000000002,0.1842,-9.8484,-0.0035673101004878613,0.007979858656185317,0.0,0.0,0.0,0.0,0.0,0.0,0.0,0.0,0.0,0.0,-0.6000000238418579,0.0,0.0,2552.0,0.0,0.0,0.0,,,,,
pylon_camera_1771860617585710006.png,1771860617585710006,1771860617.58571,42.3009709814535,-83.69729946239791,238.90365600585938,-0.03277267746740792,-0.9993359093936043,-0.009575488670965443,-0.012727993745567242,-0.0007300000000000002,-0.0016100000000000003,0.00103,-0.2751,0.2253,-9.772300000000001,-0.003844124595410953,0.008599076072458578,0.0,0.0,0.0,0.0,0.0,0.0,0.0,0.0,0.0,0.0,-0.6000000238418579,0.0,0.0,1832.0,0.0,0.0,0.0,,,,,
pylon_camera_1771860617636462074.png,1771860617636462074,1771860617.636462,42.30097098254228,-83.69729945759697,238.90325927734375,-0.03277881735766275,-0.999335848613351,-0.009569630959442917,-0.012721358896213628,0.00096,0.00010000000000000002,0.00039000000000000005,-0.25270000000000004,0.2146,-9.8071,-0.0032456746456821857,0.007260379441912309,0.0,0.0,0.0,0.0,0.0,0.0,0.0,0.0,0.0,0.0,-0.6000000238418579,12.15000057220459,0.0,876.0,0.0,0.0,0.0,,,,,
pylon_camera_1771860617686668372.png,1771860617686668372,1771860617.6866684,42.3009709834824,-83.69729945537667,238.90309143066406,-0.03279065057549757,-0.999335288930751,-0.009572612554381,-0.01273258109780308,-0.00117,-0.0008300000000000001,0.0023500000000000005,-0.2267,0.2129,-9.7825,-0.0017427208797086528,0.003898362044655474,0.0,0.0,0.0,0.0,0.0,0.0,0.0,0.0,0.0,0.0,-0.6000000238418579,22.774999618530273,0.0,604.0,0.0,0.0,0.0,,,,,
pylon_camera_1771860617737896146.png,1771860617737896146,1771860617.7378962,42.30097098495453,-83.69729945217792,238.90274047851562,-0.03279746490432284,-0.9993348934215154,-0.009580786454839231,-0.012739922172656404,-0.00037000000000000005,-0.00116,0.0009500000000000001,-0.27740000000000004,0.2066,-9.7903,-0.0012126238991797525,0.0027125669050311555,0.0,0.0,0.0,0.0,0.0,0.0,0.0,0.0,0.0,0.0,-0.6000000238418579,23.575000762939453,0.0,260.0,0.0,0.0,0.0,,,,,
pylon_camera_1771860617787759288.png,1771860617787759288,1771860617.7877593,42.30097098611961,-83.69729945034354,238.902587890625,-0.03281134522902418,-0.9993347299282664,-0.009547537246846708,-0.012741966723420142,0.0025900000000000003,0.00051,0.0008000000000000001,-0.2383,0.1957,-9.7657,-0.002524060219397214,0.005646171267178404,0.0,0.0,0.0,0.0,0.0,0.0,0.0,0.0,0.0,0.0,-0.6000000238418579,24.80000114440918,0.0,88.0,0.0,0.0,0.0,,,,,
pylon_camera_1771860617838591844.png,1771860617838591844,1771860617.8385918,42.30097098893493,-83.69729945148546,238.90188598632812,-0.03282099608574651,-0.9993361949077739,-0.009513213551892344,-0.012627372296225617,0.0016800000000000003,0.00916,0.0008900000000000001,0.2566,0.1232,-9.5388,0.013470752587153714,0.03013326529230763,0.0,0.0,0.0,0.0,0.0,0.0,0.0,0.0,0.0,0.0,-0.6000000238418579,26.05000114440918,0.0,0.0,0.0,0.0,0.0,,,,,
pylon_camera_1771860617889041578.png,1771860617889041578,1771860617.8890417,42.30097099161353,-83.69729947849143,238.90017700195312,-0.032827487317053206,-0.9993411818138076,-0.009510970488428529,-0.01221064485599976,-0.00019000000000000004,0.018690000000000002,0.00185,0.8215,0.1004,-9.6248,0.0586060791446119,0.13109828268174814,0.0,0.0,0.0,0.0,0.0,0.0,0.0,0.0,0.0,0.0,-0.6000000238418579,25.625,0.0,0.0,0.0,0.0,0.0,,,,,
pylon_camera_1771860617940001170.png,1771860617940001170,1771860617.9400012,42.300970993938435,-83.69729952393524,238.8983612060547,-0.03286658469971915,-0.9993468311703388,-0.0095426968447944,-0.011603257167997733,-0.0014900000000000002,0.025890000000000003,0.00055,1.3492,0.1283,-9.7033,0.12267003757705945,0.2744055138576274,0.0,0.0,0.0,0.0,0.0,0.0,0.0,0.0,0.0,0.0,-0.6000000238418579,25.30000114440918,0.0,0.0,0.0,0.0,0.0,,,,,
pylon_camera_1771860617990196610.png,1771860617990196610,1771860617.9901967,42.30097099901052,-83.69729964951901,238.8956756591797,-0.032894891035352924,-0.9993532196535904,-0.009602698696094121,-0.010902141511050314,-0.0018900000000000002,0.027710000000000002,0.0008900000000000001,1.7128,0.18430000000000002,-9.8947,0.21108272561965646,0.4721793922476344,0.0,0.0,0.0,0.0,0.0,0.0,0.0,0.0,0.0,0.0,-0.699999988079071,25.024999618530273,0.0,0.0,0.0,0.0,0.0,,,,,
pylon_camera_1771860618041076487.png,1771860618041076487,1771860618.0410764,42.30097100350779,-83.69729978782541,238.8942413330078,-0.03293154569838924,-0.9993586651835709,-0.009639345271374505,-0.010239855622294887,0.0015,0.025540000000000004,0.0018800000000000004,2.1882,0.22790000000000002,-10.076600000000001,0.32239171147458157,0.7211709150659505,0.0,0.0,0.0,0.0,0.0,0.0,0.0,0.0,0.0,0.0,-0.6000000238418579,24.75,0.0,0.0,0.0,0.0,0.0,,,,,
pylon_camera_1771860618091101859.png,1771860618091101859,1771860618.091102,42.300971014671624,-83.69730007497644,238.89248657226562,-0.0329078394079258,-0.9993653699501033,-0.009608833781897337,-0.009674800429327852,0.0037600000000000008,0.022720000000000004,-0.0007400000000000001,3.4499,-0.042300000000000004,-10.794,0.45117306437635396,1.0092470746260414,0.0,0.0,0.0,0.0,0.0,0.0,0.0,0.0,0.0,1.0,-0.5,25.17500114440918,0.0,0.0,0.0,0.0,0.0,,,,,
pylon_camera_1771860618142506523.png,1771860618142506523,1771860618.1425066,42.30097102654038,-83.69730032024525,238.89198303222656,-0.032848844880760786,-0.9993709728057245,-0.009556366548165711,-0.009342802670342156,0.0006700000000000001,-0.00204,-0.007290000000000001,2.8348,0.2029,-10.066500000000001,0.5753380798009387,1.2869967642299118,0.8499999642372131,0.85999995470047,1.1200000047683716,0.8999999761581421,0.6902078079602874,0.698327892416364,0.9094503302719618,0.7308082786401916,0.7571985773222012,0.41165463786128553,-0.4000000059604645,24.75,0.0,0.0,0.0,0.0,0.0,,,,,
pylon_camera_1771860618200314958.png,1771860618200314958,1771860618.200315,42.300971047325405,-83.6973007917127,238.89212036132812,-0.03273961898983746,-0.9993769463381105,-0.009556410488448682,-0.009083583813132042,-0.0011200000000000003,0.007890000000000001,-0.00464,2.7087000000000003,0.0073,-10.0272,0.7249716992253994,1.621718192865265,1.6200000047683716,1.659999966621399,1.4800000190734863,1.6699999570846558,1.3154549402719617,1.3479352780962683,1.201773661087847,1.3560553625523448,1.3053048105021055,0.19510996654980967,-0.20000000298023224,25.149999618530273,0.0,0.0,0.0,0.0,0.0,,,,,
pylon_camera_1771860618244877507.png,1771860618244877507,1771860618.2448776,42.30097106151785,-83.6973011673273,238.89268493652344,-0.03267539514998696,-0.9993787044361719,-0.009614261509403711,-0.009060333707962985,-0.004480000000000001,0.00169,-0.0018000000000000004,2.6501,-0.12190000000000001,-9.9579,0.8456010055360341,1.8915587133237763,1.909999966621399,1.909999966621399,2.059999942779541,1.9499999284744263,1.5509375830962684,1.5509375830962684,1.6727389467364597,1.5834179209205748,1.589508008462393,0.15968349421765038,0.0,25.100000381469727,0.0,0.0,0.0,0.0,0.0,,,,,
pylon_camera_1771860618293785246.png,1771860618293785246,1771860618.2937853,42.300971084250115,-83.69730181730137,238.89382934570312,-0.032695313722000574,-0.9993785126176756,-0.009571759158708682,-0.009054634465840126,0.008100000000000001,0.006250000000000001,0.0008100000000000001,2.0033000000000003,0.2286,-9.6171,0.9373012717357024,2.0966867067964623,2.3999998569488525,2.369999885559082,2.2899999618530273,2.4099998474121094,1.9488220118411492,1.9244617584729196,1.8595010828243066,1.9569420962972262,1.9224317373589004,0.08310968389922542,0.4000000059604645,25.0,0.0,0.0,0.0,0.0,0.0,,,,,
pylon_camera_1771860618355061111.png,1771860618355061111,1771860618.355061,42.300971109231156,-83.69730257431702,238.89442443847656,-0.03285250363564368,-0.9993794479589317,-0.00924809389560974,-0.008712333870355988,0.0032500000000000007,0.01182,0.0041800000000000006,2.3396,-0.0752,-9.660400000000001,1.1156946040383546,2.495741887557557,2.819999933242798,2.799999952316284,2.859999895095825,2.7899999618530273,2.2898659461925366,2.2736257772803836,2.322346284016843,2.2655056928243065,2.287835925078517,0.08330427257544078,1.3000000715255737,25.05000114440918,0.0,0.0,0.0,0.0,0.0,,,,,
pylon_camera_1771860618404136063.png,1771860618404136063,1771860618.404136,42.300971127725795,-83.69730314693355,238.89462280273438,-0.03294053077238929,-0.9993766803866514,-0.009406091620089744,-0.008526287130078103,-0.009960000000000002,-0.0024200000000000003,0.0020100000000000005,2.4593000000000003,0.36610000000000004,-10.154300000000001,1.250995296970822,2.7984014196059106,3.129999876022339,3.1399998664855957,3.1599998474121094,3.119999885559082,2.541588757928996,2.549708842385073,2.565949011297226,2.5334686734729193,2.5476788212710537,0.08959493680151338,2.200000047683716,24.55000114440918,0.0,0.0,0.0,0.0,0.0,,,,,
pylon_camera_1771860618444801847.png,1771860618444801847,1771860618.4448018,42.30097114890651,-83.69730375740474,238.8950958251953,-0.0329253588379409,-0.9993759777753337,-0.009490168812086437,-0.008573942319987338,-0.0021000000000000003,-0.005800000000000001,-0.0027800000000000004,2.6260000000000003,0.0235,-9.853900000000001,1.3499889819515607,3.0198443532867243,3.5399999618530273,3.5299999713897705,3.419999837875366,3.5799999237060547,2.874512607824306,2.86639252336823,2.777071400753303,2.906992945648613,2.8562423693986125,0.05417563448594673,2.700000047683716,24.80000114440918,0.0,0.0,0.0,0.0,0.0,,,,,
pylon_camera_1771860618494690397.png,1771860618494690397,1771860618.4946904,42.300971186194744,-83.69730477594274,238.89622497558594,-0.03283195433628988,-0.9993768665002244,-0.00953838204529421,-0.008772727432812289,-0.0048000000000000004,-0.006720000000000001,-0.006520000000000001,2.4466,-0.2209,-9.7992,1.4726011192987047,3.2941203478040446,3.809999942779541,3.7899999618530273,3.8899998664855957,3.859999895095825,3.0937550817364596,3.0775149128243067,3.158715757385073,3.1343555040168427,3.116085313990671,0.05404630523959366,2.9000000953674316,24.875,0.0,0.0,0.0,0.0,0.0,,,,,
pylon_camera_1771860618545314011.png,1771860618545314011,1771860618.545314,42.300971210681254,-83.6973055162496,238.8968505859375,-0.03273973836855065,-0.9993764202362316,-0.009650329368547232,-0.00904164533987789,-0.009020000000000002,-0.015030000000000003,-0.00506,2.23,-0.2436,-10.1663,1.6003809261382969,3.579956108915802,4.400000095367432,4.159999847412109,4.159999847412109,4.309999942779541,3.572840645439234,3.3779582312972263,3.3779582312972263,3.4997596917364597,3.4571291999425364,0.03430961308921294,2.9000000953674316,25.149999618530273,0.0,0.0,0.0,0.0,0.0,,,,,
pylon_camera_1771860618595433194.png,1771860618595433194,1771860618.5954332,42.30097125055035,-83.69730671456203,238.89781188964844,-0.032658940303930795,-0.999376368579201,-0.009762797180342129,-0.009217121833247605,0.00206,-0.00198,-0.0034200000000000003,2.3221000000000003,0.2816,-9.275400000000001,1.7230061717342584,3.8542614257992325,4.619999885559082,4.71999979019165,4.579999923706055,4.639999866485596,3.7514825034729196,3.832683348033686,3.719002165648613,3.767722672385073,3.767722672385073,0.022452746156473948,3.0,24.950000762939453,0.0,0.0,0.0,0.0,0.0,,,,,
pylon_camera_1771860618646735353.png,1771860618646735353,1771860618.6467354,42.30097128083062,-83.69730757736124,238.8980255126953,-0.0325300552702566,-0.999379175180284,-0.009825184867793227,-0.009301906385403754,0.0016400000000000002,0.0028300000000000005,-0.005220000000000001,2.6268000000000002,0.7692,-9.6821,1.8456774367568762,4.128669685378927,5.029999732971191,4.989999771118164,4.96999979019165,4.960000038146973,4.084406159770146,4.051925821945839,4.035685653033686,4.027565762175694,4.0498958492313415,0.019079713842585107,3.200000047683716,24.850000381469727,0.0,0.0,0.0,0.0,0.0,,,,,
pylon_camera_1771860618696394207.png,1771860618696394207,1771860618.6963942,42.30097133224386,-83.69730895647501,238.8983612060547,-0.032349828807860914,-0.999383162574154,-0.009698578686950263,-0.009629149019361738,0.0022500000000000003,-0.00801,-0.007910000000000002,1.8980000000000001,0.5233,-9.8961,1.9659409940125288,4.3976920471463865,5.779999732971191,5.380000114440918,5.339999675750732,5.259999752044678,4.693413074770145,4.368609696527081,4.336128971506605,4.271168295857993,4.417330009665456,0.004465515617859622,3.700000047683716,25.399999618530273,0.0,0.0,0.0,0.0,0.0,,,,,
pylon_camera_1771860618746979794.png,1771860618746979794,1771860618.74698,42.300971371562916,-83.69730992725547,238.89869689941406,-0.03203229138782876,-0.999390978159163,-0.009461104103914233,-0.010104087868355137,0.004900000000000001,-0.024680000000000004,-0.010020000000000001,1.4102000000000001,0.7605000000000001,-10.1791,2.0744691650327898,4.640463054028449,9.130000114440918,5.619999885559082,5.559999942779541,5.670000076293945,7.413644271527081,4.56349172347292,4.5147712167364595,4.604092339351387,5.273999887771962,0.1365244861056551,4.5,25.5,0.0,0.0,0.0,0.0,0.0,,,,,
pylon_camera_1771860618797242789.png,1771860618797242789,1771860618.7972429,42.30097143456444,-83.69731147003371,238.899658203125,-0.03162573591070428,-0.9994027357043973,-0.009043879201064526,-0.010592117053250756,0.011050000000000003,-0.028090000000000004,-0.015290000000000003,1.6760000000000002,0.43410000000000004,-10.1781,2.18256107650932,4.882258174486759,13.84999942779541,5.960000038146973,5.920000076293945,5.909999847412109,11.246327232364598,4.8395749821756935,4.807094644351388,4.798974366297227,6.422992806297226,0.3155782788919055,5.400000095367432,25.700000762939453,0.0,0.0,0.0,0.0,0.0,,,,,
pylon_camera_1771860618848207327.png,1771860618848207327,1771860618.8482075,42.30097147426818,-83.69731255193301,238.90078735351562,-0.03126924799618663,-0.9994122287832302,-0.008687706015576021,-0.011043317095706578,0.006770000000000001,-0.019750000000000004,-0.00935,1.8884,-0.0068000000000000005,-9.8103,2.2816037329424743,5.103810654368339,17.209999084472656,6.089999675750732,6.269999980926514,6.309999942779541,13.974677932783356,4.9451358865066055,5.091297793912154,5.12377813173646,7.283722436234644,0.4271145482249667,5.599999904632568,25.850000381469727,0.0,0.0,0.0,0.0,0.0,,,,,
pylon_camera_1771860618898015398.png,1771860618898015398,1771860618.8980155,42.300971533280276,-83.69731424475579,238.90206909179688,-0.03113063505994179,-0.9994183012815233,-0.00819577554036854,-0.011259302270157713,0.006620000000000001,-0.00024,-0.0033300000000000005,2.3562000000000003,-0.9054000000000001,-9.3079,2.387884493858904,5.341554339692737,20.34000015258789,6.5,6.549999713897705,6.609999656677246,16.516267658702777,5.2780599299999995,5.318660158682299,5.367380665418758,8.120092103200959,0.5201740143053663,5.700000286102295,25.274999618530273,0.0,12.0,0.0,0.0,0.0,,,,,
pylon_camera_1771860618948848978.png,1771860618948848978,1771860618.948849,42.30097156958051,-83.69731542991144,238.9023895263672,-0.03114064139265249,-0.9994137571171364,-0.008317299396686666,-0.01154231646635268,-0.028490000000000005,-0.00884,-0.0014000000000000002,2.1135,-1.1773,-10.4276,2.496154805400664,5.583748530392962,19.389999389648438,6.920000076293945,6.859999656677246,6.769999980926514,15.744858280188904,5.619103864351388,5.570382970418759,5.497302403912153,8.1079118797178,0.45205534160171024,5.200000286102295,25.375,0.0,420.0,0.0,0.0,0.0,,,,,
pylon_camera_1771860618999093785.png,1771860618999093785,1771860618.9990938,42.30097161521445,-83.6973172888732,238.90390014648438,-0.03113781478916372,-0.9994004795283333,-0.00907091723982809,-0.012117609876599525,-0.04290000000000001,-0.018660000000000003,-0.00581,1.9405000000000001,-0.6765,-9.5212,2.614440515190053,5.848346566049237,13.380000114440918,7.109999656677246,7.289999961853027,7.329999923706055,10.86468345652708,5.773385275418759,5.9195471828243065,5.952027520648613,7.12741085885469,0.21870528334122058,4.200000286102295,25.399999618530273,0.0,472.0,0.0,0.0,0.0,,,,,
pylon_camera_1771860619050293298.png,1771860619050293298,1771860619.0502932,42.30097166790458,-83.69731925432073,238.906494140625,-0.031074630482785526,-0.9993908493361752,-0.00931673491378027,-0.012864526964604937,-0.011000000000000001,-0.03246,-0.00544,1.3416000000000001,-0.4365,-9.5088,2.7462261136177952,6.143143042596192,7.199999809265137,7.509999752044678,7.419999599456787,7.559999942779541,5.846466229121533,6.098189040857992,6.0251080871552185,6.13878965673646,6.0271382534678,0.018883621677701613,3.200000047683716,25.42500114440918,0.0,180.0,0.0,0.0,0.0,,,,,
pylon_camera_1771860619100209420.png,1771860619100209420,1771860619.1002095,42.300971711738086,-83.69732061740471,238.90818786621094,-0.03081656519791598,-0.9993931536803549,-0.00878518829075877,-0.013655920069082188,0.01898,-0.056420000000000005,-0.01238,1.6941000000000002,-0.9756,-9.9437,2.858161564519822,6.393535930136971,7.889999866485596,7.739999771118164,7.599999904632568,7.809999942779541,6.406752637385073,6.28495117694584,6.171269994560767,6.34179196173646,6.301191442657036,0.014443414174722087,3.4000000953674316,25.575000762939453,0.0,20.0,0.0,0.0,0.0,,,,,
pylon_camera_1771860619151119224.png,1771860619151119224,1771860619.151119,42.30097177598985,-83.69732274371633,238.9104766845703,-0.030665821226579182,-0.9993885124297014,-0.008499752493316122,-0.014490094533869189,0.016760000000000004,-0.04079,-0.0035700000000000007,1.7309,-0.0017000000000000001,-9.7775,2.9579427212895038,6.616740390961343,7.960000038146973,8.019999504089355,7.989999771118164,8.130000114440918,6.463593422175694,6.512313541715985,6.487953481945839,6.601635051527081,6.51637387434115,0.01516857405457475,3.9000000953674316,25.725000381469727,0.0,0.0,0.0,0.0,0.0,,,,,
pylon_camera_1771860619201182928.png,1771860619201182928,1771860619.201183,42.30097181806177,-83.69732421080484,238.91212463378906,-0.030561670265200014,-0.9993773188401815,-0.009074281171578283,-0.01512006347970028,-0.0021100000000000003,-0.04064000000000001,-0.00117,2.8457000000000003,1.7612,-10.022400000000001,3.0590584794387334,6.84293027499568,8.260000228881836,8.479999542236328,8.4399995803833,8.539999961853027,6.707196343054161,6.885837813891678,6.853357476067372,6.934558707824307,6.845237585209379,0.00033718160509823403,4.200000286102295,25.700000762939453,0.0,0.0,0.0,0.0,0.0,,,,,
pylon_camera_1771860619252062169.png,1771860619252062169,1771860619.2520623,42.30097188509602,-83.69732648016011,238.9137420654297,-0.030432573752799952,-0.9993692257586082,-0.009461802865627623,-0.015667908218777723,-0.013510000000000003,-0.027600000000000003,-0.0007600000000000002,2.7182,2.2095000000000002,-9.448500000000001,3.160502880399481,7.069855313280816,8.619999885559082,8.699999809265137,8.6899995803833,8.699999809265137,6.9995193834729195,7.064480059121533,7.056359781067372,7.064480059121533,7.0462098206958395,0.003344551131132505,4.400000095367432,25.75,0.0,0.0,0.0,0.0,0.0,,,,,
pylon_camera_1771860619302323064.png,1771860619302323064,1771860619.3023229,42.300971927051556,-83.69732804135636,238.91397094726562,-0.030298208595610332,-0.9993701995626569,-0.00902246548023053,-0.0161188677843775,-0.020540000000000003,-0.004030000000000001,0.010650000000000001,1.028,0.3497,-8.9062,3.2375315284578106,7.2421637772684155,9.0,9.069999694824219,9.0,8.920000076293945,7.30808298,7.364923377594453,7.30808298,7.243122304351388,7.306052910486461,0.00882182938455207,4.400000095367432,25.80000114440918,0.0,0.0,0.0,0.0,0.0,,,,,
pylon_camera_1771860619362124203.png,1771860619362124203,1771860619.3621242,42.300971989224564,-83.69733045410301,238.9144744873047,-0.03017706168197981,-0.9993672724394851,-0.009317055962041066,-0.016358245422592718,-0.05818,0.004210000000000001,-0.00011000000000000002,2.0229,-0.2341,-9.494,3.3586551225299712,7.513109989792194,9.319999694824219,9.1899995803833,9.309999465942383,9.369999885559082,7.567925682594453,7.462364391067371,7.559805404540291,7.60852629847292,7.549655444168759,0.004864224592241848,4.400000095367432,25.899999618530273,0.0,0.0,0.0,0.0,0.0,,,,,
pylon_camera_1771860619411855449.png,1771860619411855449,1771860619.4118555,42.300972045929974,-83.69733294835054,238.91567993164062,-0.029995777694358683,-0.9993610992595625,-0.01010411184670678,-0.01659980515002122,-0.04338000000000001,0.01297,-0.01131,0.8477,-0.8474,-10.3125,3.4483493596175734,7.713750616502935,9.59000015258789,9.739999771118164,9.550000190734863,9.579999923706055,7.787168543702775,7.908969616945839,7.754688205878468,7.779048265648614,7.807468658043923,0.012149477757355334,4.5,26.024999618530273,0.0,0.0,0.0,0.0,0.0,,,,,
pylon_camera_1771860619454158406.png,1771860619454158406,1771860619.4541583,42.30097208724725,-83.69733465557334,238.9168243408203,-0.02968622192036252,-0.9993581055408758,-0.010613639026492474,-0.01701340014406205,-0.01314,-0.032740000000000005,-0.012860000000000002,1.1364,-0.7257,-11.5009,3.5638632541882673,7.972148267823903,9.800000190734863,9.869999885559082,9.670000076293945,9.699999809265137,7.957690510878468,8.014530908472919,7.852129219351387,7.876489279121533,7.925209979456077,0.005887784169453088,4.599999904632568,25.825000762939453,0.0,0.0,0.0,0.0,0.0,,,,,
pylon_camera_1771860619504024119.png,1771860619504024119,1771860619.504024,42.30097212657731,-83.69733641402216,238.9191131591797,-0.029465022563892773,-0.9993463600619006,-0.01072801383816966,-0.01798818488417701,0.00841,-0.05276000000000001,-0.00031,2.0235000000000003,0.7547,-10.517800000000001,3.6833060140197516,8.239334555001344,9.969999313354492,10.010000228881836,10.039999961853027,10.050000190734863,8.095731365837517,8.128212478054161,8.152572537824307,8.160692815878468,8.134302299398614,0.012747662435793946,5.200000286102295,25.774999618530273,0.0,0.0,0.0,0.0,0.0,,,,,
pylon_camera_1771860619554750872.png,1771860619554750872,1771860619.554751,42.30097220013705,-83.6973391266884,238.9219970703125,-0.029339757701086988,-0.9993239727239622,-0.010376749909320764,-0.019572920542388454,0.013480000000000002,-0.06197000000000001,-0.0037400000000000007,1.8952,0.8279000000000001,-10.1484,3.782046429269871,8.460210939490945,10.219999313354492,10.219999313354492,10.170000076293945,10.229999542236328,8.298733670837517,8.298733670837517,8.258133829351388,8.306853948891678,8.290613779979525,0.02004644573574016,6.200000286102295,25.899999618530273,0.0,0.0,0.0,0.0,0.0,,,,,
pylon_camera_1771860619604499693.png,1771860619604499693,1771860619.6044998,42.30097225358986,-83.6973409863235,238.9237060546875,-0.029256061805421008,-0.9992934783327335,-0.010085851068744028,-0.021328446205087913,0.009330000000000001,-0.06071000000000001,-0.005830000000000001,1.4804000000000002,0.5794,-8.801,3.87731023026589,8.67331034649098,10.519999504089355,10.550000190734863,10.59000015258789,10.469999313354492,8.542336591715985,8.566697425878468,8.599177763702775,8.501735975837518,8.552486939283687,0.013930483561697488,7.400000095367432,25.55000114440918,0.0,0.0,0.0,0.0,0.0,,,,,
pylon_camera_1771860619655281873.png,1771860619655281873,1771860619.655282,42.300972340786416,-83.69734383564237,238.92465209960938,-0.0290138932979343,-0.9992754583978058,-0.009948123592972546,-0.022534131368436492,0.0026100000000000003,-0.04392000000000001,-0.01175,1.4693,0.5231,-9.3551,3.9615760552876145,8.861807941115076,10.979999542236328,10.819999694824219,10.889999389648438,11.09000015258789,8.915860863891679,8.785939512594451,8.842779910188904,9.005182373702773,8.887440665094452,0.0028924937382642634,7.800000190734863,25.850000381469727,0.0,0.0,0.0,0.0,0.0,,,,,
pylon_camera_1771860619705587272.png,1771860619705587272,1771860619.7055871,42.30097240029827,-83.69734576692707,238.92335510253906,-0.028735931067862097,-0.9992752123153679,-0.00980126356818947,-0.022961523255363454,-0.009300000000000001,-0.021180000000000004,-0.015690000000000003,1.0345,-0.4666,-9.069700000000001,4.042485699914857,9.04279796156754,11.09000015258789,11.149999618530273,11.199999809265137,11.239999771118164,9.005182373702773,9.053902493243067,9.094503109121534,9.12698344694584,9.070142855753303,0.003023941738163403,7.5,25.600000381469727,0.0,0.0,0.0,0.0,0.0,,,,,
pylon_camera_1771860619756078653.png,1771860619756078653,1771860619.7560785,42.300972485373386,-83.69734873319028,238.91868591308594,-0.028417673810485655,-0.9992892919893269,-0.009811462752726641,-0.022739435554175378,-0.017530000000000004,0.00013000000000000002,-0.0065000000000000014,1.5455,0.050800000000000005,-9.445,4.134368482992293,9.24833423434478,11.329999923706055,11.5,11.469999313354492,11.40999984741211,9.200064400648614,9.33810603,9.313745195837516,9.265025076297226,9.279235175695838,0.0033412440087106795,6.800000190734863,25.700000762939453,0.0,0.0,0.0,0.0,0.0,,,,,
pylon_camera_1771860619806052137.png,1771860619806052137,1771860619.8060522,42.300972532907956,-83.69735075502453,238.9149627685547,-0.028010673592364754,-0.9993068100828137,-0.009786469666081904,-0.022483916440160845,-0.00898,0.015440000000000002,-0.010510000000000002,1.5996000000000001,-0.36160000000000003,-9.759,4.2191813151774955,9.438055451173147,11.819999694824219,11.739999771118164,11.880000114440918,11.710000038146973,9.597948732594453,9.532988056945838,9.64666962652708,9.508627997175694,9.571558603310766,0.01414519683935791,6.400000095367432,25.899999618530273,0.0,0.0,0.0,0.0,0.0,,,,,
pylon_camera_1771860619857073867.png,1771860619857073867,1771860619.857074,42.30097259899424,-83.69735385558653,238.9100799560547,-0.027725718768081276,-0.9993069187247303,-0.010265281387725086,-0.022618370978240616,-0.021670000000000002,-0.010000000000000002,-0.0033300000000000005,1.4207,1.1046,-10.080400000000001,4.317081221913699,9.65705166854763,12.149999618530273,11.9399995803833,12.00999927520752,11.9399995803833,9.865911713243065,9.695389746067372,9.752230143661823,9.695389746067372,9.752230337259908,0.009855872369645474,6.700000286102295,25.75,0.0,0.0,0.0,0.0,0.0,,,,,
pylon_camera_1771860619907266402.png,1771860619907266402,1771860619.9072664,42.300972643336316,-83.69735597818064,238.9079132080078,-0.027505599665692604,-0.9992978393497158,-0.01016988075498388,-0.023320458474253746,-0.006730000000000001,-0.035750000000000004,-0.007710000000000002,1.6589,-0.0011,-9.6762,4.42974297700266,9.909069254976332,12.119999885559082,12.219999313354492,12.25999927520752,12.289999961853027,9.84155165347292,9.922752110837518,9.955232448661823,9.979593282824307,9.924782373949142,0.0015857310680232669,6.700000286102295,25.700000762939453,0.0,0.0,0.0,0.0,0.0,,,,,
pylon_camera_1771860619958114579.png,1771860619958114579,1771860619.9581146,42.30097271151004,-83.6973592310166,238.904296875,-0.027238356713285894,-0.9992774866329954,-0.010300545772363653,-0.024422845632621145,-0.025250000000000005,-0.04897000000000001,-0.011580000000000002,0.6948000000000001,-0.4189,-10.1963,4.526985607035636,10.126595183802296,12.5,12.40999984741211,12.329999923706055,12.300000190734863,10.15011525,10.077034296297228,10.012073620648613,9.987713560878468,10.056734181956077,0.006898765140524511,6.700000286102295,25.975000381469727,0.0,0.0,0.0,0.0,0.0,,,,,
pylon_camera_1771860620008142875.png,1771860620008142875,1771860620.008143,42.30097275714611,-83.69736143630941,238.9019012451172,-0.027085651505511066,-0.9992524553027364,-0.01100596262079817,-0.025293612647547998,-0.03277000000000001,-0.01631,-0.004220000000000001,0.5275000000000001,0.5764,-8.7727,4.589885140084233,10.267297665260024,12.799999237060547,12.899999618530273,12.59000015258789,12.75999927520752,10.39371739648613,10.474918628243065,10.223196203702775,10.361237058661825,10.36326732177345,0.009347119333857812,6.599999904632568,26.17500114440918,0.0,0.0,0.0,0.0,0.0,,,,,
pylon_camera_1771860620059318431.png,1771860620059318431,1771860620.0593185,42.30097282467071,-83.69736479344975,238.89776611328125,-0.026722456258746252,-0.9992527832567026,-0.011485322858019894,-0.025453346422031085,-0.024220000000000005,0.007450000000000001,-0.004260000000000001,-0.7079000000000001,-0.1115,-10.0363,4.637933309375302,10.374778537073988,13.069999694824219,13.149999618530273,12.9399995803833,13.00999927520752,10.612960257594452,10.677920933243065,10.507398966067372,10.564239363661825,10.590629880141678,0.02080539283767375,6.5,27.05000114440918,0.0,0.0,0.0,0.0,0.0,,,,,
pylon_camera_1771860620109120454.png,1771860620109120454,1771860620.1091206,42.30097286428986,-83.6973670577432,238.89520263671875,-0.026333891990316938,-0.9992691647472223,-0.012159397798920786,-0.024896015006394583,-0.01683,0.02782,-0.007840000000000001,0.8377,-0.4424,-11.895000000000001,4.73353063939357,10.588624028485054,13.229999542236328,13.219999313354492,13.170000076293945,13.049999237060547,10.742881608891679,10.734761330837516,10.694161489351387,10.59671970148613,10.692131032641678,0.009775302615162643,6.5,27.399999618530273,0.0,0.0,0.0,0.0,0.0,,,,,
pylon_camera_1771860620160535956.png,1771860620160535956,1771860620.160536,42.30097292192783,-83.69737052548973,238.89401245117188,-0.02597916206891343,-0.9992699747633355,-0.012955781280467898,-0.02483441978570459,-0.013280000000000002,-0.027470000000000005,-0.013560000000000003,1.8965,-0.2157,-10.552800000000001,4.835916730536703,10.817655571206773,13.399999618530273,13.460000038146973,13.569999694824219,13.460000038146973,10.880923238243065,10.929644132175694,11.018964867594454,10.929644132175694,10.939794092547228,0.011290664648775614,6.5,27.475000381469727,0.0,0.0,0.0,0.0,0.0,,,,,
pylon_camera_1771860620210443380.png,1771860620210443380,1771860620.2104433,42.30097298700801,-83.69737406576476,238.89183044433594,-0.025756103949593268,-0.9992781274880389,-0.012880313718629851,-0.024777904508775782,0.03135,0.0015500000000000002,-0.01597,0.9707,1.0949,-7.935300000000001,4.9093660001185855,10.981957180305269,13.679999351501465,13.639999389648438,13.84999942779541,13.859999656677246,11.108285603013211,11.075805265188903,11.246327232364598,11.254447510418759,11.171216402746367,0.017233651464286386,6.5,27.100000381469727,0.0,0.0,0.0,0.0,0.0,,,,,
pylon_camera_1771860620261305697.png,1771860620261305697,1771860620.2613056,42.30097304253964,-83.69737646838041,238.88681030273438,-0.02541720999211572,-0.9993089629328382,-0.01230454397694072,-0.024169407022756856,0.03202000000000001,0.05000000000000001,-0.00973,1.4901,1.977,-8.2812,4.985077014079201,11.15131817587433,13.960000038146973,13.969999313354492,14.079999923706055,14.019999504089355,11.335648742175692,11.343768245837518,11.433089755648613,11.384368861715986,11.374218901344452,0.01998873334565629,6.5,26.825000762939453,0.0,0.0,0.0,0.0,0.0,,,,,
pylon_camera_1771860620311845710.png,1771860620311845710,1771860620.3118455,42.30097313489726,-83.69738012165867,238.87710571289062,-0.02501344940436423,-0.9993446331109261,-0.01185230434004039,-0.02332711947744095,0.010870000000000001,0.04698000000000001,-0.013050000000000003,1.7525000000000002,1.7558,-9.272400000000001,5.067038935160511,11.334662075617954,14.069999694824219,14.0,14.25,14.109999656677246,11.424969477594452,11.368129080000001,11.571131385000001,11.457449815418759,11.455419939503305,0.010653856557851246,6.599999904632568,27.024999618530273,0.0,0.0,0.0,0.0,0.0,,,,,
pylon_camera_1771860620362628140.png,1771860620362628140,1771860620.362628,42.30097319525034,-83.69738259042254,238.86952209472656,-0.02448388820563102,-0.9993809492439165,-0.011546386423555426,-0.02247083592616558,-0.005940000000000001,0.03508,-0.016800000000000002,1.6274000000000002,-0.1106,-9.9612,5.150864891173487,11.52217570966162,14.359999656677246,14.5,14.460000038146973,14.309999465942383,11.66045212041876,11.77413369,11.741653352175694,11.619851504540291,11.699022666783687,0.01534839960596816,6.599999904632568,27.17500114440918,0.0,0.0,0.0,0.0,0.0,,,,,
pylon_camera_1771860620421636971.png,1771860620421636971,1771860620.4216368,42.30097327829407,-83.69738635814689,238.8588409423828,-0.02405540484232499,-0.9994106103227387,-0.012007214031011916,-0.021344701530271057,-0.04114000000000001,0.04361,-0.0017100000000000001,1.359,0.7114,-10.8145,5.233040705328593,11.705998075377742,14.710000038146973,15.069999694824219,14.559999465942383,14.489999771118164,11.944655657175694,12.236978697594452,11.822853809540293,11.76601341194584,11.94262539406407,0.02021419422441616,6.400000095367432,27.350000381469727,0.0,0.0,0.0,0.0,0.0,,,,,
pylon_camera_1771860620465485124.png,1771860620465485124,1771860620.465485,42.30097332284363,-83.697388907841,238.85385131835938,-0.023796170871561217,-0.9994275874596252,-0.012036137736712747,-0.020817566257065438,-0.011300000000000003,0.011170000000000003,0.007600000000000001,1.4589,0.1462,-11.612300000000001,5.3333102005646715,11.930294920051137,14.769999504089355,14.859999656677246,14.84999942779541,15.00999927520752,11.993375776715984,12.066456730418759,12.058336452364598,12.188257803661823,12.076606690790292,0.012263885488132415,6.400000095367432,27.450000762939453,0.0,0.0,0.0,0.0,0.0,,,,,
pylon_camera_1771860620514817753.png,1771860620514817753,1771860620.5148177,42.30097340254587,-83.69739280972068,238.848876953125,-0.023444640278199647,-0.9994439430349993,-0.010949677248680402,-0.021029934403813955,0.00464,-0.029860000000000005,-0.006560000000000001,0.14070000000000002,-1.0231000000000001,-9.9894,5.425207470223831,12.135863598442498,15.059999465942383,15.029999732971191,15.149999618530273,15.109999656677246,12.228858419540291,12.204498359770147,12.301939373243066,12.269459035418759,12.251188796993066,0.00950284234946156,6.5,27.274999618530273,0.0,0.0,0.0,0.0,0.0,,,,,
pylon_camera_1771860620566544212.png,1771860620566544212,1771860620.566544,42.30097346490232,-83.69739546255538,238.84469604492188,-0.023126173455974064,-0.9994534384338102,-0.01046802115016502,-0.021176048671033235,-0.00817,-2e-05,-0.017310000000000002,0.3599,-2.2640000000000002,-9.2598,5.509821819026373,12.325140819852855,15.289999961853027,15.319999694824219,15.399999618530273,15.1899995803833,12.415620942824306,12.439981002594452,12.504941678243066,12.33441971106737,12.423740833682299,0.007999909718728939,6.599999904632568,27.17500114440918,0.0,0.0,0.0,0.0,0.0,,,,,
pylon_camera_1771860620614610487.png,1771860620614610487,1771860620.6146104,42.300973544945826,-83.69739948649101,238.83877563476562,-0.022775021497778603,-0.9994503057369236,-0.011460587320509535,-0.021190556774534713,-0.03128000000000001,0.006150000000000001,-0.023510000000000003,2.1397,-1.4581000000000002,-10.5815,5.591418395138433,12.507667464820967,15.4399995803833,15.369999885559082,15.389999389648438,15.529999732971191,12.53742201606737,12.480581618472918,12.496821400188903,12.610502969770145,12.531332001124834,0.001892002355389287,6.5,27.325000762939453,0.0,0.0,0.0,0.0,0.0,,,,,
pylon_camera_1771860620665385970.png,1771860620665385970,1771860620.665386,42.30097358927747,-83.69740219857165,238.83602905273438,-0.02248199407117868,-0.9994359582412724,-0.012650924471300529,-0.021500684336884384,-0.023610000000000006,-0.03619000000000001,-0.012560000000000002,1.1989,1.3962,-10.6767,5.653062035610387,12.6455605899383,15.619999885559082,15.899999618530273,15.649999618530273,15.639999389648438,12.68358392347292,12.910946288243066,12.707943983243066,12.699823705188903,12.750574475036988,0.008304407254372235,6.0,27.975000381469727,0.0,0.0,0.0,0.0,0.0,,,,,
pylon_camera_1771860620715923793.png,1771860620715923793,1771860620.7159238,42.30097365251344,-83.69740632893959,238.8351593017578,-0.02224118077716114,-0.999436456195844,-0.01282914058866554,-0.021622050228560286,0.02603,0.00024,-0.0026000000000000003,1.1363,0.9139,-10.109200000000001,5.7201814992180005,12.795702802860715,15.839999198913574,16.010000228881836,15.969999313354492,15.979999542236328,12.862225394310435,13.00026779805416,12.967786685837519,12.975906963891678,12.951546710523449,0.01217939413440359,5.800000190734863,28.625,0.0,0.0,0.0,0.0,0.0,,,,,
pylon_camera_1771860620766931638.png,1771860620766931638,1771860620.7669318,42.30097370113138,-83.69740911550623,238.83486938476562,-0.022003920758177142,-0.9994442676954509,-0.012421688329841427,-0.021741317830522893,0.020290000000000002,0.011940000000000001,-0.01063,0.7506,0.0517,-9.3801,5.788529006616484,12.948592076060677,16.299999237060547,16.170000076293945,16.239999771118164,16.170000076293945,13.23574966648613,13.130189149351388,13.18702954694584,13.130189149351388,13.170789378033687,0.017159958447050584,5.800000190734863,29.774999618530273,0.0,0.0,0.0,0.0,0.0,,,,,
pylon_camera_1771860620816690597.png,1771860620816690597,1771860620.8166907,42.30097377087499,-83.69741334731094,238.8328857421875,-0.021767315503439355,-0.9994474227389041,-0.012533557568699671,-0.021770234059573068,-0.022340000000000006,-0.023170000000000003,-0.013570000000000002,0.8552000000000001,0.9228000000000001,-9.474300000000001,5.876768944751331,13.145979523272043,16.399999618530273,16.31999969482422,16.40999984741211,16.35999870300293,13.316950898243064,13.251990222594452,13.325071176297227,13.28446978602642,13.294620520790291,0.011306954894849178,6.0,29.5,0.0,0.0,0.0,0.0,0.0,,,,,
pylon_camera_1771860620867933042.png,1771860620867933042,1771860620.867933,42.30097381879859,-83.69741621399871,238.83030700683594,-0.021441106649733865,-0.9994452265245828,-0.012907795459656146,-0.021975143668053355,-0.020780000000000003,-0.03602,-0.009520000000000002,0.9269000000000001,1.4838,-9.3276,5.965221845619516,13.343843355340121,16.559999465942383,16.549999237060547,16.559999465942383,16.53999900817871,13.446872249540291,13.43875197148613,13.446872249540291,13.43063169343197,13.44078204099967,0.0072646750323814464,6.099999904632568,29.05000114440918,0.0,0.0,0.0,0.0,0.0,,,,,
pylon_camera_1771860620918154126.png,1771860620918154126,1771860620.9181542,42.300973894696135,-83.69742056215937,238.8256378173828,-0.0210445644845505,-0.9994370802587895,-0.0133591206278517,-0.022454015353424527,-0.031760000000000004,-0.033420000000000005,-0.016080000000000004,1.5750000000000002,0.5926,-10.0188,6.045297457507282,13.52296769459634,16.719999313354492,16.829999923706055,16.6299991607666,16.510000228881836,13.576793600837517,13.666115110648613,13.503712647134742,13.406272408054162,13.538223441668759,0.0011281360287885632,6.0,29.325000762939453,0.0,0.0,0.0,0.0,0.0,,,,,
pylon_camera_1771860620968995687.png,1771860620968995687,1771860620.9689956,42.30097396717179,-83.69742498488029,238.8206329345703,-0.020824104024695478,-0.9994168694133647,-0.013609453744799636,-0.023389326461588464,0.006240000000000001,-0.07109,0.0035300000000000006,0.8708,2.3767,-8.926300000000001,6.127754983489459,13.707420232766912,16.959999084472656,16.979999542236328,16.979999542236328,16.920000076293945,13.771675627783356,13.78791618389168,13.78791618389168,13.739196064351386,13.771676014979526,0.0046876641352990465,5.800000190734863,29.524999618530273,0.0,0.0,0.0,0.0,0.0,,,,,
pylon_camera_1771860621018587055.png,1771860621018587055,1771860621.018587,42.30097401133841,-83.69742797491749,238.8165283203125,-0.020363956144720696,-0.9994137977628343,-0.013514667843898803,-0.02397339951849313,0.015580000000000002,-0.0337,-0.013050000000000003,1.0381,1.8344,-9.2504,6.204325211722188,13.878703239109832,17.209999084472656,17.209999084472656,17.139999389648438,17.260000228881836,13.974677932783356,13.974677932783356,13.917837535188903,14.01527932305416,13.970618180952444,0.006622732704853721,5.800000190734863,29.75,0.0,0.0,0.0,0.0,0.0,,,,,
pylon_camera_1771860621069467621.png,1771860621069467621,1771860621.0694675,42.30097408807308,-83.69743250577456,238.8065643310547,-0.019829530854989896,-0.9994191283629803,-0.013296804957991102,-0.02431852269692234,0.00893,-0.013290000000000001,-0.02528,1.8005,-0.1335,-9.4474,6.278327222492493,14.044241297082358,17.53999900817871,17.44999885559082,17.479999542236328,17.3799991607666,14.242640913431968,14.169559959729195,14.193920793891678,14.112719562134744,14.179710307296896,0.00964587601059521,5.900000095367432,29.600000381469727,0.0,0.0,0.0,0.0,0.0,,,,,
pylon_camera_1771860621119884338.png,1771860621119884338,1771860621.1198843,42.30097413579539,-83.69743556205195,238.7996826171875,-0.019434043550295432,-0.9994183536128383,-0.0133103276867686,-0.02465983758989449,-0.013970000000000002,-0.01784,-0.007910000000000002,0.4308,0.7816000000000001,-9.840200000000001,6.351190803985522,14.207232757067374,17.670000076293945,17.719999313354492,17.600000381469727,17.649999618530273,14.348202979351388,14.388802820837519,14.291362581756935,14.331962423243066,14.340082701297227,0.009350867019741586,5.900000095367432,29.0,0.0,0.0,0.0,0.0,0.0,,,,,
pylon_camera_1771860621170579362.png,1771860621170579362,1771860621.1705794,42.300974199855936,-83.6974402130688,238.7917938232422,-0.019148213737726794,-0.9994111116500028,-0.01322563430430517,-0.025216233231960757,0.015280000000000002,-0.00689,-0.010470000000000002,0.2669,0.4642,-10.9742,6.4258071331751205,14.374145008484755,18.010000228881836,17.85999870300293,17.75,17.969999313354492,14.624286238054161,14.50248361602642,14.413163655,14.591805125837517,14.532934658729525,0.01104689358226457,5.900000095367432,28.75,0.0,0.0,0.0,0.0,0.0,,,,,
pylon_camera_1771860621220544915.png,1771860621220544915,1771860621.220545,42.300974244126834,-83.69744335722628,238.78868103027344,-0.01880410092286139,-0.9994024089305464,-0.012642105187980535,-0.02610379261179401,0.0069900000000000006,-0.04161,-0.019370000000000002,0.8691000000000001,-0.6124,-10.951400000000001,6.518500166979358,14.581493763522806,17.969999313354492,18.0,18.10999870300293,18.079999923706055,14.591805125837517,14.61616596,14.70548592102642,14.681126635648614,14.648645910628137,0.004605299580027877,5.900000095367432,28.274999618530273,0.0,0.0,0.0,0.0,0.0,,,,,
pylon_camera_1771860621271576031.png,1771860621271576031,1771860621.2715762,42.30097431609365,-83.69744812772112,238.7866973876953,-0.018517967169688676,-0.9993803213808148,-0.012222990090479852,-0.02732501860803673,-0.00272,-0.053820000000000014,-0.0015400000000000001,-0.045700000000000005,0.785,-11.2836,6.593607051802248,14.749503358458522,18.119998931884766,18.34000015258789,18.43000030517578,18.350000381469727,14.713606199080584,14.892249218702775,14.965330172405547,14.900369496756936,14.86788877173646,0.008026399967565455,5.900000095367432,28.200000762939453,0.0,0.0,0.0,0.0,0.0,,,,,
pylon_camera_1771860621321963138.png,1771860621321963138,1771860621.3219633,42.300974358534525,-83.6974513524846,238.78555297851562,-0.018140455387597954,-0.9993496695728621,-0.01176223043320122,-0.02885847775226978,0.027700000000000002,-0.05395000000000001,-0.019560000000000004,1.4535,-1.5151000000000001,-8.5573,6.685168494372571,14.95432081180178,18.459999084472656,18.60999870300293,18.520000457763672,18.56999969482422,14.989689457783356,15.111490531026423,15.038411126108322,15.079010967594453,15.05465052062814,0.006709078271691259,5.900000095367432,25.075000762939453,0.0,0.0,0.0,0.0,0.0,,,,,
pylon_camera_1771860621381606601.png,1771860621381606601,1771860621.3816066,42.300974428097796,-83.69745623842215,238.78001403808594,-0.017600662266559763,-0.9993107685257826,-0.011140016837348339,-0.03072628550690384,0.025830000000000002,-0.05374000000000001,-0.0051600000000000005,-0.5944,-1.2793,-9.0862,6.767956072906891,15.139511657728342,18.65999984741211,18.8799991607666,18.739999771118164,18.90999984741211,15.152091921297227,15.330733392134745,15.21705259694584,15.355094226297227,15.26374303416876,0.008205771708429007,5.599999904632568,23.125,0.0,0.0,0.0,0.0,0.0,,,,,
pylon_camera_1771860621422938836.png,1771860621422938836,1771860621.4229388,42.30097447058023,-83.69745952173373,238.7733154296875,-0.017275827353648687,-0.9993052633846456,-0.010808094710636429,-0.031204510086153135,0.03159000000000001,-0.022460000000000004,-0.019940000000000003,0.1159,-0.5042,-8.313,6.814689202305262,15.244050864204734,18.899999618530273,19.0,18.899999618530273,18.94999885559082,15.346973948243065,15.428175180000002,15.346973948243065,15.387573789729194,15.377424216553832,0.008749206725771183,5.300000190734863,23.375,0.0,0.0,0.0,0.0,0.0,,,,,
pylon_camera_1771860621483151765.png,1771860621483151765,1771860621.483152,42.30097451896382,-83.69746449199027,238.7583465576172,-0.01692549660863457,-0.9993282713589257,-0.01124114066994564,-0.03049869478798882,-0.020890000000000002,0.06146000000000001,-0.011860000000000002,0.9884000000000001,-0.7531,-8.9573,6.878797053920817,15.387456281797633,19.229999542236328,19.239999771118164,19.34000015258789,19.139999389648438,15.614936928891678,15.62305720694584,15.704258438702775,15.541855975188904,15.621027137432298,0.015179302631778384,5.099999904632568,23.225000381469727,0.0,0.0,0.0,0.0,0.0,,,,,
pylon_camera_1771860621534065043.png,1771860621534065043,1771860621.5340652,42.300974558042206,-83.69746950598483,238.739990234375,-0.016570564921129516,-0.9993717648787952,-0.011936677230948793,-0.02896562925124561,-0.02517,0.039720000000000005,-0.00846,0.7323000000000001,-0.0485,-10.4725,6.952707414704302,15.552789324248643,19.520000457763672,19.3799991607666,19.399999618530273,19.479999542236328,15.850420346108324,15.736738002134743,15.752978558243067,15.817939233891678,15.789519035094452,0.015221045300004135,5.0,22.524999618530273,0.0,0.0,0.0,0.0,0.0,,,,,
pylon_camera_1771860621584176364.png,1771860621584176364,1771860621.5841763,42.30097458396414,-83.69747288346112,238.72854614257812,-0.016268518639746543,-0.9994132375591026,-0.012269922612117994,-0.027531162198382204,-0.018290000000000004,0.03157,-0.012670000000000002,0.7378,-0.1545,-11.4513,7.022249597819668,15.708351015346729,19.56999969482422,19.600000381469727,19.439998626708984,19.59000015258789,15.891020187594453,15.915381021756936,15.785458121675035,15.907260743702773,15.8747800186823,0.010594937888322793,5.0,18.350000381469727,0.0,0.0,0.0,0.0,0.0,,,,,
pylon_camera_1771860621626158766.png,1771860621626158766,1771860621.626159,42.30097461104877,-83.69747627993895,238.71873474121094,-0.015983338053315754,-0.9994395886262464,-0.012315700081799965,-0.02670889594812991,0.00222,0.03783,-0.019420000000000003,1.0634000000000001,0.0332,-10.624600000000001,7.071571334787047,15.818680781638538,19.760000228881836,19.869998931884766,19.719999313354492,19.85999870300293,16.04530237305416,16.134622334080582,16.01282126083752,16.12650205602642,16.07981200599967,0.016507775077188477,4.900000095367432,17.575000762939453,0.0,0.0,0.0,0.0,0.0,,,,,
pylon_camera_1771860621675288208.png,1771860621675288208,1771860621.6752884,42.30097466093346,-83.69748142948006,238.70852661132812,-0.015552526900420083,-0.9994568728772345,-0.012273409899537922,-0.026333278848424225,-0.005360000000000001,0.015140000000000002,-0.012390000000000002,0.4484,0.3199,-11.0393,7.13147130646514,15.95267342428413,19.899999618530273,19.939998626708984,19.989999771118164,19.969999313354492,16.158983168243065,16.191462731675035,16.23206412194584,16.215823565837518,16.199583396925362,0.015477654815234334,4.900000095367432,17.575000762939453,0.0,0.0,0.0,0.0,0.0,,,,,
pylon_camera_1771860621725245137.png,1771860621725245137,1771860621.7252452,42.30097469726626,-83.6974848864038,238.7032470703125,-0.015141396229787052,-0.9994829552444704,-0.011875822094868387,-0.02575898184252982,0.025620000000000004,0.054920000000000004,-0.01896,0.2848,0.049100000000000005,-8.099300000000001,7.178018596598997,16.05679691947616,20.03999900817871,20.18000030517578,20.1299991607666,20.219999313354492,16.27266396343197,16.38634630740555,16.34574491713474,16.41882587083752,16.355895264702447,0.01862752245832385,4.900000095367432,18.200000762939453,0.0,0.0,0.0,0.0,0.0,,,,,
pylon_camera_1771860621776082663.png,1771860621776082663,1771860621.7760828,42.3009747540155,-83.69749010723656,238.69158935546875,-0.014770274896545421,-0.9995290458853756,-0.01111483961977194,-0.024494606573240638,0.06755000000000001,0.06383000000000001,-0.021340000000000005,1.0934000000000001,0.8304,-7.1755,7.224940405026789,16.161758189620627,20.219999313354492,20.389999389648438,20.459999084472656,20.40999984741211,16.41882587083752,16.556867500188904,16.613707897783357,16.573108056297226,16.540627331276752,0.023442322129249623,4.800000190734863,18.375,0.0,0.0,0.0,0.0,0.0,,,,,
pylon_camera_1771860621826062506.png,1771860621826062506,1771860621.8260627,42.30097479448833,-83.69749360575632,238.6806640625,-0.014295720710823079,-0.9995872483836246,-0.010203177589176096,-0.02273456411052732,0.07289000000000001,0.07911000000000001,-0.027420000000000007,0.9746,1.3481,-11.036100000000001,7.266693860336419,16.25515816394095,20.459999084472656,20.5,20.5,20.420000076293945,16.613707897783357,16.64618901,16.64618901,16.581228334351387,16.621828563033688,0.022557172030852758,4.700000286102295,18.950000762939453,0.0,0.0,0.0,0.0,0.0,,,,,
pylon_camera_1771860621877122464.png,1771860621877122464,1771860621.8771226,42.30097484806004,-83.6974988885269,238.6640167236328,-0.013830771364426064,-0.9996320751534569,-0.00999984877230279,-0.02108143999800551,0.00808,0.06219000000000001,-0.022350000000000005,1.9338000000000002,0.6197,-10.8406,7.3286689086038415,16.393792628412278,20.439998626708984,20.529998779296875,20.469999313354492,20.559999465942383,16.597467341675035,16.670548295377806,16.621828175837518,16.694909129540292,16.646188235607664,0.015395803333388249,4.700000286102295,20.200000762939453,0.0,0.0,0.0,0.0,0.0,,,,,
pylon_camera_1771860621926878245.png,1771860621926878245,1771860621.9268782,42.30097487219778,-83.69750243940744,238.65475463867188,-0.013392051944971617,-0.9996458657805303,-0.01010394828708976,-0.02065686814618983,-0.02807,-0.0013200000000000002,-0.019200000000000002,1.2953000000000001,0.09380000000000001,-10.0504,7.389652102365462,16.530208373865396,20.5,20.719999313354492,20.510000228881836,20.639999389648438,16.64618901,16.824830480837516,16.65430928805416,16.759869805188906,16.72129964602015,0.011560124823161532,4.400000095367432,21.774999618530273,0.0,0.0,0.0,0.0,0.0,,,,,
pylon_camera_1771860621977867662.png,1771860621977867662,1771860621.9778678,42.300974906231126,-83.69750781559677,238.6446075439453,-0.01304643521662835,-0.9996344434687878,-0.010324931431458979,-0.021311164912328574,-0.02355,-0.030830000000000007,-0.006270000000000001,0.5575,0.37220000000000003,-11.449100000000001,7.446437810236913,16.657234595231362,20.65999984741211,20.65999984741211,20.619998931884766,20.719999313354492,16.776110361297228,16.776110361297228,16.743629249080584,16.824830480837516,16.78017011312814,0.0073803077692123,3.799999952316284,23.149999618530273,0.0,0.0,0.0,0.0,0.0,,,,,
pylon_camera_1771860622027843910.png,1771860622027843910,1771860622.027844,42.30097492320068,-83.6975114245546,238.64048767089844,-0.012787431841190355,-0.9996053530238043,-0.010480404458049257,-0.022710810541650514,-0.008730000000000002,-0.05771000000000001,-0.007960000000000002,0.1751,-0.3256,-11.2813,7.4927502903243495,16.76083283443815,20.719999313354492,20.75,20.729999542236328,20.850000381469727,16.824830480837516,16.849191315,16.83295075889168,16.930392546756934,16.859341275371534,0.0058772998875676165,3.1000001430511475,24.399999618530273,0.0,0.0,0.0,0.0,0.0,,,,,
pylon_camera_1771860622079318316.png,1771860622079318316,1771860622.0793183,42.30097494353166,-83.69751687236949,238.63623046875,-0.012547369376964046,-0.9995733972975768,-0.010704580951832205,-0.024103918423035872,-0.010330000000000002,-0.04987000000000001,-0.013870000000000002,-0.13140000000000002,-0.7507,-10.190800000000001,7.526906653650091,16.837238569816034,20.869998931884766,20.989999771118164,20.899999618530273,20.979999542236328,16.946631554080582,17.04407334194584,16.970992388243065,17.03595306389168,16.999412587040293,0.009631865495746288,2.6000001430511475,24.850000381469727,0.0,0.0,0.0,0.0,0.0,,,,,
pylon_camera_1771860622128806153.png,1771860622128806153,1771860622.128806,42.300974965203615,-83.69752235026816,238.6324005126953,-0.012385904873568387,-0.9995465362445222,-0.010827577913949601,-0.025220523360117934,-0.015410000000000002,-0.040870000000000004,-0.0019500000000000003,-0.3592,-0.5569000000000001,-9.5825,7.557255408106078,16.90512691260881,20.939998626708984,21.059999465942383,21.020000457763672,21.09000015258789,17.003471951675035,17.100913739540292,17.068434176108322,17.125274573702775,17.074523610256605,0.010020433358678235,2.6000001430511475,24.5,0.0,0.0,0.0,0.0,0.0,,,,,
pylon_camera_1771860622180090844.png,1771860622180090844,1771860622.180091,42.30097497695995,-83.69752602516733,238.6299591064453,-0.01216952777619329,-0.9995307449010988,-0.011048107856473526,-0.025848247599219453,-0.012900000000000002,-0.026080000000000002,-0.008990000000000001,-0.0275,-0.4892,-9.5389,7.597850342154483,16.99593534437905,21.100000381469727,21.209999084472656,21.19999885559082,21.209999084472656,17.133394851756936,17.222714812783355,17.214594534729194,17.222714812783355,17.19835475301321,0.011909871656525512,2.6000001430511475,24.30000114440918,0.0,0.0,0.0,0.0,0.0,,,,,
pylon_camera_1771860622229985464.png,1771860622229985464,1771860622.2299855,42.300974998016265,-83.69753155953241,238.62513732910156,-0.011884132042279505,-0.9995214749260386,-0.011301852102789407,-0.026227022444892535,-0.005180000000000001,-0.019610000000000002,-0.014970000000000002,0.4923,-0.3558,-10.098,7.643817057162634,17.098760127849385,21.209999084472656,21.329999923706055,21.279998779296875,21.329999923706055,17.222714812783355,17.320156600648613,17.279555210377808,17.320156600648613,17.285645806114598,0.010929779520143418,2.6000001430511475,24.475000381469727,0.0,0.0,0.0,0.0,0.0,,,,,
pylon_camera_1771860622281233803.png,1771860622281233803,1771860622.281234,42.300975012211104,-83.69753527187976,238.6210174560547,-0.011660787273979567,-0.999512295945544,-0.011518505766826961,-0.02658044993445337,0.00859,-0.007800000000000001,-0.009460000000000001,0.6531,0.6561,-8.4162,7.685797889318653,17.19266873053247,21.34000015258789,21.309999465942383,21.459999084472656,21.489999771118164,17.328276878702773,17.30391604454029,17.425717117783357,17.45007795194584,17.376996998243065,0.010721329573648172,2.5,24.700000762939453,0.0,0.0,0.0,0.0,0.0,,,,,
pylon_camera_1771860622330951713.png,1771860622330951713,1771860622.3309517,42.30097503780155,-83.69754086218187,238.6116180419922,-0.011404194688130476,-0.9995218888064947,-0.011493790038986627,-0.026340670658743494,0.012290000000000002,0.03703,-0.014420000000000002,0.6047,0.794,-7.8834,7.711326268563915,17.249774183201364,21.65999984741211,21.639999389648438,21.60999870300293,21.649999618530273,17.588119581297228,17.571879025188903,17.54751819102642,17.579999303243067,17.571879025188903,0.01867298890794869,2.5,25.899999618530273,0.0,0.0,0.0,0.0,0.0,,,,,
pylon_camera_1771860622382012039.png,1771860622382012039,1771860622.3820121,42.300975060671426,-83.69754460192502,238.60255432128906,-0.011184499352046018,-0.9995427040314637,-0.011156135323445261,-0.02578430600886916,0.02151,0.0013300000000000002,-0.006540000000000001,-2.0245,2.1603,-8.888200000000001,7.745057072293948,17.325227967297224,21.93000030517578,21.760000228881836,21.770000457763672,21.770000457763672,17.807362442405548,17.66932081305416,17.677441091108324,17.677441091108324,17.707891359419087,0.02208706245275221,2.799999952316284,27.575000762939453,0.0,0.0,0.0,0.0,0.0,,,,,
pylon_camera_1771860622431991095.png,1771860622431991095,1771860622.431991,42.30097510448587,-83.69755021399122,238.5859375,-0.01086828876231094,-0.9996270542917507,-0.009393167933562943,-0.023225008580155197,0.030790000000000005,0.05369000000000001,-0.00281,1.2938,-0.26180000000000003,-9.9503,7.773483426528271,17.38881601613815,21.81999969482422,21.869998931884766,21.93000030517578,21.90999984741211,17.71804093259445,17.758640774080583,17.807362442405548,17.791121886297226,17.76879150884445,0.02185171735405414,3.0,30.649999618530273,0.0,0.0,0.0,0.0,0.0,,,,,
pylon_camera_1771860622491918918.png,1771860622491918918,1771860622.4919188,42.30097514556118,-83.69755587291243,238.57061767578125,-0.010438757168026058,-0.9997108339543758,-0.0080333190214236,-0.020118315250873403,0.022040000000000004,0.10096000000000002,-0.0164,1.1142,-0.9236000000000001,-10.4085,7.83025293633414,17.51580600340329,22.06999969482422,22.1299991607666,22.06999969482422,21.93000030517578,17.921043237594454,17.96976335713474,17.921043237594454,17.807362442405548,17.9048030686823,0.022208345148571836,3.0,30.625,0.0,0.0,0.0,0.0,0.0,,,,,
pylon_camera_1771860622543793407.png,1771860622543793407,1771860622.5437934,42.3009751628677,-83.6975596904876,238.5630645751953,-0.010073030275154271,-0.9997422226090155,-0.008016622650737283,-0.018701768770283313,-0.006220000000000002,0.03379000000000001,-0.015270000000000002,1.357,-1.3289,-11.333400000000001,7.915307854849092,17.70606875282613,22.19999885559082,22.18000030517578,22.170000076293945,22.18000030517578,18.026603754729194,18.010364747405546,18.00224446935139,18.010364747405546,18.012394429722917,0.017300603605071456,2.700000047683716,30.450000762939453,0.0,0.0,0.0,0.0,0.0,,,,,
pylon_camera_1771860622584455820.png,1771860622584455820,1771860622.584456,42.30097517023016,-83.69756353443441,238.55706787109375,-0.009829894065456812,-0.9997378952705012,-0.00884185178244486,-0.018690521657449066,-0.029930000000000005,-0.03606000000000001,-0.011430000000000003,1.5256,-0.5281,-10.9921,8.009076281861514,17.915823097947296,22.279998779296875,22.229999542236328,22.299999237060547,22.31999969482422,18.091564430377808,18.050964588891677,18.107804986486133,18.12404554259445,18.09359488708752,0.009922613556091179,2.200000047683716,29.975000381469727,0.0,0.0,0.0,0.0,0.0,,,,,
pylon_camera_1771860622635075075.png,1771860622635075075,1771860622.635075,42.30097516689574,-83.69756937287173,238.5509033203125,-0.00977271887965564,-0.9997091226877595,-0.00958597180863454,-0.019856311970087307,-0.025190000000000004,-0.06165000000000001,0.00102,1.3492,0.4844,-10.1066,8.094272956392702,18.106402947073093,22.44999885559082,22.439998626708984,22.44999885559082,22.51999855041504,18.229606059729196,18.22148578167503,18.229606059729196,18.28644645732365,18.24178608961427,0.007477086582957162,1.7000000476837158,29.80000114440918,0.0,0.0,0.0,0.0,0.0,,,,,
pylon_camera_1771860622687024855.png,1771860622687024855,1771860622.6870248,42.3009751612543,-83.69757330219255,238.546875,-0.009807641182196514,-0.9996671483646857,-0.00988816363631657,-0.021716972044003285,-0.014950000000000001,-0.07668000000000001,0.0005400000000000001,0.7221000000000001,0.7806000000000001,-9.9162,8.15934909290931,18.25197435989255,22.65999984741211,22.559999465942383,22.6299991607666,22.6299991607666,18.400128801297228,18.318927569540293,18.375767967134742,18.375767967134742,18.36764807627675,0.006337600201673851,1.600000023841858,29.725000381469727,0.0,0.0,0.0,0.0,0.0,,,,,
pylon_camera_1771860622735169341.png,1771860622735169341,1771860622.7351692,42.30097515432424,-83.69757924493777,238.5396728515625,-0.009870527893173553,-0.9996372112969161,-0.00987240613328711,-0.023033759284457844,-0.006950000000000001,-0.010590000000000002,0.0006000000000000001,1.0526,1.6318000000000001,-6.452100000000001,8.212483044785621,18.37083182220275,22.719999313354492,22.69999885559082,22.600000381469727,22.939998626708984,18.448848920837516,18.432608364729198,18.351408681756936,18.627490391675032,18.465089089749668,0.005130811084612975,1.600000023841858,29.625,0.0,0.0,0.0,0.0,0.0,,,,,
pylon_camera_1771860622786091917.png,1771860622786091917,1771860622.786092,42.30097515710222,-83.69758324615047,238.5371856689453,-0.00956804066586664,-0.9995824246312479,-0.009567360607423157,-0.02553222624721634,0.004940000000000001,-0.11642000000000002,-0.015920000000000004,-0.386,0.41050000000000003,-14.687000000000001,8.271182660426156,18.502139340413688,22.649999618530273,22.829999923706055,22.850000381469727,22.869998931884766,18.392008523243067,18.538170430648613,18.55441098675694,18.570649994080583,18.5138099836823,0.0006307726395250075,1.7000000476837158,29.649999618530273,0.0,0.0,0.0,0.0,0.0,,,,,
pylon_camera_1771860622835918941.png,1771860622835918941,1771860622.835919,42.300975175148515,-83.69758928734893,238.53500366210938,-0.009159241746752755,-0.999528168180499,-0.008858023365213394,-0.02794789305872403,-0.023280000000000002,-0.16826000000000002,-0.00676,-0.8253,-1.3708,-9.0775,8.359893452135841,18.70058005882075,22.899999618530273,23.15999984741211,23.239999771118164,23.239999771118164,18.595010828243066,18.80613341129723,18.871094086945842,18.871094086945842,18.785833103357994,0.004558844927220885,2.1000001430511475,29.450000762939453,0.0,0.0,0.0,0.0,0.0,,,,,
pylon_camera_1771860622886988569.png,1771860622886988569,1771860622.8869886,42.30097519018337,-83.69759333876833,238.53529357910156,-0.008885842218510298,-0.9994912874708453,-0.008648003904712777,-0.02938401106731076,0.04653000000000001,0.0036300000000000004,-0.01416,0.49960000000000004,-0.5479,-6.1039,8.378385970258428,18.74194671230989,22.78999900817871,23.389999389648438,23.40999984741211,23.350000381469727,18.50568931843197,18.992895160188905,19.009135716297227,18.960415596756935,18.867033947918756,0.0066741858532074405,2.200000047683716,29.75,0.0,0.0,0.0,0.0,0.0,,,,,
pylon_camera_1771860622936814835.png,1771860622936814835,1771860622.9368148,42.300975204182635,-83.69759943062269,238.5292205810547,-0.00876962612514487,-0.9995036990070985,-0.008175935878106111,-0.029130798157102542,0.03425,0.06898000000000001,0.00064,1.4001000000000001,-0.3271,-7.5501000000000005,8.403400526998118,18.79790277486317,23.189998626708984,23.8799991607666,23.75,23.689998626708984,18.830492696675037,19.390779492134744,19.285218975,19.236497306675037,19.185747117621204,0.020632319860525293,1.8000000715255737,29.55000114440918,0.0,0.0,0.0,0.0,0.0,,,,,
pylon_camera_1771860622987896332.png,1771860622987896332,1771860622.9878962,42.30097520818505,-83.69760350163413,238.51943969726562,-0.008717700330525657,-0.999544562339261,-0.008325138349940545,-0.02766517071005944,0.00144,0.11205000000000002,-0.0018900000000000002,0.6095,-0.28700000000000003,-6.4695,8.450951191504371,18.90427075832379,23.670000076293945,23.93000030517578,23.93000030517578,23.90999984741211,19.220258299351386,19.431380882405552,19.431380882405552,19.415140326297227,19.374540097614926,0.02487635441235257,0.800000011920929,26.17500114440918,0.0,0.0,0.0,0.0,0.0,,,,,
pylon_camera_1771860623037961091.png,1771860623037961091,1771860623.0379612,42.30097520116058,-83.69760965967592,238.49842834472656,-0.008510065170951764,-0.9995934940086353,-0.008755470678310739,-0.02576368101796895,-0.009140000000000002,0.0775,-0.0022700000000000003,0.4314,0.6393,-10.328700000000001,8.526286453269508,19.072791218776693,24.029998779296875,24.029998779296875,23.989999771118164,23.920000076293945,19.51258056537781,19.51258056537781,19.48010100194584,19.423260604351388,19.48213068426321,0.021461959122350865,0.30000001192092896,25.55000114440918,0.0,0.0,0.0,0.0,0.0,,,,,
pylon_camera_1771860623089211274.png,1771860623089211274,1771860623.0892115,42.30097518717971,-83.69761587408401,238.47647094726562,-0.00832507187432907,-0.9996337193828173,-0.009480011027588307,-0.023942632313068944,-0.041,0.06731000000000001,-5.000000000000001e-05,0.9001,0.23340000000000002,-10.1906,8.602667934292947,19.243652008937268,24.18000030517578,24.15999984741211,24.170000076293945,24.219999313354492,19.63438318740555,19.618142631297225,19.626262909351386,19.666862750837517,19.636412869722918,0.020409892083022557,0.10000000149011612,24.67500114440918,0.0,0.0,0.0,0.0,0.0,,,,,
pylon_camera_1771860623138711676.png,1771860623138711676,1771860623.1387115,42.30097516988722,-83.69762005897282,238.46243286132812,-0.008263337333186516,-0.999648785368414,-0.01053776421463071,-0.022868727400731943,-0.044660000000000005,0.05526000000000001,0.0013200000000000002,0.7045,-0.0675,-10.0996,8.674587388586978,19.404531513025756,24.3799991607666,24.459999084472656,24.059999465942383,24.279998779296875,19.796784102134744,19.861744777783354,19.53694139954029,19.71558287037781,19.727763287459048,0.01665754075105165,0.5,24.850000381469727,0.0,0.0,0.0,0.0,0.0,,,,,
pylon_camera_1771860623189990718.png,1771860623189990718,1771860623.1899908,42.30097514483708,-83.69762638939815,238.44476318359375,-0.008263864368446339,-0.9996389502886044,-0.01149677517160741,-0.02283641329654205,-0.06352000000000001,-0.031520000000000006,0.0083,0.34240000000000004,0.2462,-11.7192,8.751146727211944,19.57579015996949,24.439998626708984,24.510000228881836,24.25,24.3799991607666,19.845504221675036,19.902346168054162,19.691223585,19.796784102134744,19.808964519215984,0.011911363849992213,0.9000000357627869,24.92500114440918,0.0,0.0,0.0,0.0,0.0,,,,,
pylon_camera_1771860623240051790.png,1771860623240051790,1771860623.2400517,42.3009751290763,-83.69763064916818,238.43678283691406,-0.008222237042160518,-0.9996216412794547,-0.011381438216878356,-0.023652314218856486,-0.00302,-0.07305000000000002,-0.01048,-0.1273,0.3214,-12.5486,8.821923461377365,19.734113467693483,24.549999237060547,24.529998779296875,24.209999084472656,24.649999618530273,19.93482573148613,19.91858517537781,19.658742472783356,20.016026963243064,19.88204508572259,0.007496238342365161,1.0,24.825000762939453,0.0,0.0,0.0,0.0,0.0,,,,,
pylon_camera_1771860623291220653.png,1771860623291220653,1771860623.2912207,42.3009751256571,-83.69763708023801,238.43162536621094,-0.007808360919121627,-0.9995941180856315,-0.010506241643011236,-0.02530311196086474,-0.019820000000000004,-0.08205000000000001,-0.014600000000000004,-0.1961,-2.3493,-8.7109,8.876259162932087,19.855659171929304,24.60999870300293,24.59000015258789,24.549999237060547,25.06999969482422,19.98354585102642,19.967306843702776,19.93482573148613,20.357070897594454,20.060687330952444,0.01032593061997136,1.3000000715255737,25.850000381469727,0.0,0.0,0.0,0.0,0.0,,,,,
pylon_camera_1771860623341505408.png,1771860623341505408,1771860623.3415055,42.300975110433065,-83.69764138926558,238.42819213867188,-0.007694903372212792,-0.9995515012884566,-0.01081960191697196,-0.026842521275830294,-0.08133000000000001,-0.05702000000000001,0.0050100000000000006,-2.351,-1.6099,-11.5481,8.901998549415886,19.913236635130374,25.0,24.779998779296875,24.8799991607666,24.889999389648438,20.3002305,20.12158748037781,20.202788712134744,20.210908990188905,20.208878920675367,0.01484652098310473,1.399999976158142,26.30000114440918,0.0,0.0,0.0,0.0,0.0,,,,,
pylon_camera_1771860623392410325.png,1771860623392410325,1771860623.3924103,42.30097510297719,-83.69764787715901,238.4203338623047,-0.007738447309860342,-0.9995451901116832,-0.01094782261143554,-0.02701248855438013,-0.022710000000000004,-0.007070000000000001,0.015370000000000002,-2.2042,0.665,-8.1644,8.935792801831036,19.98883235012792,25.670000076293945,24.93000030517578,25.119998931884766,25.06999969482422,20.84427673935139,20.24339010240555,20.397670739080585,20.357070897594454,20.460602119607994,0.023601667231805738,1.899999976158142,28.075000762939453,0.0,0.0,0.0,0.0,0.0,,,,,
pylon_camera_1771860623442407689.png,1771860623442407689,1771860623.4424076,42.300975083862404,-83.6976522282019,238.41314697265625,-0.007688705206424396,-0.9995811518035851,-0.010306151832631106,-0.02592658877811955,-0.05331000000000001,-0.029960000000000007,0.01599,1.7806000000000002,-3.0208,-8.955400000000001,9.006547033759913,20.147105321698902,24.719999313354492,25.68000030517578,25.459999084472656,25.149999618530273,20.07286736083752,20.852397017405547,20.673753997783358,20.422031573243064,20.505262487317374,0.017777102958444778,2.200000047683716,28.225000381469727,0.0,0.0,0.0,0.0,0.0,,,,,
pylon_camera_1771860623501947342.png,1771860623501947342,1771860623.5019474,42.30097506242565,-83.69765877449433,238.40037536621094,-0.007452703095062241,-0.9995910411344157,-0.011189082886634592,-0.02523909912314591,-0.0043100000000000005,-0.00103,-0.006590000000000001,0.4197,-3.3673,-10.4894,9.067922886307748,20.284399421297255,25.34000015258789,25.60999870300293,25.31999969482422,25.549999237060547,20.576313758702774,20.795555071026424,20.560073202594452,20.74683495148613,20.669694245952442,0.018994638029591015,1.8000000715255737,27.05000114440918,0.0,0.0,0.0,0.0,0.0,,,,,
pylon_camera_1771860623544655401.png,1771860623544655401,1771860623.5446553,42.30097504746677,-83.6976631687939,238.3905792236328,-0.007193054227087048,-0.9995947423348688,-0.011635403719426764,-0.024964543810362786,0.045950000000000005,-0.028510000000000004,-0.020920000000000005,0.9391,-0.4187,-10.314200000000001,9.130037043689457,20.423345064510695,25.44999885559082,25.3799991607666,25.479999542236328,25.489999771118164,20.665633719729193,20.608793322134744,20.68999455389168,20.69811483194584,20.665634106925364,0.01186333784447927,1.7000000476837158,24.55000114440918,0.0,0.0,0.0,0.0,0.0,,,,,
pylon_camera_1771860623596466743.png,1771860623596466743,1771860623.5964668,42.30097502742772,-83.69766980627259,238.37506103515625,-0.007009737441381947,-0.9995995992797166,-0.011542344198756903,-0.024865216492727642,0.01887,-0.005420000000000001,-0.011260000000000001,0.8471000000000001,1.8395000000000001,-9.0724,9.174041701273445,20.52178084324662,25.689998626708984,25.670000076293945,25.56999969482422,25.670000076293945,20.860515746675034,20.84427673935139,20.763075507594454,20.84427673935139,20.828036183243064,0.01492342903063538,1.899999976158142,17.25,0.0,0.0,0.0,0.0,0.0,,,,,
pylon_camera_1771860623645093637.png,1771860623645093637,1771860623.6450937,42.3009750159278,-83.69767425077325,238.36436462402344,-0.006764026451859972,-0.9996148867545103,-0.010763189537169563,-0.024667384861655487,0.015110000000000002,0.013080000000000001,-0.007750000000000001,0.5119,1.2988,-9.0889,9.21223563027732,20.60721837079255,25.8799991607666,25.8799991607666,25.6299991607666,25.729999542236328,21.014797932134744,21.014797932134744,20.811795627134742,20.892996858891678,20.93359708757398,0.015838077265392624,2.5,2.700000047683716,0.0,0.0,0.0,0.0,0.0,,,,,
pylon_camera_1771860623697076626.png,1771860623697076626,1771860623.6970768,42.30097501043886,-83.6976809592681,238.34951782226562,-0.006454521005416492,-0.9996264799163113,-0.009551141833826491,-0.02477933611672108,0.06395,0.03293000000000001,-0.02355,0.745,1.5209000000000001,-11.1445,9.259681717760945,20.713352421728167,25.899999618530273,25.8799991607666,25.549999237060547,25.85999870300293,21.031038488243063,21.014797932134744,20.74683495148613,20.998557376026422,20.94780718697259,0.011319015892303387,3.0,0.0,0.0,0.0,0.0,0.0,0.0,,,,,
pylon_camera_1771860623744870991.png,1771860623744870991,1771860623.744871,42.30097500623216,-83.69768546603534,238.34469604492188,-0.005803662467470717,-0.9996079728319327,-0.008205782355339246,-0.02613203567911868,-0.07961000000000001,-0.053200000000000004,-0.026370000000000005,-1.5790000000000002,-5.0118,-10.1004,9.303805696078797,20.812055113786506,25.529998779296875,26.029998779296875,25.649999618530273,25.809999465942383,20.73059439537781,21.136599005377807,20.828036183243064,20.95795753454029,20.91329677963474,0.004864568409737187,3.799999952316284,0.0,0.0,0.0,0.0,0.0,0.0,,,,,
pylon_camera_1771860623795999023.png,1771860623795999023,1771860623.795999,42.30097498318921,-83.6976922529859,238.3354034423828,-0.005528224305467012,-0.9995726013806956,-0.00907414864007186,-0.027234410798023394,-0.047880000000000006,-0.08144000000000001,-0.038840000000000006,-2.1411000000000002,-6.2616000000000005,-10.760900000000001,9.362538635000304,20.943437174177582,26.099998474121094,26.119998931884766,26.01999855041504,26.44999885559082,21.19343940297226,21.20967995908058,21.12847872732365,21.477642939729197,21.25231025727642,0.014747965223190123,3.700000047683716,0.0,0.0,0.0,0.0,0.0,0.0,,,,,
pylon_camera_1771860623845485303.png,1771860623845485303,1771860623.8454852,42.30097495594875,-83.69769679414674,238.32720947265625,-0.005284284708778454,-0.9995366716015693,-0.010949481519574759,-0.027903894230472296,0.006770000000000001,-0.07678000000000001,-0.03925000000000001,0.1995,0.1908,-9.3185,9.410050922115174,21.049719309716316,26.149999618530273,26.15999984741211,26.059999465942383,26.3799991607666,21.234040793243068,21.24216107129723,21.160959839540293,21.420802542134744,21.264491061553834,0.010203069631355186,2.9000000953674316,0.0,0.0,0.0,0.0,0.0,0.0,,,,,
pylon_camera_1771860623896157957.png,1771860623896157957,1771860623.896158,42.300974896145,-83.69770362948309,238.31304931640625,-0.005006437496302308,-0.9995093131624557,-0.011763071152691392,-0.028595430442090616,-0.03602,-0.0028500000000000005,-0.01642,1.0267,0.6033000000000001,-9.4839,9.41277824573103,21.05582016900557,26.25,26.260000228881836,26.06999969482422,26.1299991607666,21.315242025000003,21.323362303054164,21.169080117594454,21.217800237134743,21.256371170695843,0.009524729983469626,2.700000047683716,0.0,0.0,0.0,0.0,0.0,0.0,,,,,
pylon_camera_1771860623946636890.png,1771860623946636890,1771860623.946637,42.30097485302879,-83.69770818908077,238.3033447265625,-0.004641600377102818,-0.9994895396257238,-0.011811315619338753,-0.029319081637022962,-0.017240000000000002,-0.039200000000000006,-0.019790000000000002,0.082,0.28950000000000004,-9.7425,9.417922268230097,21.067327038694636,26.219999313354492,26.31999969482422,26.25,26.28999900817871,21.290881190837517,21.372082422594453,21.315242025000003,21.34772158843197,21.331481806715985,0.012538599108286147,3.1000001430511475,0.0,0.0,0.0,0.0,0.0,0.0,,,,,
pylon_camera_1771860624006485174.png,1771860624006485174,1771860624.0064852,42.30097480000673,-83.69771503682216,238.2889404296875,-0.004232964445387511,-0.9994784143132343,-0.01140469700856749,-0.02991511691519314,0.04028,-0.014700000000000003,-0.009700000000000002,0.7495,3.6618000000000004,-11.3582,9.434665249981222,21.104780084292997,26.389999389648438,26.299999237060547,26.19999885559082,26.28999900817871,21.4289228201889,21.35584186648613,21.274640634729195,21.34772158843197,21.35178172745905,0.01170358763178392,4.099999904632568,0.0,0.0,0.0,0.0,0.0,0.0,,,,,
pylon_camera_1771860624047666256.png,1771860624047666256,1771860624.047666,42.30097477440482,-83.69771961302732,238.28021240234375,-0.0036983237500305415,-0.9994629124317231,-0.010244185876762298,-0.03090737340280268,0.04798000000000001,0.012240000000000003,-0.0024000000000000002,-0.13340000000000002,1.4911,-8.5009,9.449737068055391,21.138494837015827,25.869998931884766,25.979999542236328,26.34000015258789,26.25,21.006677654080583,21.09599916389168,21.388322978702774,21.315242025000003,21.20156045541876,0.0029834488637525552,4.599999904632568,0.0,0.0,0.0,0.0,0.0,0.0,,,,,
pylon_camera_1771860624098492544.png,1771860624098492544,1771860624.0984924,42.300974745574315,-83.6977264850925,238.2666778564453,-0.003175665845578047,-0.9994232265281655,-0.009037338538715087,-0.03257999285765126,0.00493,-0.0045000000000000005,-0.019520000000000003,-0.3793,-1.5393000000000001,-9.3284,9.452303388737814,21.144235542403166,26.25,26.40999984741211,26.25,26.309999465942383,21.315242025000003,21.445163376297227,21.315242025000003,21.36396214454029,21.359902392709383,0.010199794164878345,4.400000095367432,0.0,0.0,0.0,0.0,0.0,0.0,,,,,
pylon_camera_1771860624148330214.png,1771860624148330214,1771860624.1483302,42.300974720777155,-83.69773106730285,238.2566680908203,-0.0027691347082631776,-0.9994102876192923,-0.008423449118343076,-0.03317309751352422,0.00044000000000000007,-0.00321,-0.011040000000000001,-1.6882000000000001,-1.5751000000000002,-8.2722,9.431019834785827,21.09662550922581,26.439998626708984,26.6299991607666,26.529998779296875,26.459999084472656,21.469522661675033,21.623804847134743,21.542603615377807,21.485763217783358,21.530423585492734,0.020562439053450492,3.799999952316284,2.549999952316284,0.0,0.0,0.0,0.0,0.0,,,,,
pylon_camera_1771860624199264008.png,1771860624199264008,1771860624.199264,42.300974659785915,-83.69773791104244,238.235595703125,-0.0024185966600566164,-0.9994503914036297,-0.008611883148214124,-0.031920228413479385,-0.017480000000000002,0.10817000000000002,-0.0046500000000000005,-1.0914000000000001,-0.10060000000000001,-9.127,9.385998376536143,20.99591520840876,26.719999313354492,26.809999465942383,26.3799991607666,26.44999885559082,21.696885800837517,21.76996675454029,21.420802542134744,21.477642939729197,21.591324509310436,0.02835833994334368,3.200000047683716,2.799999952316284,0.0,0.0,0.0,0.0,0.0,,,,,
pylon_camera_1771860624249627716.png,1771860624249627716,1771860624.2496276,42.30097457713827,-83.6977447453704,238.21322631835938,-0.00208136836282008,-0.9995016149129392,-0.009177550188522374,-0.03013241219521196,-0.02477,0.11601000000000002,-0.00335,-0.9336000000000001,-0.7782,-11.811300000000001,9.413460901598942,21.05734722922274,26.65999984741211,26.76999855041504,26.5,26.439998626708984,21.64816568129723,21.737485642323648,21.51824433,21.469522661675033,21.593354578823977,0.02545464743333784,2.9000000953674316,3.075000047683716,0.0,0.0,0.0,0.0,0.0,,,,,
pylon_camera_1771860624300503865.png,1771860624300503865,1771860624.3005037,42.300974519009074,-83.69774931266649,238.20040893554688,-0.0018149586398200086,-0.9995224729002756,-0.00956320293985342,-0.02932707353257066,-0.022430000000000002,0.029070000000000002,-0.006020000000000001,-1.1343,-0.7848,-13.177200000000001,9.443125918728072,21.123706092639573,26.40999984741211,26.44999885559082,26.40999984741211,26.809999465942383,21.445163376297227,21.477642939729197,21.445163376297227,21.76996675454029,21.534484111715987,0.01944630441622869,3.5,2.7250001430511475,0.0,0.0,0.0,0.0,0.0,,,,,
pylon_camera_1771860624350148782.png,1771860624350148782,1771860624.350149,42.300974443584956,-83.6977561941113,238.18179321289062,-0.0015908507682976809,-0.9995302149189462,-0.009193095039776802,-0.029194274464488062,0.04012000000000001,0.0029400000000000003,-0.017970000000000003,-0.622,0.028800000000000003,-7.3881000000000006,9.468996183882641,21.181576323574436,26.349998474121094,26.3799991607666,26.65999984741211,26.8799991607666,21.396441707972258,21.420802542134744,21.64816568129723,21.82680715213474,21.57305427088474,0.01848200253512768,4.700000286102295,3.0,0.0,0.0,0.0,0.0,0.0,,,,,
pylon_camera_1771860624401037145.png,1771860624401037145,1771860624.401037,42.30097440518266,-83.69776078726353,238.16671752929688,-0.0010192615466548267,-0.9995498667257919,-0.008059835506407749,-0.028880167692739253,0.06611,0.043620000000000006,-0.029680000000000005,1.4282000000000001,0.4587,-11.7682,9.485749725550297,21.219052991072484,26.309999465942383,26.469999313354492,26.510000228881836,26.25,21.36396214454029,21.49388349583752,21.526364608054163,21.315242025000003,21.424863068357993,0.00969930549549501,6.099999904632568,3.075000047683716,0.0,0.0,0.0,0.0,0.0,,,,,
pylon_camera_1771860624451288496.png,1771860624451288496,1771860624.4512885,42.30097435139008,-83.69776768353329,238.14703369140625,-0.00028212050226772493,-0.9995477638758652,-0.006680038736682244,-0.029318342744030383,0.05550000000000001,-0.00048,-0.04118,2.2640000000000002,-1.0336,-10.4457,9.504072610657,21.26004018568307,26.279998779296875,26.510000228881836,26.40999984741211,26.439998626708984,21.33960131037781,21.526364608054163,21.445163376297227,21.469522661675033,21.445162989101057,0.008707547201281937,6.800000190734863,3.424999952316284,0.0,0.0,0.0,0.0,0.0,,,,,
pylon_camera_1771860624502404275.png,1771860624502404275,1771860624.5024045,42.3009743105508,-83.69777228005955,238.13771057128906,0.0006289139775054179,-0.9995084133921881,-0.00633882370080811,-0.030697806754390284,0.004570000000000001,-0.06179000000000001,-0.04528000000000001,-1.0230000000000001,-1.7079,-15.5858,9.493999981351038,21.237508318283393,26.219999313354492,26.44999885559082,26.65999984741211,26.53999900817871,21.290881190837517,21.477642939729197,21.64816568129723,21.550723893431968,21.491853426323978,0.01197622170307141,8.0,3.875,0.0,0.0,0.0,0.0,0.0,,,,,
pylon_camera_1771860624552214426.png,1771860624552214426,1771860624.5522146,42.30097423120712,-83.69777919471191,238.1285858154297,0.0014464507144719132,-0.9994608004244133,-0.006206971585038131,-0.03221008691488112,-0.009450000000000002,-0.03814,-0.046880000000000005,-1.8224,-1.6263,-9.1572,9.489139509667943,21.22663573475661,26.309999465942383,26.439998626708984,26.459999084472656,26.809999465942383,21.36396214454029,21.469522661675033,21.485763217783358,21.76996675454029,21.522303694634743,0.013929101322165993,9.0,5.400000095367432,0.0,0.0,0.0,0.0,0.0,,,,,
pylon_camera_1771860624611884940.png,1771860624611884940,1771860624.611885,42.30097413447555,-83.69778608827275,238.11468505859375,0.002422591285644481,-0.9994489084337179,-0.006073315328482024,-0.03254420567524858,-0.0073100000000000005,0.040470000000000006,-0.034120000000000004,-1.1223,-1.4114,-8.7278,9.469759076942395,21.183282869575525,26.469999313354492,26.60999870300293,26.5,26.579999923706055,21.49388349583752,21.60756429102642,21.51824433,21.58320500564861,21.55072428062814,0.017345819971103304,9.800000190734863,6.200000286102295,0.0,0.0,0.0,0.0,0.0,,,,,
pylon_camera_1771860624654892239.png,1771860624654892239,1771860624.6548922,42.3009740610317,-83.69779067751519,238.10260009765625,0.0033262942423037947,-0.999473608840808,-0.005977155298864986,-0.03171300382931409,-0.0019400000000000003,0.03418000000000001,-0.037570000000000006,-1.0065,-0.07350000000000001,-8.4601,9.467720855732876,21.178723491023103,26.439998626708984,26.779998779296875,26.529998779296875,26.59000015258789,21.469522661675033,21.74560592037781,21.542603615377807,21.591325283702773,21.587264370283354,0.01929015596399927,9.90000057220459,6.200000286102295,0.0,0.0,0.0,0.0,0.0,,,,,
pylon_camera_1771860624705067784.png,1771860624705067784,1771860624.7050679,42.30097398195199,-83.69779527151722,238.08905029296875,0.004182408777087364,-0.9994953088107127,-0.005755954485825325,-0.030959717539999057,0.0040100000000000005,0.0182,-0.019360000000000002,-3.3634,-0.49520000000000003,-9.148200000000001,9.455461410710049,21.151299848073737,26.309999465942383,26.68000030517578,26.489999771118164,26.689998626708984,21.36396214454029,21.664406237405547,21.510124051945837,21.672524966675034,21.552754350141676,0.018980133842908916,9.699999809265137,6.0,0.0,0.0,0.0,0.0,0.0,,,,,
pylon_camera_1771860624764772775.png,1771860624764772775,1771860624.764773,42.30097385782709,-83.6978021356827,238.06570434570312,0.005408824989335314,-0.9995727903377635,-0.005742670018956387,-0.028142550873469698,0.006,0.13273000000000001,-0.028590000000000004,-2.0697,-1.2217,-12.0363,9.42589543470819,21.08516253371614,27.01999855041504,27.01999855041504,26.489999771118164,26.729999542236328,21.940487947323646,21.940487947323646,21.510124051945837,21.705006078891678,21.7740265063712,0.03267055549387087,9.5,7.325000286102295,0.0,0.0,0.0,0.0,0.0,,,,,
pylon_camera_1771860624804948548.png,1771860624804948548,1771860624.8049486,42.30097376360826,-83.69780670436501,238.05015563964844,0.0062622968470678044,-0.9996426808557609,-0.005566347565911272,-0.025383262683938427,0.004540000000000001,0.11820000000000001,-0.028970000000000003,0.4555,-0.8976000000000001,-9.333400000000001,9.44218119407745,21.121592800279615,26.489999771118164,26.469999313354492,26.579999923706055,26.68000030517578,21.510124051945837,21.49388349583752,21.58320500564861,21.664406237405547,21.562904697709378,0.02089387394230614,9.300000190734863,7.275000095367432,0.0,0.0,0.0,0.0,0.0,,,,,
pylon_camera_1771860624855434861.png,1771860624855434861,1771860624.8554347,42.300973607097056,-83.69781355511604,238.0286102294922,0.00728898403375433,-0.9997073975962585,-0.006472873144072093,-0.022138017443598324,-0.05469000000000001,0.10895,-0.029480000000000003,1.5966,1.7703,-10.816500000000001,9.456697252115571,21.154064351147408,26.459999084472656,26.510000228881836,26.56999969482422,26.799999237060547,21.485763217783358,21.526364608054163,21.575084727594454,21.76184647648613,21.587264757479527,0.020478353433231487,8.90000057220459,7.099999904632568,0.0,0.0,0.0,0.0,0.0,,,,,
pylon_camera_1771860624905839077.png,1771860624905839077,1771860624.9058392,42.300973488714,-83.6978181318901,238.017578125,0.008237913968740462,-0.9997449458861115,-0.007024926319700271,-0.0198199485070582,0.00429,0.11129000000000001,-0.026310000000000004,0.2368,2.7333000000000003,-10.0083,9.446345982383017,21.130909181831868,26.65999984741211,26.899999618530273,26.579999923706055,26.849998474121094,21.64816568129723,21.843047708243066,21.58320500564861,21.80244631797226,21.71921617829029,0.027841064073297946,8.699999809265137,7.400000095367432,0.0,0.0,0.0,0.0,0.0,,,,,
pylon_camera_1771860624955706877.png,1771860624955706877,1771860624.9557068,42.300973319649884,-83.69782499792235,238.004638671875,0.00911607249039903,-0.9997918519581226,-0.005921536203232187,-0.01726514956469267,0.05647000000000001,0.12141000000000002,-0.03168,0.3483,0.4757,-10.8496,9.437270304154891,21.110607434176245,27.099998474121094,26.809999465942383,26.779998779296875,26.809999465942383,22.00544862297226,21.76996675454029,21.74560592037781,21.76996675454029,21.822747013107662,0.03373373225530805,8.90000057220459,6.950000286102295,0.0,0.0,0.0,0.0,0.0,,,,,
pylon_camera_1771860625006670072.png,1771860625006670072,1771860625.00667,42.30097320119394,-83.69782957878044,237.9964141845703,0.010087717254594786,-0.999829206150989,-0.004877466304155937,-0.014697170153670766,-0.023680000000000003,0.10096000000000002,-0.05041,0.8989,-4.314,-9.7585,9.473166586060934,21.190905263023147,26.809999465942383,26.8799991607666,26.920000076293945,26.53999900817871,21.76996675454029,21.82680715213474,21.859288264351388,21.550723893431968,21.751696516114595,0.026463770477516843,9.100000381469727,3.2250001430511475,0.0,0.0,0.0,0.0,0.0,,,,,
pylon_camera_1771860625056663851.png,1771860625056663851,1771860625.0566638,42.30097300910838,-83.69783647422854,237.9898681640625,0.011084948055281263,-0.9998292893306073,-0.004988139108907897,-0.013915264693664109,-0.029400000000000006,-0.0028400000000000005,-0.04616000000000001,-0.2369,-3.8743000000000003,-13.1065,9.496159975752997,21.24234009616091,26.549999237060547,26.809999465942383,26.40999984741211,26.969999313354492,21.558844171486133,21.76996675454029,21.445163376297227,21.899888105837515,21.668465602040293,0.020060196002435554,8.800000190734863,0.949999988079071,0.0,0.0,0.0,0.0,0.0,,,,,
pylon_camera_1771860625107863175.png,1771860625107863175,1771860625.1078632,42.30097289287882,-83.6978410812419,237.98928833007812,0.012116752754990301,-0.9998041860270872,-0.005069097712307801,-0.014801288922624735,0.025100000000000004,-0.034870000000000005,-0.06860000000000001,-0.016300000000000002,-4.3535,-13.6866,9.53092548619231,21.320108457083027,26.389999389648438,26.59000015258789,26.760000228881836,26.619998931884766,21.4289228201889,21.591325283702773,21.72936691305416,21.61568456908058,21.591324896506606,0.012721156647468878,8.5,0.0,0.0,0.0,0.0,0.0,0.0,,,,,
pylon_camera_1771860625157754922.png,1771860625157754922,1771860625.157755,42.3009726830793,-83.69784802177436,237.99473571777344,0.012786455731723656,-0.9997534893346323,-0.005971106597280256,-0.017140974273717156,-0.020710000000000006,-0.09719000000000001,-0.03479000000000001,-0.502,0.1524,-8.6455,9.55078679676702,21.36453701716002,26.329999923706055,26.549999237060547,26.6299991607666,26.719999313354492,21.380202700648614,21.558844171486133,21.623804847134743,21.696885800837517,21.564934380026752,0.009379906651184234,8.199999809265137,0.0,0.0,0.0,0.0,0.0,0.0,,,,,
pylon_camera_1771860625208838510.png,1771860625208838510,1771860625.2088385,42.30097244221193,-83.69785496727143,237.99786376953125,0.013406355504382017,-0.999696967048045,-0.007067815444290571,-0.0193981878502958,-0.021340000000000005,-0.07499,-0.031050000000000005,0.3306,1.6009,-8.479800000000001,9.550165653106008,21.363147556058955,26.3799991607666,26.510000228881836,26.299999237060547,26.549999237060547,21.420802542134744,21.526364608054163,21.35584186648613,21.558844171486133,21.46546329704029,0.00478935703237781,7.800000190734863,0.0,0.0,0.0,0.0,0.0,0.0,,,,,
pylon_camera_1771860625258557429.png,1771860625258557429,1771860625.2585576,42.30097228922998,-83.69785959311572,238.0004119873047,0.014259385536848412,-0.9996342040997874,-0.00698160811363436,-0.021894863919277273,0.02695,-0.062160000000000014,-0.038450000000000005,0.7958000000000001,-0.5311,-10.5074,9.538267537791464,21.336532185987238,26.329999923706055,26.549999237060547,26.369998931884766,26.459999084472656,21.380202700648614,21.558844171486133,21.412682264080583,21.485763217783358,21.45937308849967,0.005757304019305845,7.400000095367432,0.0,0.0,0.0,0.0,0.0,0.0,,,,,
pylon_camera_1771860625309884456.png,1771860625309884456,1771860625.3098843,42.30097204743645,-83.69786652148653,238.00296020507812,0.01511414892728069,-0.9995774883354661,-0.00715985988714875,-0.023772751661543284,-0.03458,-0.05494000000000001,-0.023490000000000004,-0.7352000000000001,0.0234,-6.6723,9.510665537867876,21.274788168278167,26.399999618530273,26.579999923706055,26.34000015258789,26.619998931884766,21.437043098243066,21.58320500564861,21.388322978702774,21.61568456908058,21.50606391291876,0.010870883545878752,7.599999904632568,0.0,0.0,0.0,0.0,0.0,0.0,,,,,
pylon_camera_1771860625359563473.png,1771860625359563473,1771860625.3595636,42.30097187467897,-83.69787112618944,238.0009307861328,0.015910392710593857,-0.999537341053275,-0.008081879362215983,-0.024630194272848516,-0.0432,-0.00446,-0.02313,-1.1061,0.499,-8.5091,9.482576564043171,21.21195481917073,26.489999771118164,26.6299991607666,26.469999313354492,26.65999984741211,21.510124051945837,21.623804847134743,21.49388349583752,21.64816568129723,21.56899451905383,0.016832003600178214,7.599999904632568,0.0,0.0,0.0,0.0,0.0,0.0,,,,,
pylon_camera_1771860625410795951.png,1771860625410795951,1771860625.410796,42.30097161343711,-83.69787803186732,237.993408203125,0.016647772021291085,-0.9995139452891637,-0.008431379508837352,-0.024972719090965215,-0.021840000000000005,0.0036100000000000004,-0.02476,-1.6007,-0.45840000000000003,-8.558300000000001,9.479922431246854,21.206017683353338,26.389999389648438,26.53999900817871,26.549999237060547,26.65999984741211,21.4289228201889,21.550723893431968,21.558844171486133,21.64816568129723,21.546664141601056,0.016063669442052994,7.400000095367432,0.0,0.0,0.0,0.0,0.0,0.0,,,,,
pylon_camera_1771860625460435933.png,1771860625460435933,1771860625.4604359,42.30097143317942,-83.69788263194513,237.9858856201172,0.017355895348695527,-0.999502972264615,-0.008728001723669587,-0.024827471010091497,-0.017230000000000002,0.021910000000000002,-0.025460000000000003,-1.3976000000000002,-0.6527000000000001,-8.4898,9.475282192082668,21.195637746757406,26.549999237060547,26.56999969482422,26.53999900817871,26.59000015258789,21.558844171486133,21.575084727594454,21.550723893431968,21.591325283702773,21.56899451905383,0.017614793041721186,7.400000095367432,0.0,0.0,0.0,0.0,0.0,0.0,,,,,
pylon_camera_1771860625511287719.png,1771860625511287719,1771860625.5112877,42.3009711571091,-83.69788951537798,237.97067260742188,0.018132657949168685,-0.9995067976772657,-0.009098604963688854,-0.023970471425290445,-0.015210000000000003,0.04247000000000001,-0.03169,-0.9664,0.0732,-8.745000000000001,9.46704427279753,21.177210015591708,26.65999984741211,26.579999923706055,26.53999900817871,26.56999969482422,21.64816568129723,21.58320500564861,21.550723893431968,21.575084727594454,21.589294826993065,0.019458881084805774,7.0,0.0,0.0,0.0,0.0,0.0,0.0,,,,,
pylon_camera_1771860625561656058.png,1771860625561656058,1771860625.561656,42.30097097028852,-83.69789410734741,237.96031188964844,0.01889957351562005,-0.9995141102547961,-0.009465420169295443,-0.022907539010328305,-0.014820000000000002,0.05458000000000001,-0.030390000000000004,-0.6928000000000001,-0.5629000000000001,-9.9208,9.458651255068418,21.15843533851275,26.59000015258789,26.760000228881836,26.459999084472656,26.549999237060547,21.591325283702773,21.72936691305416,21.485763217783358,21.558844171486133,21.591324896506606,0.0204594314781825,6.700000286102295,0.0,0.0,0.0,0.0,0.0,0.0,,,,,
pylon_camera_1771860625621540234.png,1771860625621540234,1771860625.6215403,42.300970675090845,-83.69790098835956,237.94651794433594,0.01970679918656021,-0.9995146541000339,-0.010132830989187012,-0.021895753954918377,-0.02024,-0.0004300000000000001,-0.019110000000000002,-1.3009000000000002,-0.8877,-11.41,9.459991403441236,21.16143317001384,26.649999618530273,26.739999771118164,26.510000228881836,26.619998931884766,21.640045403243068,21.71312635694584,21.526364608054163,21.61568456908058,21.623805234330913,0.02184975188600472,6.700000286102295,0.0,0.0,0.0,0.0,0.0,0.0,,,,,
pylon_camera_1771860625664280156.png,1771860625664280156,1771860625.6642802,42.30097047599456,-83.69790558447363,237.9400177001953,0.020358114084805257,-0.9995046981069684,-0.010367115413364512,-0.021643210737172135,-0.006860000000000001,-0.018170000000000006,-0.027770000000000003,-0.3251,-1.2803,-11.8489,9.490795388760375,21.230339836933634,26.369998931884766,26.369998931884766,26.369998931884766,26.68000030517578,21.412682264080583,21.412682264080583,21.412682264080583,21.664406237405547,21.475613257411823,0.011552967232841712,6.700000286102295,0.0,0.0,0.0,0.0,0.0,0.0,,,,,
pylon_camera_1771860625713172758.png,1771860625713172758,1771860625.7131727,42.300970169532484,-83.69791248943024,237.9327850341797,0.02088657259942711,-0.9994772149253769,-0.010704492798268827,-0.022236496216641893,-0.00858,-0.07706,-0.035160000000000004,0.47000000000000003,0.6347,-8.8163,9.508204252019068,21.269282419511534,26.28999900817871,26.299999237060547,26.53999900817871,26.65999984741211,21.34772158843197,21.35584186648613,21.550723893431968,21.64816568129723,21.475613257411823,0.009700883830053896,6.700000286102295,0.0,0.0,0.0,0.0,0.0,0.0,,,,,
pylon_camera_1771860625764420627.png,1771860625764420627,1771860625.7644205,42.300969965493834,-83.69791709880954,237.9288330078125,0.021797730376304614,-0.9994145230578357,-0.010720702041730243,-0.024094327117663464,0.03148,-0.07531000000000002,-0.035980000000000005,0.7154,-0.8197,-9.5039,9.525941348252449,21.308959239559833,26.399999618530273,26.399999618530273,26.649999618530273,26.510000228881836,21.437043098243066,21.437043098243066,21.640045403243068,21.526364608054163,21.51012405194584,0.00944038655874603,6.5,0.0,0.0,0.0,0.0,0.0,0.0,,,,,
pylon_camera_1771860625816336497.png,1771860625816336497,1771860625.8163364,42.300969648175005,-83.69792403351414,237.92385864257812,0.02251032594409136,-0.9993373223891358,-0.010957547991922032,-0.026422215047349238,0.022800000000000004,-0.12051,-0.04519000000000001,0.7230000000000001,-0.6694,-8.9582,9.53909098065856,21.33837417827436,26.279998779296875,26.459999084472656,26.3799991607666,26.439998626708984,21.33960131037781,21.485763217783358,21.420802542134744,21.469522661675033,21.428922432992735,0.004243446757558786,6.5,0.0,0.0,0.0,0.0,0.0,0.0,,,,,
pylon_camera_1771860625864419499.png,1771860625864419499,1771860625.8644197,42.30096942958108,-83.69792866720721,237.920166015625,0.023118283584049715,-0.9992582680503539,-0.01104805846802426,-0.02874715814166486,0.013070000000000002,-0.09961000000000002,-0.03536,-0.9342,0.6153000000000001,-9.5058,9.522884497537117,21.30212124792068,26.34000015258789,26.469999313354492,26.40999984741211,26.329999923706055,21.388322978702774,21.49388349583752,21.445163376297227,21.380202700648614,21.426893137871534,0.005857251890491071,6.5,0.0,0.0,0.0,0.0,0.0,0.0,,,,,
pylon_camera_1771860625915357727.png,1771860625915357727,1771860625.9153576,42.30096909652993,-83.69793559530974,237.91311645507812,0.02369452973858538,-0.9991956639322728,-0.010819324778015076,-0.03048830350741265,0.022030000000000004,-0.046430000000000006,-0.03214,-0.8556,-0.3677,-8.085700000000001,9.509102229864174,21.271291142072368,26.420000076293945,26.510000228881836,26.25,26.6299991607666,21.453283654351388,21.526364608054163,21.315242025000003,21.623804847134743,21.47967378363507,0.009796426562492242,6.5,0.0,0.0,0.0,0.0,0.0,0.0,,,,,
pylon_camera_1771860625965822947.png,1771860625965822947,1771860625.965823,42.300968874490394,-83.69794020529736,237.90771484375,0.02436826629729233,-0.999150936123329,-0.010454081811256224,-0.03153262778493345,0.015470000000000003,-0.00903,-0.035500000000000004,-1.2778,-1.5654000000000001,-8.973600000000001,9.492012425878048,21.23306227594364,26.529998779296875,26.65999984741211,26.5,26.60999870300293,21.542603615377807,21.64816568129723,21.51824433,21.60756429102642,21.579144479425366,0.016299212943665903,6.5,0.0,0.0,0.0,0.0,0.0,0.0,,,,,
pylon_camera_1771860626016252536.png,1771860626016252536,1771860626.0162525,42.30096853098066,-83.69794710887527,237.89578247070312,0.024975433968358107,-0.9991325040253891,-0.01065516847844905,-0.03157426931449032,0.024100000000000003,-0.013460000000000001,-0.03574000000000001,-1.677,2.5869,-9.6288,9.484797959974696,21.216923948585798,26.59000015258789,26.389999389648438,26.5,26.549999237060547,21.591325283702773,21.4289228201889,21.51824433,21.558844171486133,21.52433415134445,0.014488914769341181,6.300000190734863,0.0,0.0,0.0,0.0,0.0,0.0,,,,,
pylon_camera_1771860626066166828.png,1771860626066166828,1771860626.0661669,42.30096830192147,-83.6979516936726,237.88525390625,0.02558612270627758,-0.9991667988850729,-0.009443055922152008,-0.030362592535335447,0.043030000000000006,0.06292,-0.03781,0.2036,1.2612,-6.6753,9.46059834769845,21.162790867900572,26.309999465942383,26.619998931884766,26.619998931884766,26.619998931884766,21.36396214454029,21.61568456908058,21.61568456908058,21.61568456908058,21.55275396294551,0.018426827419838455,6.0,0.0,0.0,0.0,0.0,0.0,0.0,,,,,
pylon_camera_1771860626117253583.png,1771860626117253583,1771860626.1172535,42.30096795827866,-83.69795856312116,237.86497497558594,0.026222168239098786,-0.9992099566358227,-0.008269657594501706,-0.028696223025818816,0.011250000000000001,0.09574000000000002,-0.01607,-1.2319,0.7546,-8.3115,9.440070289382213,21.116870833130648,26.809999465942383,26.65999984741211,26.549999237060547,26.739999771118164,21.76996675454029,21.64816568129723,21.558844171486133,21.71312635694584,21.67252574106737,0.02631331660488951,5.900000095367432,0.0,0.0,0.0,0.0,0.0,0.0,,,,,
pylon_camera_1771860626167080473.png,1771860626167080473,1771860626.1670804,42.30096772122691,-83.69796313740504,237.84991455078125,0.02697021645406089,-0.9992643584025791,-0.007666890076291889,-0.026164255144397703,0.004390000000000001,0.08462,-0.025330000000000002,-1.2794,-1.1775,-10.8492,9.442113192463705,21.12144068474976,26.329999923706055,27.34000015258789,26.579999923706055,26.69999885559082,21.380202700648614,22.200332198702775,21.58320500564861,21.680645244729195,21.711096287432298,0.027917395005553965,5.700000286102295,0.0,0.0,0.0,0.0,0.0,0.0,,,,,
pylon_camera_1771860626218026033.png,1771860626218026033,1771860626.218026,42.300967354941434,-83.69796999478423,237.8278045654297,0.02764205936537345,-0.9993059397483894,-0.007859140013007882,-0.02370209391351179,0.048190000000000004,0.049280000000000004,-0.021880000000000004,0.4887,0.069,-11.6981,9.475128226179642,21.19529333427029,26.619998931884766,26.549999237060547,26.60999870300293,26.729999542236328,21.61568456908058,21.558844171486133,21.60756429102642,21.705006078891678,21.621774777621205,0.020121516443527852,5.300000190734863,0.0,0.0,0.0,0.0,0.0,0.0,,,,,
pylon_camera_1771860626267837516.png,1771860626267837516,1771860626.2678375,42.30096710437991,-83.69797458774262,237.8160858154297,0.028279864361202445,-0.99930620448832,-0.007842978830701787,-0.022931345924765145,0.031130000000000005,-0.020520000000000004,-0.028710000000000003,0.5139,1.7736,-11.1053,9.518805066002315,21.29299580434322,26.59000015258789,26.549999237060547,26.529998779296875,26.3799991607666,21.591325283702773,21.558844171486133,21.542603615377807,21.420802542134744,21.528393903175363,0.011055189274217926,5.5,0.0,0.0,0.0,0.0,0.0,0.0,,,,,
pylon_camera_1771860626318922344.png,1771860626318922344,1771860626.3189223,42.30096672328627,-83.69798150045297,237.80384826660156,0.02875235538097448,-0.9992709247188257,-0.0074678518585860835,-0.02398233225203961,0.06522000000000001,-0.07927000000000001,-0.014810000000000002,0.4852,3.7357,-8.5558,9.549861105926944,21.36246630229222,26.549999237060547,26.619998931884766,26.579999923706055,26.420000076293945,21.558844171486133,21.61568456908058,21.58320500564861,21.453283654351388,21.552754350141676,0.008907587970263456,5.5,0.0,0.0,0.0,0.0,0.0,0.0,,,,,
pylon_camera_1771860626368740247.png,1771860626368740247,1771860626.3687403,42.3009664595038,-83.69798612128979,237.79791259765625,0.029277972331980873,-0.999207753224939,-0.006413188610935766,-0.026182766147553948,0.07638000000000002,-0.12011000000000001,-0.011740000000000002,0.26730000000000004,4.055400000000001,-12.099300000000001,9.569689082253623,21.40682029565642,26.469999313354492,26.469999313354492,27.149999618530273,26.40999984741211,21.49388349583752,21.49388349583752,22.046050013243068,21.445163376297227,21.619745095303834,0.009946586961848695,5.5,0.0,0.0,0.0,0.0,0.0,0.0,,,,,
pylon_camera_1771860626420061434.png,1771860626420061434,1771860626.4200613,42.30096607480685,-83.69799307799984,237.79147338867188,0.02986495383453114,-0.9991289802821114,-0.004776193941597503,-0.02874983937905939,0.07253000000000001,-0.07483000000000002,-0.010570000000000001,0.5844,1.8759000000000001,-9.6769,9.577087013759815,21.423369024559882,26.299999237060547,26.579999923706055,26.579999923706055,26.369998931884766,21.35584186648613,21.58320500564861,21.58320500564861,21.412682264080583,21.483733535465984,0.0028176945856134505,5.400000095367432,0.0,0.0,0.0,0.0,0.0,0.0,,,,,
pylon_camera_1771860626470037321.png,1771860626470037321,1771860626.4700372,42.30096568284026,-83.6980000418635,237.78622436523438,0.030521482322199533,-0.9990203355131253,-0.004151354758194562,-0.031773803703200695,0.030730000000000004,-0.08075000000000002,-0.022420000000000002,1.1311,0.4469,-8.9679,9.580175079074829,21.43027684138565,26.420000076293945,26.489999771118164,26.65999984741211,26.170000076293945,21.453283654351388,21.510124051945837,21.64816568129723,21.25028134935139,21.46546368423646,0.0016419219924803134,5.300000190734863,0.0,0.0,0.0,0.0,0.0,0.0,,,,,
pylon_camera_1771860626521119000.png,1771860626521119000,1771860626.5211189,42.30096541521661,-83.69800468690946,237.7826690673828,0.03098061094475707,-0.9989190040240188,-0.00422963901023125,-0.034396733841971505,0.08554000000000002,-0.08068000000000002,-0.02883,0.9148000000000001,0.034,-7.826700000000001,9.580637923889405,21.431312197465168,26.389999389648438,26.489999771118164,26.69999885559082,26.510000228881836,21.4289228201889,21.510124051945837,21.680645244729195,21.526364608054163,21.536514181229524,0.004908798061221808,4.700000286102295,0.0,0.0,0.0,0.0,0.0,0.0,,,,,
pylon_camera_1771860626570902231.png,1771860626570902231,1771860626.5709023,42.30096497468986,-83.6980116234954,237.77197265625,0.03142298895752221,-0.9988673005708729,-0.004818077097303822,-0.03540477013507177,-0.020220000000000002,-0.03409,0.00205,-0.2987,-0.6222,-4.0566,9.542423102067763,21.345827933939464,26.489999771118164,26.65999984741211,26.799999237060547,26.69999885559082,21.510124051945837,21.64816568129723,21.76184647648613,21.680645244729195,21.650195363614596,0.014258872067041892,3.6000001430511475,0.0,0.0,0.0,0.0,0.0,0.0,,,,,
pylon_camera_1771860626622142314.png,1771860626622142314,1771860626.6221423,42.30096468028696,-83.69801622079336,237.7585906982422,0.03200175502587116,-0.9988602936599944,-0.0054939116716210094,-0.034983115345523355,-0.017150000000000002,0.07096000000000001,-0.01897,-1.0487,-0.7507,-8.513300000000001,9.503420197340787,21.2585807762395,26.729999542236328,27.31999969482422,26.76999855041504,26.869998931884766,21.705006078891678,22.184091642594453,21.737485642323648,21.818686874080583,21.86131755947259,0.02835263508779289,2.200000047683716,0.0,0.0,0.0,0.0,0.0,0.0,,,,,
pylon_camera_1771860626672015387.png,1771860626672015387,1771860626.6720154,42.30096424151219,-83.69802311494573,237.73426818847656,0.03238888195889278,-0.9989066998061089,-0.005867324888950469,-0.03319548021295391,0.04231,0.07993000000000001,-0.014600000000000004,-1.4683000000000002,0.5418000000000001,-9.332,9.509845823245088,21.272954515849868,26.779998779296875,26.920000076293945,26.689998626708984,26.76999855041504,21.74560592037781,21.859288264351388,21.672524966675034,21.737485642323648,21.75372619843197,0.022600136818037787,1.2000000476837158,0.0,0.0,0.0,0.0,0.0,0.0,,,,,
pylon_camera_1771860626731894136.png,1771860626731894136,1771860626.731894,42.30096381819589,-83.698030010273,237.70729064941406,0.0328539235885959,-0.9989797539636689,-0.004504597358470665,-0.030655822907896636,0.051190000000000006,0.06441000000000001,-0.015080000000000001,-0.6036,0.8423,-10.1469,9.520943670413223,21.297779734094156,26.959999084472656,26.920000076293945,26.76999855041504,26.799999237060547,21.891767827783358,21.859288264351388,21.737485642323648,21.76184647648613,21.81259705273613,0.024172346839414355,0.9000000357627869,0.0,0.0,0.0,0.0,0.0,0.0,,,,,
pylon_camera_1771860626772968310.png,1771860626772968310,1771860626.7729683,42.30096353465003,-83.69803461338859,237.68943786621094,0.033138967766209004,-0.9990168296899588,-0.0034920666303479998,-0.029240182664675013,0.038560000000000004,0.05342000000000001,-0.015520000000000003,-0.7562,-0.29560000000000003,-10.7263,9.53834435233429,21.33670401551067,26.649999618530273,26.939998626708984,26.90999984741211,26.729999542236328,21.640045403243068,21.875527271675033,21.851167986297227,21.705006078891678,21.767936685026754,0.020210838056459013,0.9000000357627869,0.0,0.0,0.0,0.0,0.0,0.0,,,,,
pylon_camera_1771860626825336165.png,1771860626825336165,1771860626.825336,42.30096324634955,-83.69803921903703,237.67381286621094,0.03354704275129755,-0.9990382188859914,-0.002730056535763921,-0.02810302330817755,-0.01058,0.00979,-0.021340000000000005,-1.0799,-2.3811,-10.7885,9.557701136056346,21.380003979289885,26.829999923706055,26.869998931884766,26.69999885559082,26.729999542236328,21.786207310648614,21.818686874080583,21.680645244729195,21.705006078891678,21.747636377087517,0.017195151046451872,0.9000000357627869,0.0,0.0,0.0,0.0,0.0,0.0,,,,,
pylon_camera_1771860626877223437.png,1771860626877223437,1771860626.8772235,42.30096280410308,-83.69804613186909,237.6531524658203,0.03366520199419193,-0.999045757530322,-0.002454073856862162,-0.027716530390012154,-0.010910000000000001,-0.024,0.0015900000000000003,-2.6027,-0.9274,-11.722100000000001,9.542998447884909,21.34711494801167,27.389999389648438,26.729999542236328,26.689998626708984,26.65999984741211,22.240932040188905,21.705006078891678,21.672524966675034,21.64816568129723,21.816657191763213,0.021995583239002442,1.2000000476837158,0.0,0.0,0.0,0.0,0.0,0.0,,,,,
pylon_camera_1771860626926980753.png,1771860626926980753,1771860626.926981,42.30096250269575,-83.69805075027087,237.64212036132812,0.03367513526269539,-0.9990566726209319,-0.002575170984062033,-0.02729686156015083,-0.08282,-0.04722000000000001,0.011300000000000003,-3.4615,0.1618,-13.2787,9.54106129879057,21.34278166171658,27.059999465942383,26.65999984741211,26.729999542236328,27.119998931884766,21.972969059540294,21.64816568129723,21.705006078891678,22.02168917908058,21.836957499702446,0.023154237616190912,1.0,0.0,0.0,0.0,0.0,0.0,0.0,,,,,
pylon_camera_1771860626974951895.png,1771860626974951895,1771860626.974952,42.30096204887752,-83.69805765287364,237.62869262695312,0.0336728096993284,-0.9990821267345733,-0.002463254630711764,-0.026362441144530156,-0.051660000000000005,-0.014790000000000001,-0.0038900000000000002,-1.3919000000000001,-5.1847,-10.442,9.539956146105785,21.34030950146988,26.549999237060547,26.920000076293945,26.760000228881836,26.869998931884766,21.558844171486133,21.859288264351388,21.72936691305416,21.818686874080583,21.741546555743067,0.01880183856965862,0.4000000059604645,0.0,0.0,0.0,0.0,0.0,0.0,,,,,
pylon_camera_1771860627025622043.png,1771860627025622043,1771860627.0256221,42.30096175837584,-83.69806225429751,237.62123107910156,0.033627939835095766,-0.9991157979045662,-0.002081963121555003,-0.025148548060079125,0.031310000000000004,0.033920000000000006,-0.005330000000000001,-0.7533000000000001,-2.7573000000000003,-10.1132,9.51911430380881,21.29368755076208,26.849998474121094,26.799999237060547,26.849998474121094,26.849998474121094,21.80244631797226,21.76184647648613,21.80244631797226,21.80244631797226,21.792296357600726,0.02341580365777471,0.5,0.0,0.0,0.0,0.0,0.0,0.0,,,,,
pylon_camera_1771860627075636366.png,1771860627075636366,1771860627.0756364,42.3009613171704,-83.6980691476589,237.612060546875,0.03361726161696926,-0.9991598358425908,-0.0013846687519352592,-0.023400531037364527,0.053000000000000005,0.06936,-0.011910000000000002,-0.3749,1.2992000000000001,-10.5747,9.507537614617364,21.267791191642168,26.76999855041504,26.799999237060547,26.719999313354492,26.8799991607666,21.737485642323648,21.76184647648613,21.696885800837517,21.82680715213474,21.755756267945507,0.022943853073708026,0.699999988079071,0.0,0.0,0.0,0.0,0.0,0.0,,,,,
pylon_camera_1771860627126072298.png,1771860627126072298,1771860627.1260724,42.30096102555078,-83.69807373904573,237.60565185546875,0.03370616880859573,-0.9991946561166659,-0.00019292327471846955,-0.02176915599544398,0.024870000000000003,0.03375,-0.004980000000000001,-0.7298,1.665,-8.349400000000001,9.501336045943235,21.253918654612264,26.69999885559082,26.719999313354492,26.69999885559082,26.94999885559082,21.680645244729195,21.696885800837517,21.680645244729195,21.883647549729197,21.735455960006277,0.022656401072162578,0.699999988079071,0.0,0.0,0.0,0.0,0.0,0.0,,,,,
pylon_camera_1771860627176326804.png,1771860627176326804,1771860627.176327,42.300960611428636,-83.69808062411944,237.5943145751953,0.03408955674683578,-0.9992147833354208,0.0013641443807493221,-0.020145917573064887,0.05243000000000001,0.0669,-0.014700000000000003,-0.7084,0.3649,-10.163300000000001,9.494084385763363,21.2376971258895,26.619998931884766,26.760000228881836,26.8799991607666,26.809999465942383,21.61568456908058,21.72936691305416,21.82680715213474,21.76996675454029,21.735456347202444,0.0234375327212929,0.6000000238418579,0.0,0.0,0.0,0.0,0.0,0.0,,,,,
pylon_camera_1771860627227131086.png,1771860627227131086,1771860627.2271311,42.300960334930345,-83.6980852191407,237.58810424804688,0.03456647293221016,-0.999214120232496,0.002520272636871301,-0.019234061008055164,0.01353,0.043230000000000005,0.0025700000000000007,-1.3110000000000002,0.4122,-8.7852,9.500916026706793,21.252979096781495,26.69999885559082,26.689998626708984,26.619998931884766,26.65999984741211,21.680645244729195,21.672524966675034,21.61568456908058,21.64816568129723,21.654255115445512,0.018880930378592693,0.6000000238418579,0.0,0.0,0.0,0.0,0.0,0.0,,,,,
pylon_camera_1771860627277009666.png,1771860627277009666,1771860627.2770097,42.30095990507189,-83.69809210726768,237.57974243164062,0.03472087755077635,-0.9992132364557316,0.002683268207437757,-0.018978114381917918,-0.05272000000000001,0.00305,0.023220000000000005,-0.9963000000000001,-0.19720000000000001,-10.292200000000001,9.507730871952452,21.26822349670532,26.59000015258789,26.579999923706055,26.69999885559082,26.65999984741211,21.591325283702773,21.58320500564861,21.680645244729195,21.64816568129723,21.62583530384445,0.01681437131759158,0.6000000238418579,0.0,0.0,0.0,0.0,0.0,0.0,,,,,
pylon_camera_1771860627328156125.png,1771860627328156125,1771860627.3281562,42.30095960763193,-83.69809670363018,237.57553100585938,0.034580608289978776,-0.9992130958076597,0.0022101969167540054,-0.019299889283539335,-0.04583000000000001,0.008990000000000001,0.01831,0.1041,-2.2554000000000003,-11.4527,9.502012865185534,21.255432658648132,26.529998779296875,26.53999900817871,26.510000228881836,26.510000228881836,21.542603615377807,21.550723893431968,21.526364608054163,21.526364608054163,21.536514181229528,0.013223984996938307,0.5,0.0,0.0,0.0,0.0,0.0,0.0,,,,,
pylon_camera_1771860627378098811.png,1771860627378098811,1771860627.3780987,42.30095914364753,-83.69810359318863,237.57289123535156,0.034393126403115315,-0.9992000568632563,0.0017812707418019234,-0.020326984410614812,-0.009770000000000003,-0.05102000000000001,0.00651,-0.9711000000000001,-0.8757,-11.1142,9.502993745589247,21.257626829258413,26.59000015258789,26.40999984741211,26.469999313354492,26.56999969482422,21.591325283702773,21.445163376297227,21.49388349583752,21.575084727594454,21.526364220857996,0.01264192817750004,0.30000001192092896,0.0,0.0,0.0,0.0,0.0,0.0,,,,,
pylon_camera_1771860627429177137.png,1771860627429177137,1771860627.429177,42.300958684716356,-83.69811047935991,237.57196044921875,0.03422586592913218,-0.999182085824968,0.0022350409494516638,-0.02141854476432606,0.019710000000000002,-0.04088000000000001,0.0076500000000000005,-2.0083,0.013900000000000001,-9.700000000000001,9.485185993261618,21.217791955766646,26.44999885559082,26.469999313354492,26.53999900817871,26.53999900817871,21.477642939729197,21.49388349583752,21.550723893431968,21.550723893431968,21.51824355560766,0.014160361288647526,-0.30000001192092896,0.0,0.0,0.0,0.0,0.0,0.0,,,,,
pylon_camera_1771860627479422605.png,1771860627479422605,1771860627.4794228,42.30095837850933,-83.69811505319817,237.57083129882812,0.03412907432340473,-0.9991770652112166,0.002079861459787318,-0.021819092970052526,-0.017220000000000003,0.00010000000000000002,0.003980000000000001,-1.7103000000000002,-0.8485,-9.0668,9.456678186949773,21.154021703515426,26.44999885559082,26.549999237060547,26.510000228881836,26.510000228881836,21.477642939729197,21.558844171486133,21.526364608054163,21.526364608054163,21.522304081830914,0.01740956795247525,-0.6000000238418579,0.0,0.0,0.0,0.0,0.0,0.0,,,,,
pylon_camera_1771860627530299846.png,1771860627530299846,1771860627.5303,42.30095792209341,-83.69812188545578,237.56680297851562,0.03410216322688747,-0.9992014706222201,0.0015452536043551873,-0.020762364049830364,0.005600000000000001,0.06406,-0.008530000000000001,-1.3827,-0.17,-8.648900000000001,9.400932314458608,21.02932153150504,26.729999542236328,26.510000228881836,26.549999237060547,26.65999984741211,21.705006078891678,21.526364608054163,21.558844171486133,21.64816568129723,21.6095951349323,0.02759354849170586,-0.6000000238418579,0.0,0.0,0.0,0.0,0.0,0.0,,,,,
pylon_camera_1771860627580253011.png,1771860627580253011,1771860627.580253,42.300957636496214,-83.69812641713126,237.5623016357422,0.034252612322310916,-0.9992463853412965,0.0022802669749052203,-0.018116851657339752,0.06607,0.12916000000000002,-0.015160000000000003,-0.9547,0.7059000000000001,-8.592500000000001,9.355633124790657,20.927989962169214,26.68000030517578,26.510000228881836,26.619998931884766,26.579999923706055,21.664406237405547,21.526364608054163,21.61568456908058,21.58320500564861,21.597415105047226,0.03198707301026559,-0.9000000357627869,0.0,0.0,0.0,0.0,0.0,0.0,,,,,
pylon_camera_1771860627633180161.png,1771860627633180161,1771860627.6331801,42.30095721707086,-83.69813320132985,237.55551147460938,0.034532934606744725,-0.9992874459876906,0.004227037263695671,-0.01463587629136253,0.07419,0.14142000000000002,-0.015460000000000002,-0.5939,0.44070000000000004,-11.211500000000001,9.342334923417964,20.89824268359058,26.56999969482422,26.44999885559082,26.579999923706055,26.469999313354492,21.575084727594454,21.477642939729197,21.58320500564861,21.49388349583752,21.532454042202446,0.03034759277199181,-1.7000000476837158,0.0,0.0,0.0,0.0,0.0,0.0,,,,,
pylon_camera_1771860627681547988.png,1771860627681547988,1771860627.681548,42.30095694165962,-83.69813772585816,237.5513153076172,0.034771785533829036,-0.9993075563468967,0.005720886733563293,-0.011941616882349584,0.04476,0.09497000000000001,-0.009370000000000002,-0.2082,0.2755,-9.3307,9.359726608081,20.937146838680714,26.44999885559082,26.399999618530273,26.44999885559082,26.44999885559082,21.477642939729197,21.437043098243066,21.477642939729197,21.477642939729197,21.46749297935766,0.025330392185870784,-2.1000001430511475,0.0,0.0,0.0,0.0,0.0,0.0,,,,,
