image_filename,timestamp_ns,timestamp_sec,latitude,longitude,altitude,orientation_x,orientation_y,orientation_z,orientation_w,angular_velocity_x,angular_velocity_y,angular_velocity_z,linear_acceleration_x,linear_acceleration_y,linear_acceleration_z,vehicle_speed_mps,vehicle_speed_mph,wheel_speed_fl_rads,wheel_speed_fr_rads,wheel_speed_rl_rads,wheel_speed_rr_rads,wheel_speed_fl_mph,wheel_speed_fr_mph,wheel_speed_rl_mph,wheel_speed_rr_mph,avg_wheel_speed_mph,wheel_slip,steering_angle_deg,throttle_pedal,brake_pedal,brake_torque_actual,abs_active,esc_active,trac_active,marwis_road_condition,marwis_friction,marwis_surface_temp_c,marwis_ice_percent,marwis_water_film_height
frame_00000.png,1771859014466323762,1771859014.4663236,42.300867792681714,-83.6973124715008,238.56101989746094,-0.031101358814028868,-0.9993816064261797,-0.011731993132635976,-0.011466060966402254,0.00042000000000000007,0.021550000000000003,-0.01156,2.4591000000000003,0.34940000000000004,-10.9178,3.4650563450075107,7.751123140401101,14.719999313354492,14.569999694824219,11.210000038146973,11.399999618530273,11.952775160837517,11.830974087594452,9.102623387175694,9.256904798243067,10.535819358462682,0.3592635760805988,9.5,41.07500076293945,0.0,0.0,0.0,0.0,0.0,,,,,
frame_00001.png,1771859014507503337,1771859014.5075033,42.300867872283156,-83.69731509353781,238.56288146972656,-0.031101358814028868,-0.9993816064261797,-0.011731993132635976,-0.011466060966402254,0.00042000000000000007,0.021550000000000003,-0.01156,2.4591000000000003,0.34940000000000004,-10.9178,3.4650563450075107,7.751123140401101,14.309999465942383,16.350000381469727,12.889999389648438,11.84000015258789,11.619851504540291,13.276351056756935,10.466798350188904,9.614189288702775,11.244297550047227,0.4506668706420993,9.100000381469727,41.54999923706055,0.0,0.0,0.0,0.0,0.0,,,,,
frame_00002.png,1771859014580829818,1771859014.5808296,42.30086800263995,-83.69731978948244,238.5656280517578,-0.031101358814028868,-0.9993816064261797,-0.011731993132635976,-0.011466060966402254,0.00042000000000000007,0.021550000000000003,-0.01156,2.4591000000000003,0.34940000000000004,-10.9178,3.873158915553591,8.66402410455845,16.15999984741211,14.489999771118164,13.90999984741211,14.399999618530273,13.122068871297225,11.76601341194584,11.295048126297226,11.692932458243066,11.969015716945838,0.3814614978562346,8.800000190734863,40.900001525878906,0.0,0.0,0.0,0.0,0.0,,,,,
frame_00003.png,1771859014593453545,1771859014.5934536,42.30086800263995,-83.69731978948244,238.5656280517578,-0.031101358814028868,-0.9993816064261797,-0.011731993132635976,-0.011466060966402254,0.00042000000000000007,0.021550000000000003,-0.01156,2.4591000000000003,0.34940000000000004,-10.9178,3.873158915553591,8.66402410455845,16.489999771118164,14.839999198913574,14.229999542236328,15.679999351501465,13.39003185194584,12.050216174310437,11.554890828891677,12.732304043013212,12.431860724540293,0.4348829798383698,8.699999809265137,41.29999923706055,0.0,0.0,0.0,0.0,0.0,,,,,
frame_00004.png,1771859014644433763,1771859014.6444337,42.300868060639736,-83.69732176020322,238.56536865234375,-0.029389478809275393,-0.999389130048494,-0.012655882499386277,-0.014051829574660717,-0.00204,0.03379000000000001,-0.03584000000000001,3.2212,-1.1678,-9.7352,3.937910081575677,8.808868577879895,16.270000457763672,17.44999885559082,16.65999984741211,17.100000381469727,13.211390381108323,14.169559959729195,13.528073481297227,13.885357971756937,13.69859544847292,0.555091363591427,8.5,41.45000076293945,0.0,0.0,0.0,0.0,0.0,,,,,
frame_00005.png,1771859014693935524,1771859014.6939356,42.30086817341388,-83.69732589630827,238.56353759765625,-0.028603115213185204,-0.999399620456166,-0.01330003468112368,-0.014330719090591122,-0.007320000000000001,-0.028190000000000003,-0.03513000000000001,2.9661,-1.6426,-10.5571,3.937910081575677,8.808868577879895,16.920000076293945,18.8799991607666,20.600000381469727,19.65999984741211,13.739196064351386,15.330733392134745,16.727390241756936,15.964101141297226,15.440355209885073,0.7528193403472518,6.800000190734863,41.95000076293945,0.0,0.0,0.0,0.0,0.0,,,,,
frame_00006.png,1771859014753726876,1771859014.753727,42.300868249916185,-83.69732914562869,238.5626220703125,-0.028052003599051634,-0.9993938671202635,-0.013968913218812913,-0.01516090102762227,-0.025700000000000004,-0.057370000000000004,-0.020390000000000002,1.8166,0.1102,-10.4055,4.501574646930222,10.06975239070409,17.739999771118164,20.139999389648438,21.809999465942383,22.219999313354492,14.405043376945839,16.353865195188906,17.70992065454029,18.042844310837516,16.627918384378138,0.6512738088503774,4.400000095367432,43.0,0.0,0.0,0.0,0.0,0.0,,,,,
frame_00007.png,1771859014795154973,1771859014.795155,42.300868320364465,-83.6973325061994,238.56143188476562,-0.027706700827263397,-0.9993786922573192,-0.014789267085552402,-0.01599517959858753,-0.030430000000000006,-0.013090000000000001,-0.00999,1.7782,1.3207,-9.1308,4.620496629586453,10.335773730587121,19.239999771118164,21.469999313354492,21.399999618530273,20.03999900817871,15.62305720694584,17.433837395837518,17.376996998243065,16.27266396343197,16.6766388911146,0.6134872265791452,2.299999952316284,44.5,0.0,0.0,0.0,0.0,0.0,,,,,
frame_00008.png,1771859014846122814,1771859014.8461227,42.30086834851,-83.69733364293428,238.56051635742188,-0.027237089977436013,-0.9993761460824151,-0.015305281225474166,-0.01646839207784655,-0.022830000000000003,-0.0011300000000000001,-0.00708,2.2486,0.9962000000000001,-8.229700000000001,4.745978041492558,10.616468120136362,23.760000228881836,24.779998779296875,19.600000381469727,20.559999465942383,19.29333925305416,20.12158748037781,15.915381021756936,16.694909129540292,18.006304221182297,0.6960729328645143,1.2000000476837158,46.125,0.0,0.0,0.0,0.0,0.0,,,,,
frame_00009.png,1771859014897682454,1771859014.8976824,42.300868449259454,-83.69733832709667,238.55410766601562,-0.026808896563882967,-0.9993892562916644,-0.015342177071861429,-0.01634059596575464,-0.009620000000000002,-0.006900000000000001,-0.008050000000000002,2.5617,-0.3155,-11.0854,4.862931269882898,10.87808547485185,26.25,24.90999984741211,18.94999885559082,17.469999313354492,21.315242025000003,20.227149546297223,15.387573789729194,14.185800515837517,17.778941469215987,0.63438148287377,1.399999976158142,46.45000076293945,0.0,0.0,0.0,0.0,0.0,,,,,
frame_00010.png,1771859014947127408,1771859014.9471273,42.30086847466381,-83.69733953478769,238.55361938476562,-0.0265144311928992,-0.9993991283536265,-0.014958627688012314,-0.016571259524246755,0.03629,-0.010640000000000002,-0.018330000000000003,2.5922,-0.8114,-10.926400000000001,4.989982979842535,11.16229252692896,24.469999313354492,23.94999885559082,16.53999900817871,18.15999984741211,19.869865055837515,19.447619889729197,13.43063169343197,14.746087311297225,16.873550987573978,0.5116564045303994,2.0,48.25,0.0,16.0,0.0,0.0,0.0,,,,,
frame_00011.png,1771859014998531162,1771859014.998531,42.30086858260196,-83.69734447127969,238.5515899658203,-0.026287140272005405,-0.9994077392701921,-0.013935003955481128,-0.01729082438532663,0.03832000000000001,-0.04052000000000001,-0.01207,1.3975,0.7521,-10.8072,5.1176014524277935,11.447767392993828,22.18000030517578,22.81999969482422,15.869999885559082,15.299999237060547,18.010364747405546,18.530050152594452,12.88658622847292,12.42374044648613,15.462685393739763,0.35071624561511555,2.1000001430511475,47.95000076293945,0.0,0.0,0.0,0.0,0.0,,,,,
frame_00012.png,1771859015047854688,1771859015.0478547,42.300868611017826,-83.69734573745652,238.55157470703125,-0.02593223087816532,-0.9994120423311299,-0.013170075456000824,-0.018155940011051884,0.03298,-0.040330000000000005,-0.017310000000000002,1.8942,0.8461000000000001,-10.9373,5.255602397783733,11.756467227698344,20.299999237060547,21.6299991607666,15.40999984741211,15.619999885559082,16.48378654648613,17.563758747134745,12.513061956297227,12.68358392347292,14.811047793347754,0.25982129720506425,1.899999976158142,48.25,0.0,0.0,0.0,0.0,0.0,,,,,
frame_00013.png,1771859015098353667,1771859015.0983536,42.300868725212005,-83.69735095033568,238.5541534423828,-0.02549731973100572,-0.999403144970181,-0.012953816945292858,-0.01937625187681592,-0.02101,-0.05759000000000001,-0.015940000000000003,4.0462,-0.1506,-8.8046,5.414611448320046,12.112160933205043,18.020000457763672,19.760000228881836,15.719999313354492,15.799999237060547,14.632406516108324,16.04530237305416,12.764784380837519,12.82974505648613,14.068059581621533,0.16148222098456977,1.3000000715255737,47.92499923706055,0.0,0.0,0.0,0.0,0.0,,,,,
frame_00014.png,1771859015148992931,1771859015.148993,42.30086875013025,-83.69735228287512,238.5545196533203,-0.024832008616451295,-0.9994028597668674,-0.012760876756261284,-0.020358174335906337,-0.00538,-0.03436,-0.04055,2.2399,-2.1015,-9.8871,5.53428343281507,12.379859982201344,16.170000076293945,18.35999870300293,16.350000381469727,16.09000015258789,13.130189149351388,14.90848822602642,13.276351056756935,13.065228473702776,13.59506422645938,0.09815977288960845,0.699999988079071,46.900001525878906,0.0,0.0,0.0,0.0,0.0,,,,,
frame_00015.png,1771859015199012335,1771859015.1990123,42.30086882535908,-83.69735499445997,238.55178833007812,-0.024078991408886807,-0.9994227193619205,-0.01237902523425351,-0.02052291232267978,0.049490000000000006,0.01801,-0.050730000000000004,1.3057,-0.9404,-9.7346,5.658514941963361,12.657758414275522,17.010000228881836,17.239999771118164,16.65999984741211,16.59000015258789,13.812277018054163,13.999038766945839,13.528073481297227,13.471233083702774,13.7026555875,0.08254993807166011,0.699999988079071,46.85000228881836,0.0,0.0,0.0,0.0,0.0,,,,,
frame_00016.png,1771859015249850976,1771859015.249851,42.30086893154914,-83.69735915122438,238.54718017578125,-0.023268204995592012,-0.9994460697460208,-0.012230215597253041,-0.020409951787303104,0.03940000000000001,0.0035500000000000006,-0.03982000000000001,3.0641000000000003,0.1841,-9.592500000000001,5.816397440420297,13.01093209037378,17.119998931884766,17.03999900817871,17.059999465942383,17.010000228881836,13.901596979080582,13.83663630343197,13.852876859540292,13.812277018054163,13.85084679002675,0.06455453720140363,0.5,46.525001525878906,0.0,0.0,0.0,0.0,0.0,,,,,
frame_00017.png,1771859015299838473,1771859015.2998385,42.30086905174135,-83.69736489029133,238.53794860839844,-0.02253724168199872,-0.9994588704160844,-0.012389096746495552,-0.020507300304468127,0.0012000000000000001,-0.023780000000000003,-0.021670000000000002,1.8503,-3.1436,-10.436,6.032021874422573,13.493271011770831,17.489999771118164,17.44999885559082,17.510000228881836,17.479999542236328,14.202041071945839,14.169559959729195,14.21828162805416,14.193920793891678,14.19595086340522,0.052076316485558334,0.30000001192092896,46.10000228881836,0.0,0.0,0.0,0.0,0.0,,,,,
frame_00018.png,1771859015350731733,1771859015.3507318,42.30086911348783,-83.69736786283654,238.5324249267578,-0.02252144801630912,-0.9994593997118895,-0.012257832564128292,-0.020577615207503102,0.023440000000000003,-0.018240000000000003,-0.00046000000000000007,2.5902000000000003,-2.0415,-10.2544,6.182844479818345,13.83065213068485,17.959999084472656,18.06999969482422,17.940000534057617,17.93000030517578,14.583684847783356,14.673006357594453,14.56744584045971,14.559325562405549,14.595865652060766,0.05532736375302247,0.10000000149011612,44.875,0.0,0.0,0.0,0.0,0.0,,,,,
frame_00019.png,1771859015411384524,1771859015.4113846,42.30086917017381,-83.69737086944092,238.52757263183594,-0.02274111368351872,-0.9994542191380924,-0.012598864031498364,-0.020380731601571757,-0.010980000000000002,0.015010000000000003,0.009850000000000003,2.6612,1.7634,-9.4285,6.280734121334727,14.049625385378505,18.760000228881836,18.579999923706055,18.529998779296875,18.53999900817871,15.233293153054163,15.087131245648612,15.046529855377807,15.05465013343197,15.105401096878138,0.07514618237425623,-0.4000000059604645,41.22500228881836,0.0,0.0,0.0,0.0,0.0,,,,,
frame_00020.png,1771859015460852701,1771859015.4608526,42.300869221564525,-83.69737394032798,238.52366638183594,-0.023041672364379318,-0.9994563399887488,-0.012784223134199657,-0.019815888317251628,-0.037700000000000004,0.034350000000000006,0.020620000000000003,2.1339,1.0691000000000002,-9.1056,6.418991096531692,14.358897943475604,19.0,19.209999084472656,19.10999870300293,19.020000457763672,15.428175180000002,15.598696372783357,15.517495141026421,15.444415736108322,15.497195607479526,0.07927472348399421,-1.100000023841858,36.60000228881836,0.0,0.0,0.0,0.0,0.0,,,,,
frame_00021.png,1771859015511213232,1771859015.5112133,42.300869342046184,-83.69738026769411,238.51620483398438,-0.02324542683656694,-0.9994621787336508,-0.012861938805823144,-0.019224306029733056,-0.009980000000000001,-0.0043100000000000005,0.00255,3.7849000000000004,2.5397000000000003,-9.1751,6.660496444042116,14.899130915535572,19.479999542236328,19.299999237060547,19.439998626708984,19.65999984741211,15.817939233891678,15.671777326486131,15.785458121675035,15.964101141297226,15.809818955837518,0.061123567909075534,-1.2000000476837158,30.225000381469727,0.0,0.0,0.0,0.0,0.0,,,,,
frame_00022.png,1771859015562332627,1771859015.5623326,42.3008694854474,-83.69738685056306,238.51052856445312,-0.023131506716809747,-0.9994655605399115,-0.012867096024667384,-0.019182401610392887,0.0010500000000000002,0.02023,-0.00117,3.4173,2.2016,-9.536800000000001,6.811975089399285,15.237979556480838,20.229999542236328,20.1299991607666,19.760000228881836,19.639999389648438,16.426946148891677,16.34574491713474,16.04530237305416,15.947860585188904,16.19146350606737,0.06257285922010636,-0.9000000357627869,29.825000762939453,0.0,0.0,0.0,0.0,0.0,,,,,
frame_00023.png,1771859015612016941,1771859015.612017,42.3008694854474,-83.69738685056306,238.51052856445312,-0.02301868976669036,-0.9994709266789192,-0.012496455621782608,-0.01928328918779437,0.009450000000000002,-0.0014100000000000002,-0.014720000000000002,1.9604000000000001,-0.7882,-9.0282,6.908281409235632,15.453411015575554,20.31999969482422,20.43000030517578,20.079999923706055,20.149999618530273,16.50002710259445,16.589348612405548,16.305145075648614,16.361985473243067,16.43912656597292,0.06378627666111121,-0.6000000238418579,29.625,0.0,0.0,0.0,0.0,0.0,,,,,
frame_00024.png,1771859015670555161,1771859015.670555,42.30086964753825,-83.69739365393797,238.5018310546875,-0.022877250018833672,-0.9994982097413962,-0.011417826259598918,-0.01869741690247971,0.06967000000000001,0.025510000000000005,-0.00529,2.5683000000000002,-0.6976,-9.818200000000001,7.1160807444817245,15.91824566056095,20.35999870300293,20.5,20.389999389648438,20.639999389648438,16.53250666602642,16.64618901,16.556867500188904,16.759869805188906,16.62385824535106,0.044327283284635706,-0.4000000059604645,29.774999618530273,0.0,0.0,0.0,0.0,0.0,,,,,
frame_00025.png,1771859015706187956,1771859015.706188,42.30086968995542,-83.69739539116367,238.49903869628906,-0.02290235793351414,-0.9994976823549335,-0.011503639490604796,-0.018642189964476735,-0.00493,0.010820000000000001,0.004320000000000001,2.3756,1.931,-8.790000000000001,7.206418785964847,16.120326439076205,20.850000381469727,20.600000381469727,20.43000030517578,20.5,16.930392546756934,16.727390241756936,16.589348612405548,16.64618901,16.723330102729854,0.0374064176635994,-0.4000000059604645,30.024999618530273,0.0,0.0,0.0,0.0,0.0,,,,,
frame_00026.png,1771859015757227563,1771859015.7572274,42.300869843115535,-83.69740247111046,238.48709106445312,-0.022849665133598207,-0.9995002554482932,-0.011424208284950658,-0.01861772346827527,-0.0008000000000000001,0.0027800000000000004,-0.010620000000000001,3.4853,-2.1443000000000003,-9.3309,7.343522722450751,16.427019718758984,20.8799991607666,21.34000015258789,20.850000381469727,21.029998779296875,16.954751832134743,17.328276878702773,16.930392546756934,17.07655290537781,17.072493540743064,0.03929342224183095,-0.6000000238418579,29.92500114440918,0.0,0.0,0.0,0.0,0.0,,,,,
frame_00027.png,1771859015807042456,1771859015.8070426,42.300869871439474,-83.69740426933585,238.48399353027344,-0.022783713699974895,-0.9994867105782126,-0.01195929986657024,-0.019083839086597127,-0.0108,-0.015690000000000003,-0.03372000000000001,1.7437,-3.8751,-10.7166,7.453128871941742,16.672202098801364,21.100000381469727,21.53999900817871,21.189998626708984,21.420000076293945,17.133394851756936,17.49067779343197,17.206474256675033,17.393237554351387,17.30594611405383,0.03801201613900964,-0.20000000298023224,30.225000381469727,0.0,0.0,0.0,0.0,0.0,,,,,
frame_00028.png,1771859015864893338,1771859015.8648934,42.30087001255715,-83.69741156441052,238.47540283203125,-0.022809981104168042,-0.9994487047765301,-0.01352668122180824,-0.019975489422472976,-0.05124000000000001,-0.00281,0.0033900000000000007,2.4399,0.7305,-10.636800000000001,7.586578279999214,16.970720417661443,21.25,21.5,21.529998779296875,21.619998931884766,17.255195925000002,17.45819823,17.48255751537781,17.55563846908058,17.437897534864597,0.027528419872910152,0.699999988079071,29.92500114440918,0.0,0.0,0.0,0.0,0.0,,,,,
frame_00029.png,1771859015907817806,1771859015.9078178,42.30087005928034,-83.69741341392051,238.4741973876953,-0.02271775128638709,-0.9994454691121334,-0.012773162977343093,-0.020724486851834544,0.09436000000000001,-0.04637,-0.005110000000000001,1.0007000000000001,-0.0438,-9.796800000000001,7.655559764178338,17.125027858881094,21.559999465942383,21.53999900817871,21.639999389648438,21.75,17.506918349540292,17.49067779343197,17.571879025188903,17.661200535000003,17.557668925790292,0.025263670837465495,0.9000000357627869,30.0,0.0,0.0,0.0,0.0,0.0,,,,,
frame_00030.png,1771859015958589121,1771859015.958589,42.30087021922773,-83.69742089530355,238.46990966796875,-0.02255544059308201,-0.9994262054426319,-0.012518911143419497,-0.021949688789981547,0.08048000000000001,-0.10681000000000002,-0.01769,1.7135,1.8168000000000002,-11.063600000000001,7.767243355978151,17.374857352721765,21.93000030517578,22.44999885559082,22.389999389648438,21.809999465942383,17.807362442405548,18.229606059729196,18.180885940188904,17.70992065454029,17.981943774215985,0.03494051255615747,0.699999988079071,29.700000762939453,0.0,0.0,0.0,0.0,0.0,,,,,
frame_00031.png,1771859016006875033,1771859016.006875,42.30087025878992,-83.69742279358563,238.468994140625,-0.02240288942233093,-0.9993998881598563,-0.012762002788715877,-0.023132344810205666,-0.03502000000000001,-0.07499,0.0036200000000000004,2.3117,2.5502000000000002,-8.2653,7.848305546133829,17.556188608368608,22.19999885559082,22.06999969482422,22.489999771118164,22.1299991607666,18.026603754729194,17.921043237594454,18.262087171945836,17.96976335713474,18.044874380351057,0.02783552756715687,0.6000000238418579,29.850000381469727,0.0,0.0,0.0,0.0,0.0,,,,,
frame_00032.png,1771859016058010848,1771859016.0580108,42.30087040998507,-83.69743044785902,238.46250915527344,-0.022204439886370553,-0.9993748844201382,-0.012661687698715621,-0.024423040437012482,0.019280000000000002,-0.04071000000000001,-0.022540000000000004,2.8003,0.28200000000000003,-6.313000000000001,7.9527450377963715,17.789813484848217,22.420000076293945,22.5,22.389999389648438,22.56999969482422,18.205246774351387,18.27020745,18.180885940188904,18.327047847594454,18.24584700303369,0.025634530602239306,0.4000000059604645,29.850000381469727,0.0,0.0,0.0,0.0,0.0,,,,,
frame_00033.png,1771859016107531881,1771859016.1075318,42.300870453372504,-83.69743236495802,238.46011352539062,-0.022107896530173365,-0.999363476641549,-0.013089153850422475,-0.024749879139246114,0.04415,-0.025540000000000004,-0.0159,2.0412,0.3715,-9.7055,8.000479381469354,17.896592347584058,22.709999084472656,22.69999885559082,22.899999618530273,22.65999984741211,18.440728642783355,18.432608364729198,18.595010828243066,18.400128801297228,18.467119159263213,0.031879075110976256,0.30000001192092896,29.5,0.0,0.0,0.0,0.0,0.0,,,,,
frame_00034.png,1771859016169364055,1771859016.169364,42.300870563537856,-83.69743819668454,238.4489288330078,-0.02187738179976273,-0.9993695848988582,-0.01354458253075232,-0.02446134151552105,9e-05,0.009640000000000001,-0.0206,2.3797,0.44580000000000003,-8.6296,8.097769221547836,18.114223882449217,22.94999885559082,22.90999984741211,22.90999984741211,22.78999900817871,18.635610669729196,18.603131106297226,18.603131106297226,18.50568931843197,18.586890550188905,0.02609367482741848,0.30000001192092896,29.524999618530273,0.0,0.0,0.0,0.0,0.0,,,,,
frame_00035.png,1771859016209041271,1771859016.209041,42.30087063052533,-83.6974421303356,238.4409637451172,-0.021728750386549645,-0.9993486302553551,-0.01437846781364508,-0.024968705947981798,-0.06025000000000001,-0.0273,-0.00030000000000000003,1.0501,0.38920000000000005,-9.0281,8.167934406748708,18.271179191832456,23.170000076293945,23.18000030517578,23.209999084472656,23.100000381469727,18.814253689351386,18.822373967405547,18.846733252783356,18.757413291756937,18.810193550324303,0.02950079755841904,0.6000000238418579,29.774999618530273,0.0,0.0,0.0,0.0,0.0,,,,,
frame_00036.png,1771859016259698223,1771859016.2596982,42.30087074314872,-83.69744808299042,238.42855834960938,-0.021638251600685887,-0.9993426561762003,-0.01428588265230364,-0.02533683427752361,0.06171000000000001,0.027320000000000004,-0.012490000000000003,-0.1965,1.0390000000000001,-11.0791,8.233056991197873,18.41685450589017,23.34000015258789,23.389999389648438,23.51999855041504,23.31999969482422,18.952295318702777,18.992895160188905,19.098455677323646,18.936054762594452,18.994925229702446,0.03138813545100185,1.0,30.225000381469727,0.0,0.0,0.0,0.0,0.0,,,,,
frame_00037.png,1771859016309394374,1771859016.3093944,42.30087077356704,-83.69745008363496,238.42422485351562,-0.021486871203186042,-0.9993592681041558,-0.013480744785626863,-0.02525147798147062,0.08545000000000001,-0.007470000000000001,-0.01667,1.7371,0.7179,-8.8316,8.317166010664998,18.60500133589696,23.420000076293945,23.51999855041504,23.649999618530273,23.389999389648438,19.017255994351387,19.098455677323646,19.204017743243067,18.992895160188905,19.078156143776752,0.025431592255082177,0.800000011920929,29.774999618530273,0.0,0.0,0.0,0.0,0.0,,,,,
frame_00038.png,1771859016368820313,1771859016.3688202,42.30087093735186,-83.6974581340908,238.40768432617188,-0.021391070678238255,-0.9993818156483292,-0.013893584147556754,-0.024194564807461804,-0.032690000000000004,0.024110000000000003,-0.0037,4.0212,1.3417000000000001,-10.4114,8.385206692759697,18.75720425930188,23.68000030517578,23.689998626708984,23.81999969482422,23.899999618530273,19.22837857740555,19.236497306675037,19.342059372594452,19.407020048243066,19.303488826229525,0.0291239866760388,0.30000001192092896,29.600000381469727,0.0,0.0,0.0,0.0,0.0,,,,,
frame_00039.png,1771859016413138248,1771859016.4131382,42.30087097514838,-83.69746016780232,238.40371704101562,-0.021100780808995467,-0.9993847438234631,-0.014880979658773344,-0.023737045025797727,-0.07813000000000002,0.00205,-0.013410000000000002,4.3739,-1.0123,-12.2857,8.475860296325598,18.959990931262585,23.84000015258789,23.8799991607666,23.969999313354492,24.029998779296875,19.358299928702774,19.390779492134744,19.463860445837515,19.51258056537781,19.431380108013208,0.024862310243691267,0.4000000059604645,29.75,0.0,0.0,0.0,0.0,0.0,,,,,
frame_00040.png,1771859016463475654,1771859016.4634757,42.300871116335806,-83.69746836069986,238.3907928466797,-0.02089860344769412,-0.9993699474174822,-0.015234882872933677,-0.024307507411554508,-0.007610000000000001,-0.014550000000000002,-0.024190000000000003,2.0989,-1.0901,-8.4413,8.544334934205343,19.113164587721304,24.19999885559082,24.1299991607666,24.18000030517578,24.170000076293945,19.650622194729195,19.593781797134746,19.63438318740555,19.626262909351386,19.62626252215522,0.0268452632257214,0.699999988079071,29.450000762939453,0.0,0.0,0.0,0.0,0.0,,,,,
frame_00041.png,1771859016513924238,1771859016.5139244,42.30087115404369,-83.69747043467464,238.3875732421875,-0.020765755788322515,-0.9993524510060796,-0.015145968336516576,-0.025180581761158807,0.014090000000000004,-0.007360000000000001,-0.004540000000000001,-0.7643000000000001,1.3092000000000001,-8.5914,8.596116849015226,19.228997624236122,24.35999870300293,24.399999618530273,24.329999923706055,24.28999900817871,19.780543546026422,19.813024658243066,19.756184260648617,19.72370314843197,19.76836390333752,0.02804963054452631,0.800000011920929,29.475000381469727,0.0,0.0,0.0,0.0,0.0,,,,,
frame_00042.png,1771859016578436006,1771859016.5784361,42.300871342102376,-83.69748086494084,238.364501953125,-0.020596971449186874,-0.9993650849128899,-0.015046903028939799,-0.024875339865240494,-0.01742,0.02059,-0.00036,0.3517,0.2187,-10.9687,8.687319686823308,19.43301290024253,24.6299991607666,24.670000076293945,24.84000015258789,24.850000381469727,19.999786407134746,20.03226751935139,20.170309148702774,20.178429426756935,20.095198125486462,0.03407527328074108,1.0,29.475000381469727,0.0,0.0,0.0,0.0,0.0,,,,,
frame_00043.png,1771859016623534892,1771859016.623535,42.300871379204246,-83.69748297671833,238.3590545654297,-0.02052565240083848,-0.9993776761585976,-0.014861126750735991,-0.02453782592365746,0.019960000000000002,0.00204,-0.01378,0.7385,-0.1837,-9.7715,8.739059050613811,19.54875075268006,24.68000030517578,24.69999885559082,24.889999389648438,24.670000076293945,20.04038779740555,20.056626804729195,20.210908990188905,20.03226751935139,20.08504777791876,0.027433825926967484,1.100000023841858,29.725000381469727,0.0,0.0,0.0,0.0,0.0,,,,,
frame_00044.png,1771859016663683780,1771859016.663684,42.30087150127604,-83.69748933103091,238.34542846679688,-0.02034296660909557,-0.9993951899226942,-0.014340380506662979,-0.02428521269924161,0.023190000000000002,-0.00354,-0.013480000000000002,0.8774000000000001,0.1179,-12.0754,8.808739321171116,19.704621337100516,24.920000076293945,25.119998931884766,24.94999885559082,24.93000030517578,20.235269824351388,20.397670739080585,20.259629109729193,20.24339010240555,20.283989943891676,0.029402676503115826,0.699999988079071,29.55000114440918,0.0,0.0,0.0,0.0,0.0,,,,,
frame_00045.png,1771859016722403203,1771859016.7224033,42.300871582999775,-83.69749359753422,238.34149169921875,-0.020236943525190287,-0.9993799305687656,-0.014431386240402987,-0.024939037357277948,0.005520000000000001,-0.03857,0.014250000000000002,1.4445000000000001,3.1194,-9.4742,8.888810969001641,19.88373680899853,25.03999900817871,25.189998626708984,25.10999870300293,25.19999885559082,20.332710063431968,20.454511136675034,20.38955046102642,20.462631414729195,20.409850768965654,0.026459511359505947,0.699999988079071,28.850000381469727,0.0,0.0,0.0,0.0,0.0,,,,,
frame_00046.png,1771859016773003914,1771859016.773004,42.300871737221584,-83.69750221904735,238.3306121826172,-0.01979853311131463,-0.9993814574114567,-0.015248150997274293,-0.02474296990980811,-0.01617,0.028120000000000003,-0.02451,3.5836,0.8331000000000001,-11.1574,8.9765913426895,20.080096238115853,25.26999855041504,25.989999771118164,25.309999465942383,25.229999542236328,20.519471812323648,21.104119441945837,20.551952924540288,20.486992248891678,20.665634106925364,0.029160112674064157,0.6000000238418579,28.700000762939453,0.0,0.0,0.0,0.0,0.0,,,,,
frame_00047.png,1771859016817231756,1771859016.817232,42.300871849829015,-83.697508751117,238.31900024414062,-0.019723397026493505,-0.9993893529127855,-0.014729250865263596,-0.024798347994312835,0.05831000000000001,0.031170000000000003,-0.004090000000000001,0.5066,-1.3474000000000002,-9.7597,8.987919188031507,20.1054359484752,25.479999542236328,25.729999542236328,25.439998626708984,25.56999969482422,20.68999455389168,20.892996858891678,20.657513441675032,20.763075507594454,20.75089509051321,0.032103712831303324,0.4000000059604645,28.625,0.0,0.0,0.0,0.0,0.0,,,,,
frame_00048.png,1771859016868773687,1771859016.8687737,42.300871889063544,-83.69751093972403,238.3146514892578,-0.019589412883076418,-0.9994035204634257,-0.014236108852069773,-0.02462095434704435,0.056150000000000005,-0.00812,-0.011980000000000001,-0.2156,-1.0047000000000001,-11.471200000000001,9.064495529392016,20.276732629518175,25.60999870300293,25.829999923706055,25.56999969482422,25.60999870300293,20.795555071026424,20.974198090648613,20.763075507594454,20.795555071026424,20.83209593507398,0.02738919113365067,0.9000000357627869,28.5,0.0,0.0,0.0,0.0,0.0,,,,,
frame_00049.png,1771859016917319232,1771859016.917319,42.30087201932316,-83.69751973620569,238.29534912109375,-0.019515836261899067,-0.9994051232925653,-0.015972225432933685,-0.023524873778415688,-0.06179000000000001,0.011480000000000002,-0.015960000000000002,2.6621,3.8107,-8.1507,9.136056467735873,20.436810154937085,25.760000228881836,25.76999855041504,25.760000228881836,25.68000030517578,20.917357693054164,20.925476422323648,20.917357693054164,20.852397017405547,20.90314720645938,0.022818485271765287,1.399999976158142,29.200000762939453,0.0,0.0,0.0,0.0,0.0,,,,,
frame_00050.png,1771859016975028933,1771859016.975029,42.30087210399831,-83.69752418791614,238.28665161132812,-0.019458193594688755,-0.9994219701925441,-0.014637436370518463,-0.02372445268038278,0.05131000000000001,0.005460000000000001,-0.009630000000000001,1.3568,-0.22940000000000002,-9.3506,9.22442386375957,20.634482717798335,25.939998626708984,26.01999855041504,25.920000076293945,25.829999923706055,21.063518051675032,21.12847872732365,21.047279044351388,20.974198090648613,21.05336847849967,0.020300279218534754,1.7000000476837158,28.80000114440918,0.0,0.0,0.0,0.0,0.0,,,,,
frame_00051.png,1771859017016636746,1771859017.0166366,42.30087224547574,-83.69753090417335,238.27674865722656,-0.019296028901741258,-0.9994256688453829,-0.01371782529097554,-0.0242449374276054,0.09449,-0.042080000000000006,-0.005980000000000001,0.6419,2.6196,-12.656500000000001,9.260642164096836,20.715500882554778,26.170000076293945,26.03999900817871,26.279998779296875,26.349998474121094,21.25028134935139,21.144719283431968,21.33960131037781,21.396441707972258,21.282760912783356,0.02738336057837186,1.8000000715255737,29.225000381469727,0.0,0.0,0.0,0.0,0.0,,,,,
frame_00052.png,1771859017067720029,1771859017.06772,42.30087230029123,-83.69753315138078,238.2740936279297,-0.01896797319284549,-0.9994416830855317,-0.012018623297241815,-0.02474046883457116,0.041690000000000005,-0.03908000000000001,-0.015850000000000003,1.6580000000000001,0.1468,-10.4795,9.324344601766404,20.85799941347534,25.670000076293945,25.779998779296875,26.35999870300293,26.01999855041504,20.84427673935139,20.93359670037781,21.404561986026422,21.12847872732365,21.077728538269817,0.010534525408631463,1.7000000476837158,28.975000381469727,0.0,0.0,0.0,0.0,0.0,,,,,
frame_00053.png,1771859017117446871,1771859017.117447,42.30087247657289,-83.69754220651367,238.2622833251953,-0.01883925267279668,-0.9994450170964577,-0.011022701686786141,-0.025164268463757567,0.05734000000000001,-0.005180000000000001,-0.008820000000000001,1.4280000000000002,1.5742,-5.8684,9.366427681878164,20.952136738700542,26.389999389648438,26.399999618530273,26.469999313354492,26.53999900817871,21.4289228201889,21.437043098243066,21.49388349583752,21.550723893431968,21.477643326925364,0.02508128859497954,1.3000000715255737,29.149999618530273,0.0,0.0,0.0,0.0,0.0,,,,,
frame_00054.png,1771859017178356714,1771859017.1783566,42.30087252238325,-83.69754447978357,238.25778198242188,-0.018281009541381454,-0.9994727314024741,-0.010396310362524738,-0.02473824172959631,0.05271000000000001,-0.009500000000000001,-0.04712000000000001,2.3714,0.34590000000000004,-11.4663,9.44899698306845,21.136839311305142,26.65999984741211,26.649999618530273,26.76999855041504,26.829999923706055,21.64816568129723,21.640045403243068,21.737485642323648,21.786207310648614,21.70297600937814,0.026784359275996282,0.9000000357627869,28.725000381469727,0.0,0.0,0.0,0.0,0.0,,,,,
frame_00055.png,1771859017221742658,1771859017.2217426,42.300872624001336,-83.69755132361712,238.2471466064453,-0.018343422062611026,-0.9994734811417842,-0.01197501412542415,-0.023934878275283736,-0.013630000000000001,0.035280000000000006,0.0235,3.9432,5.4111,-7.7925,9.474977984391174,21.194957252403995,26.76999855041504,26.899999618530273,26.739999771118164,26.809999465942383,21.737485642323648,21.843047708243066,21.71312635694584,21.76996675454029,21.76590661551321,0.026937981346693004,1.0,28.80000114440918,0.0,0.0,0.0,0.0,0.0,,,,,
frame_00056.png,1771859017272942511,1771859017.2729425,42.30087274613078,-83.69756049387027,238.2294158935547,-0.0180661801554291,-0.9995090547427451,-0.011775593125383236,-0.02272879293762166,0.026670000000000003,0.03797000000000001,-0.014260000000000002,2.6417,0.6216,-7.1271,9.518721426328396,21.292808707411044,26.920000076293945,26.90999984741211,26.8799991607666,26.899999618530273,21.859288264351388,21.851167986297227,21.82680715213474,21.843047708243066,21.845077777756607,0.025936882162161334,1.0,28.850000381469727,0.0,0.0,0.0,0.0,0.0,,,,,
frame_00057.png,1771859017322443268,1771859017.3224432,42.300872777935,-83.69756281675183,238.22462463378906,-0.017667994753118477,-0.999546053553169,-0.010467538463147963,-0.022044487433632697,0.044160000000000005,0.00205,-0.025560000000000003,1.2163000000000002,-2.5706,-10.745700000000001,9.576149028751242,21.421270808374807,27.029998779296875,27.1299991607666,26.989999771118164,27.219999313354492,21.948608225377807,22.029809457134743,21.91612866194584,22.102890410837517,21.999359188823977,0.026986651988133315,1.0,28.850000381469727,0.0,0.0,0.0,0.0,0.0,,,,,
frame_00058.png,1771859017381525788,1771859017.3815258,42.30087288712972,-83.69756979000562,238.21099853515625,-0.017324691331479736,-0.9995736242764799,-0.009840037819610854,-0.021344750566828306,0.011730000000000003,-0.0028000000000000004,-0.028300000000000006,-0.34190000000000004,-2.7966,-12.380600000000001,9.637786419570856,21.559149953394833,27.19999885559082,27.15999984741211,26.65999984741211,26.849998474121094,22.086649854729195,22.054170291297226,21.64816568129723,21.80244631797226,21.897858036323974,0.015710641823139523,1.0,28.625,0.0,0.0,0.0,0.0,0.0,,,,,
frame_00059.png,1771859017422457884,1771859017.422458,42.30087295106346,-83.69757445116606,238.2030792236328,-0.017063988871960478,-0.9996000021585967,-0.010036799808715541,-0.020196995269364474,0.006310000000000001,0.04674000000000001,-0.028640000000000006,1.5207000000000002,-1.6175000000000002,-9.9367,9.695135820642118,21.68743712262718,27.25,27.219999313354492,26.8799991607666,27.010000228881836,22.127251245,22.102890410837517,21.82680715213474,21.932369218054163,21.997329506506603,0.01428902742759317,0.9000000357627869,28.774999618530273,0.0,0.0,0.0,0.0,0.0,,,,,
frame_00060.png,1771859017485585413,1771859017.4855855,42.30087304200638,-83.6975815033434,238.1929473876953,-0.016817820245482895,-0.9996067134830353,-0.01066886644273152,-0.019742202781421653,0.00854,0.044910000000000005,-0.015760000000000003,3.0783,0.6471,-5.653700000000001,9.772367909761362,21.860200672061584,27.3799991607666,27.349998474121094,27.6299991607666,27.649999618530273,22.23281176213474,22.20845092797226,22.435814067134743,22.452054623243065,22.332282845121206,0.021595509581161642,0.9000000357627869,28.899999618530273,0.0,0.0,0.0,0.0,0.0,,,,,
frame_00061.png,1771859017531861533,1771859017.5318615,42.300873088390354,-83.69758624714812,238.19107055664062,-0.016768444757091938,-0.9995593967619144,-0.011883387034194656,-0.02141533838120964,-0.00417,0.0015600000000000002,0.00916,0.5802,1.4260000000000002,-13.095600000000001,9.823045579543184,21.97356357870333,27.6299991607666,27.56999969482422,27.719999313354492,27.75,22.435814067134743,22.38709394759445,22.508895020837517,22.533255855,22.466264722641675,0.022422450604046205,0.9000000357627869,28.875,0.0,0.0,0.0,0.0,0.0,,,,,
frame_00062.png,1771859017581504478,1771859017.5815046,42.30087315618345,-83.69759341220296,238.18661499023438,-0.016675902745507343,-0.9995217245123554,-0.011803895643583326,-0.023214317631693532,-0.030580000000000006,-0.10900000000000001,-0.0030100000000000005,-1.4014,0.337,-7.180000000000001,9.89252193245247,22.128978011580227,27.75,27.760000228881836,27.709999084472656,27.75,22.533255855,22.54137613305416,22.500774742783356,22.533255855,22.52716564645938,0.017993945977567503,0.9000000357627869,28.774999618530273,0.0,0.0,0.0,0.0,0.0,,,,,
frame_00063.png,1771859017622595928,1771859017.6225958,42.30087320813197,-83.69759820819806,238.18255615234375,-0.016574230205097407,-0.9995096039457179,-0.011987451984685295,-0.023709650109135196,0.009710000000000002,-0.029830000000000002,-0.0019000000000000002,0.5795,1.1309,-7.1881,9.91199980924432,22.17254885329099,27.81999969482422,27.920000076293945,27.899999618530273,27.81999969482422,22.590096252594453,22.671297484351385,22.655056928243066,22.590096252594453,22.62663672944584,0.02047973280651715,0.9000000357627869,28.875,0.0,0.0,0.0,0.0,0.0,,,,,
frame_00064.png,1771859017673594543,1771859017.6735947,42.300873293720514,-83.69760541930809,238.17300415039062,-0.016380284094688446,-0.9995101365879945,-0.012264310901901401,-0.023680368006590093,0.006360000000000001,0.02756,-0.017830000000000002,0.9540000000000001,0.6924,-10.5944,9.950900738105707,22.259567897098183,28.119998931884766,28.010000228881836,28.119998931884766,28.119998931884766,22.833698399080582,22.74437843805416,22.833698399080582,22.833698399080582,22.81136840882398,0.024789363130347738,0.9000000357627869,28.899999618530273,0.0,0.0,0.0,0.0,0.0,,,,,
frame_00065.png,1771859017723469695,1771859017.7234695,42.30087332618781,-83.697607830686,238.17051696777344,-0.016218026201484714,-0.9995092136533388,-0.01234722004435237,-0.02378767759552407,0.018150000000000003,0.007050000000000001,-0.011740000000000002,0.7529,0.6381,-10.5471,9.99322729570184,22.354249866847276,28.15999984741211,28.19999885559082,28.309999465942383,28.18000030517578,22.866179511297226,22.898659074729196,22.987980584540292,22.88242006740555,22.908809809493064,0.02480780817737189,0.9000000357627869,28.75,0.0,0.0,0.0,0.0,0.0,,,,,
frame_00066.png,1771859017774204326,1771859017.7742045,42.30087345103954,-83.69761753332722,238.1588592529297,-0.015916519891427172,-0.9995214080268128,-0.011574600034209483,-0.023867298227742986,0.027850000000000003,0.01678,-0.006970000000000001,0.7227,0.21530000000000002,-8.462900000000001,10.065033931603878,22.51487700296198,28.28999900817871,28.34000015258789,28.44999885559082,28.439998626708984,22.97174002843197,23.012341418702775,23.101661379729194,23.093541101675036,23.044820982134745,0.023537502741100738,0.6000000238418579,28.975000381469727,0.0,0.0,0.0,0.0,0.0,,,,,
frame_00067.png,1771859017824484230,1771859017.8244843,42.30087347878473,-83.6976199789472,238.15499877929688,-0.015878845648475637,-0.9995221787216255,-0.011477906770989069,-0.02390678064071151,-0.023010000000000003,0.010030000000000002,0.0007400000000000001,-0.3068,-0.5561,-9.4938,10.111571704116146,22.618979207805573,28.729999542236328,28.599998474121094,28.489999771118164,28.529998779296875,23.32902451889168,23.22346245297226,23.13414249194584,23.16662205537781,23.2133128797969,0.026275883917264806,0.5,29.024999618530273,0.0,0.0,0.0,0.0,0.0,,,,,
frame_00068.png,1771859017875201239,1771859017.8752012,42.300873588434584,-83.69762977915086,238.13768005371094,-0.01577246403303062,-0.9995219916334004,-0.012115395669409602,-0.023669279822192878,-0.018240000000000003,-0.0023100000000000004,-0.00491,-0.7559,0.7339,-9.9876,10.161920914005842,22.73160736937623,28.739999771118164,28.719999313354492,28.649999618530273,28.60999870300293,23.33714479694584,23.32090424083752,23.264063843243065,23.23158273102642,23.28842390301321,0.0244952556407039,0.6000000238418579,29.274999618530273,0.0,0.0,0.0,0.0,0.0,,,,,
frame_00069.png,1771859017924993205,1771859017.9249933,42.30087361678525,-83.6976322335757,238.13299560546875,-0.015553904732466206,-0.9995536842414905,-0.01166257713423469,-0.02268243067715613,0.048620000000000003,0.04920000000000001,-0.011590000000000001,0.0852,1.8804,-9.853100000000001,10.19761391831833,22.811450478443007,28.76999855041504,28.969999313354492,28.81999969482422,28.84000015258789,23.36150408232365,23.52390654583752,23.402105472594453,23.418346028702775,23.4264655323646,0.02696080437773065,0.6000000238418579,29.350000381469727,0.0,0.0,0.0,0.0,0.0,,,,,
frame_00070.png,1771859017976178607,1771859017.9761786,42.30087374633119,-83.69764211221249,238.11451721191406,-0.015338828388276826,-0.9996049099323248,-0.009553368138087999,-0.021528528516412387,0.08659,0.055380000000000006,-0.009340000000000003,0.1111,0.4378,-9.912,10.236904844498387,22.899341922852223,28.799999237060547,28.81999969482422,29.079999923706055,29.059999465942383,23.38586491648613,23.402105472594453,23.613228055648616,23.59698749954029,23.499546486067374,0.026210559466609874,0.4000000059604645,28.524999618530273,0.0,0.0,0.0,0.0,0.0,,,,,
frame_00071.png,1771859018034799384,1771859018.0347993,42.300873852487506,-83.69764956300266,238.10385131835938,-0.01512425740512685,-0.9996490438150238,-0.008040554209473198,-0.020208798223959858,0.03230000000000001,0.04016,-0.0011900000000000003,0.3028,0.531,-10.8934,10.288040806858312,23.013730002493634,28.94999885559082,29.01999855041504,29.079999923706055,29.010000228881836,23.507665989729194,23.56450638732365,23.613228055648616,23.55638765805416,23.560447022688905,0.023756123850242068,0.0,26.475000381469727,0.0,0.0,0.0,0.0,0.0,,,,,
frame_00072.png,1771859018086949676,1771859018.0869496,42.30087392222448,-83.69765455853964,238.09860229492188,-0.014835409637560304,-0.9996707343794499,-0.007163519095619681,-0.019672758838146467,0.022320000000000003,-0.00461,-0.014440000000000001,1.1451,-1.0532000000000001,-10.4414,10.370486239842617,23.198155489353542,29.229999542236328,29.149999618530273,29.010000228881836,29.25,23.73502912889168,23.670068453243065,23.55638765805416,23.751269685,23.678188731297226,0.020692733185790905,-0.5,26.55000114440918,0.0,0.0,0.0,0.0,0.0,,,,,
frame_00073.png,1771859018129106447,1771859018.1291065,42.30087400866176,-83.69766212101358,238.09214782714844,-0.014595575525694293,-0.999658211219913,-0.007109418654895467,-0.020491122030449473,-0.021040000000000003,-0.06679,-0.009940000000000001,0.7090000000000001,-1.8832,-10.9756,10.451617023517871,23.37964018458807,29.279998779296875,29.349998474121094,29.19999885559082,29.299999237060547,23.77562897037781,23.83246936797226,23.710668294729196,23.79186952648613,23.777659039891347,0.017024165135169734,-0.6000000238418579,27.149999618530273,0.0,0.0,0.0,0.0,0.0,,,,,
frame_00074.png,1771859018192964841,1771859018.1929648,42.300874033955175,-83.69766466137038,238.0895538330078,-0.014524405413858965,-0.9996238227495242,-0.007152609270662323,-0.022138085274544878,0.03398,-0.06754000000000002,-0.0089,-0.0811,-1.6300000000000001,-11.3602,10.50392698625238,23.4966544326274,29.510000228881836,29.40999984741211,29.579999923706055,29.389999389648438,23.962392268054163,23.881191036297228,24.019232665648612,23.864950480188906,23.931941612547227,0.018525496094260564,0.10000000149011612,27.25,0.0,0.0,0.0,0.0,0.0,,,,,
frame_00075.png,1771859018237119920,1771859018.23712,42.300874144850376,-83.6976748377899,238.08343505859375,-0.014522067401239458,-0.9996132704006093,-0.0054647169046483715,-0.02307717631219736,0.08470000000000001,-0.05507000000000001,-0.0101,0.2129,-0.47140000000000004,-8.9143,10.53921575897818,23.575593299888652,29.489999771118164,29.729999542236328,29.69999885559082,29.729999542236328,23.946151711945838,24.14103373889168,24.116672904729196,24.14103373889168,24.086223023614597,0.02165925231363558,0.20000000298023224,27.0,0.0,0.0,0.0,0.0,0.0,,,,,
frame_00076.png,1771859018281130115,1771859018.2811303,42.30087417769066,-83.69767738407279,238.0828857421875,-0.014485478963623843,-0.9996045817815318,-0.004633612052666847,-0.02365122871878956,0.049030000000000004,-0.046880000000000005,-0.0049900000000000005,0.1148,0.7908000000000001,-12.248800000000001,10.557756199388,23.617067152658997,29.76999855041504,29.809999465942383,30.0,29.92999839782715,24.17351330232365,24.205994414540292,24.360276600000002,24.303434653620872,24.260804742621204,0.027257304465500908,-0.5,26.024999618530273,0.0,0.0,0.0,0.0,0.0,,,,,
frame_00077.png,1771859018338017747,1771859018.3380177,42.30087429986064,-83.69768764262545,238.0794677734375,-0.014294859938327908,-0.999590918874822,-0.0040525231758913195,-0.024438267905919443,-0.0018200000000000002,0.00931,-0.016130000000000002,0.20090000000000002,-0.057600000000000005,-7.5724,10.606432429290683,23.7259529583775,29.94999885559082,29.979999542236328,29.889999389648438,29.92999839782715,24.319675209729194,24.344036043891677,24.270955090188902,24.303434653620872,24.309525249357662,0.024596368879425977,-1.2000000476837158,21.975000381469727,0.0,0.0,0.0,0.0,0.0,,,,,
frame_00078.png,1771859018391027898,1771859018.391028,42.30087438072568,-83.69769535951967,238.0689697265625,-0.014050799868065289,-0.9996169600704069,-0.004300486731666588,-0.023452376777988997,0.0014100000000000002,0.05956000000000001,-0.016560000000000002,0.2781,-0.5324,-6.1829,10.63804577074134,23.796670106402132,30.06999969482422,30.03999900817871,29.889999389648438,29.85999870300293,24.41711699759445,24.39275616343197,24.270955090188902,24.246594256026423,24.331855626810437,0.022489933171966008,-0.9000000357627869,19.450000762939453,0.0,0.0,0.0,0.0,0.0,,,,,
frame_00079.png,1771859018432168716,1771859018.4321687,42.300874402487906,-83.69769793738138,238.0629425048828,-0.013937629482127845,-0.9996388206848339,-0.004694072175218344,-0.022493028934920577,-0.031990000000000005,0.07752,0.0035600000000000002,1.1336000000000002,0.1832,-8.5553,10.667586689117535,23.86275136835458,30.029998779296875,30.149999618530273,30.079999923706055,29.92999839782715,24.384635885377808,24.48207767324307,24.425237275648612,24.303434653620872,24.39884637197259,0.022465766639506085,-0.699999988079071,18.200000762939453,0.0,0.0,0.0,0.0,0.0,,,,,
frame_00080.png,1771859018483286329,1771859018.4832864,42.300874506802,-83.69770832256869,238.04293823242188,-0.013991231995913844,-0.9996582987094282,-0.004085633201079419,-0.021698821395513747,0.03533000000000001,0.021980000000000006,0.009430000000000001,0.6155,0.048,-12.2696,10.736756418258818,24.017479902259883,30.03999900817871,29.81999969482422,29.8799991607666,29.8799991607666,24.39275616343197,24.214114692594453,24.262834812134745,24.262834812134745,24.283135120073975,0.01106091142347938,-0.800000011920929,9.15000057220459,0.0,0.0,0.0,0.0,0.0,,,,,
frame_00081.png,1771859018530845429,1771859018.5308454,42.30087456598742,-83.69771358827956,238.03834533691406,-0.013987675579485548,-0.9995922168662421,-0.0019168035293678151,-0.02482077308515183,0.01907,-0.19853000000000004,-0.00812,2.7646,-1.1904000000000001,-11.4397,10.911875852641225,24.409211569807265,30.059999465942383,30.1299991607666,29.939998626708984,30.170000076293945,24.408996719540294,24.465837117134743,24.311554931675033,24.498318229351387,24.421176749425364,0.0004901911552480616,-1.399999976158142,4.425000190734863,0.0,0.0,0.0,0.0,0.0,,,,,
frame_00082.png,1771859018593177876,1771859018.5931778,42.30087465308038,-83.69772154045698,238.03562927246094,-0.013738487714636817,-0.9994244474096234,-0.0019672777087352336,-0.03095412240235704,-0.009240000000000002,-0.22278,-0.012230000000000001,-0.4687,-1.5227000000000002,-9.5206,10.959499096108116,24.515741908048092,30.369998931884766,30.439998626708984,30.479999542236328,30.439998626708984,24.660719144080584,24.717559541675033,24.750040653891677,24.717559541675033,24.71146972033058,0.007983760516675781,-1.7000000476837158,0.0,0.0,0.0,0.0,0.0,0.0,,,,,
frame_00083.png,1771859018631770005,1771859018.6317701,42.30087470181523,-83.69772686461435,238.0330047607422,-0.013605490641300845,-0.999227190233653,-0.0033065469914602096,-0.03672845857317908,-0.06715000000000002,-0.19842000000000004,-0.0038200000000000005,-0.4554,-0.9535,-9.1193,10.971773008116822,24.543197912776844,31.229999542236328,31.69999885559082,30.59000015258789,30.649999618530273,25.35904756889168,25.740691344729196,24.839362163702774,24.88808228324307,25.206795840141677,0.027037956900448308,-1.600000023841858,0.0,0.0,0.0,0.0,0.0,0.0,,,,,
frame_00084.png,1771859018683323061,1771859018.6833231,42.30087472090629,-83.69772951728683,238.03030395507812,-0.013753627852052143,-0.999100314226785,-0.004371744699418038,-0.03987841121621949,-0.03475,-0.05836000000000001,0.012720000000000002,-2.0558,-0.5675,-6.995100000000001,10.95595434308796,24.507812508227182,30.92999839782715,30.90999984741211,31.34000015258789,30.979999542236328,25.115443873620872,25.099204866297228,25.448369078702775,25.156045263891677,25.204765770628143,0.028438003684212763,-1.2000000476837158,0.0,0.0,0.0,0.0,0.0,0.0,,,,,
frame_00085.png,1771859018735193660,1771859018.7351935,42.3008747838066,-83.69774007806853,238.0087890625,-0.014030130899166495,-0.9991209438975814,-0.005375892593784067,-0.03913559340265654,-0.05525000000000001,0.07597000000000001,0.02147,-3.9528000000000003,0.3196,-5.0115,10.848639751765768,24.267756206314917,31.25,31.119998931884766,31.559999465942383,31.44999885559082,25.375288125,25.269726059080583,25.62701054954029,25.537689039729198,25.452428443337517,0.048816719063393514,-1.2000000476837158,0.0,0.0,0.0,0.0,0.0,0.0,,,,,
frame_00086.png,1771859018786152500,1771859018.7861524,42.30087482095892,-83.69774532962417,237.9891815185547,-0.0139293743710342,-0.999272751805278,-0.006510486803756892,-0.03489346057239119,0.0010400000000000001,0.07959000000000001,-0.004470000000000001,-1.3352000000000002,4.9583,-11.372900000000001,10.856240616959353,24.284758885701056,31.189998626708984,31.099998474121094,30.649999618530273,30.170000076293945,25.326566456675035,25.25348550297226,24.88808228324307,24.498318229351387,24.991613118060435,0.029106907574675475,-1.600000023841858,0.0,0.0,0.0,0.0,0.0,0.0,,,,,
frame_00087.png,1771859018836522177,1771859018.8365223,42.300874836952396,-83.69774793961783,237.97769165039062,-0.014226456638075646,-0.9995458220763265,-0.005537805255363012,-0.025982498229364735,-8e-05,0.34334000000000003,0.034030000000000005,1.0662,-1.3147,0.3734,10.857419780380427,24.287396603524193,30.829999923706055,31.01999855041504,30.849998474121094,30.799999237060547,25.034244190648614,25.188524827323647,25.050483197972262,25.00988335648613,25.070783893107663,0.03225488933094612,-1.600000023841858,0.0,0.0,0.0,0.0,0.0,0.0,,,,,
frame_00088.png,1771859018893861662,1771859018.8938615,42.30087492197452,-83.69775842822673,237.91270446777344,-0.01386881698503617,-0.9996814926422234,-0.00789281721103574,-0.019551793281560013,-0.11737000000000002,0.07485000000000001,0.029570000000000006,0.5771000000000001,12.4618,-27.1797,10.91344859183381,24.412729693016722,30.479999542236328,30.459999084472656,30.639999389648438,30.729999542236328,24.750040653891677,24.73380009778336,24.879962005188904,24.95304295889168,24.829211428938905,0.017060023240306376,-1.0,0.0,0.0,0.0,0.0,0.0,0.0,,,,,
frame_00089.png,1771859018944680863,1771859018.944681,42.300874981904926,-83.69776638894733,237.88265991210938,-0.014128956998025688,-0.9997516931048447,-0.008304502872177306,-0.015098342299425508,-0.08946000000000001,0.013490000000000002,0.015750000000000004,5.3119000000000005,0.7331000000000001,-20.3628,11.08341977092032,24.792945022362503,30.34000015258789,30.42999839782715,30.829999923706055,31.059999465942383,24.63635985870277,24.709439263620872,25.034244190648614,25.22100593954029,24.900262313128135,0.004328541472940593,-0.699999988079071,0.0,0.0,0.0,0.0,0.0,0.0,,,,,
frame_00090.png,1771859018985780226,1771859018.9857802,42.30087505107173,-83.69777718131238,237.8911590576172,-0.014169789171267988,-0.999676470032473,-0.009551127832381053,-0.01884007153344787,-0.08601000000000002,-0.18457,3e-05,4.353800000000001,-2.1037,-15.0722,11.145902873036292,24.932715972809802,30.459999084472656,30.399999618530273,31.01999855041504,30.849998474121094,24.73380009778336,24.685079978243067,25.188524827323647,25.050483197972262,24.914472025330582,0.0007317272413930448,-0.9000000357627869,0.0,0.0,0.0,0.0,0.0,0.0,,,,,
frame_00091.png,1771859019038334366,1771859019.0383344,42.30087505884296,-83.69777988524332,237.89785766601562,-0.014409907382319675,-0.9994893325706362,-0.010528893666585347,-0.026506056758688553,-0.028400000000000005,-0.21046000000000004,-0.004240000000000001,-1.7538,-1.2111,-8.481200000000001,11.146118403460775,24.933198101437547,30.619998931884766,30.709999084472656,30.8799991607666,30.90999984741211,24.863721449080582,24.936802402783357,25.07484403213474,25.099204866297228,24.993643187573976,0.0024242813092213854,-1.100000023841858,0.0,0.0,0.0,0.0,0.0,0.0,,,,,
frame_00092.png,1771859019090263676,1771859019.0902636,42.300875097335314,-83.69778531605382,237.9079132080078,-0.014683575810619742,-0.9992801828890427,-0.010887325269930697,-0.03324116175950507,0.015070000000000002,-0.22923000000000004,0.008110000000000001,-2.3128,1.4423000000000001,-4.8697,11.157067087208578,24.957689650060356,31.549999237060547,31.469999313354492,30.979999542236328,31.010000228881836,25.61889027148613,25.553929595837516,25.156045263891677,25.180406098054164,25.37731780731737,0.016813581831521852,-1.100000023841858,0.0,0.0,0.0,0.0,0.0,0.0,,,,,
frame_00093.png,1771859019139927668,1771859019.1399276,42.30087519777611,-83.69779609243818,237.9066925048828,-0.014583998382504626,-0.9992111290862913,-0.010321967428155566,-0.03546665320678378,0.025830000000000002,-0.050600000000000006,-0.010270000000000001,-0.9868,0.46240000000000003,-2.8813,11.082747901420925,24.791442090604527,31.639999389648438,31.549999237060547,31.049999237060547,31.279998779296875,25.691971225188905,25.61889027148613,25.212885661486133,25.399647410377806,25.480848642134745,0.027808247257689395,-1.100000023841858,0.0,0.0,0.0,0.0,0.0,0.0,,,,,
frame_00094.png,1771859019187402894,1771859019.187403,42.300875222076854,-83.69779877317194,237.89990234375,-0.014460118757912088,-0.9992071974384843,-0.009740842536791562,-0.03579102596057055,0.009470000000000001,-0.017620000000000004,-0.007940000000000001,-4.835,0.3433,-3.9466,11.041487492913006,24.69914503239682,31.119998931884766,31.25,31.099998474121094,30.959999084472656,25.269726059080583,25.375288125,25.25348550297226,25.13980470778336,25.259576098709047,0.022690302258524843,-1.100000023841858,0.0,0.0,0.0,0.0,0.0,0.0,,,,,
frame_00095.png,1771859019239090774,1771859019.2390907,42.300875333071545,-83.6978094185817,237.85394287109375,-0.014096199690181332,-0.9993569560620901,-0.010204577729674032,-0.0313502490894012,-0.08780000000000002,0.19845000000000002,-0.006680000000000001,1.2054,-1.8519,-5.7784,11.00751311968519,24.623146397948588,31.469999313354492,31.779998779296875,31.06999969482422,31.049999237060547,25.553929595837516,25.805652020377806,25.22912621759445,25.212885661486133,25.45039837382398,0.03359651778475849,-1.600000023841858,0.0,0.0,0.0,0.0,0.0,0.0,,,,,
frame_00096.png,1771859019291208949,1771859019.291209,42.30087534537264,-83.69781208836964,237.8412322998047,-0.01380997991495303,-0.9994935018318736,-0.010514779391317773,-0.026673276232195817,-0.033190000000000004,0.19608,-0.015450000000000002,0.5991000000000001,-2.9091,-12.6876,11.021882189010954,24.655289143886165,31.510000228881836,31.28999900817871,31.119998931884766,31.1299991607666,25.58641070805416,25.40776768843197,25.269726059080583,25.277846337134743,25.385437698175366,0.029614276678246048,-1.3000000715255737,0.0,0.0,0.0,0.0,0.0,0.0,,,,,
frame_00097.png,1771859019351171118,1771859019.351171,42.30087539309802,-83.69781741520993,237.81793212890625,-0.013662960921873746,-0.9996438406844921,-0.012128543163261401,-0.01945285894520512,-0.03797000000000001,0.21212000000000003,0.006440000000000001,-0.5890000000000001,-1.2678,-14.1873,10.996901907656833,24.59940975331388,31.209999084472656,31.25,31.139999389648438,31.19999885559082,25.342807012783357,25.375288125,25.285966615188908,25.334686734729196,25.334687121925363,0.02989004110199971,-0.9000000357627869,0.0,0.0,0.0,0.0,0.0,0.0,,,,,
frame_00098.png,1771859019404327542,1771859019.4043274,42.30087547681569,-83.69782806640545,237.78488159179688,-0.013573750356190961,-0.9997101865818034,-0.012479719330176808,-0.015477491763319553,0.0041,0.13914,-0.0018900000000000002,-0.7683,-1.5381,-13.6818,11.03782696193883,24.69095664423945,30.90999984741211,30.92999839782715,31.189998626708984,31.139999389648438,25.099204866297228,25.115443873620872,25.326566456675035,25.285966615188908,25.206795452945514,0.020891811367965474,-1.100000023841858,0.0,0.0,0.0,0.0,0.0,0.0,,,,,
frame_00099.png,1771859019445162643,1771859019.4451628,42.300875521334376,-83.69783342705632,237.77639770507812,-0.013522805425788653,-0.9997432731637467,-0.01244379720403963,-0.013254184561825248,0.008490000000000001,0.042210000000000004,-0.004130000000000001,2.0633,-0.9912000000000001,-14.4299,11.09718046767144,24.82372687535295,30.849998474121094,31.01999855041504,31.76999855041504,31.099998474121094,25.050483197972262,25.188524827323647,25.797531742323645,25.25348550297226,25.322506317647957,0.020092850876080023,-1.5,0.0,0.0,0.0,0.0,0.0,0.0,,,,,
frame_00100.png,1771859019499902695,1771859019.4999027,42.300875609621464,-83.69784417297329,237.77874755859375,-0.013547353777971616,-0.9997444850803383,-0.012397010492500518,-0.01318134621016722,0.022390000000000004,-0.05625,0.0008000000000000001,0.7927000000000001,1.3809,-12.4616,11.116186350915813,24.86624189581762,30.869998931884766,30.889999389648438,30.76999855041504,30.689998626708984,25.06672375408058,25.082964310188903,24.98552252232365,24.92056184667503,25.01394310831704,0.005939828507992717,-1.8000000715255737,0.0,0.0,0.0,0.0,0.0,0.0,,,,,
frame_00101.png,1771859019541238962,1771859019.541239,42.3008756310928,-83.69784687698589,237.7809295654297,-0.013497486447418716,-0.9997246869890607,-0.012212924356427261,-0.014805828679628368,-0.0068800000000000016,-0.04479000000000001,0.0035500000000000006,-0.3257,1.0776000000000001,-8.3339,11.13341551647734,24.904782505428823,30.85999870300293,30.779998779296875,31.059999465942383,30.969999313354492,25.058603476026423,24.993642800377806,25.22100593954029,25.147924985837516,25.10529430044551,0.008051136161216405,-1.8000000715255737,0.0,0.0,0.0,0.0,0.0,0.0,,,,,
frame_00102.png,1771859019591074102,1771859019.591074,42.30087567899619,-83.69785226908475,237.78536987304688,-0.013412465373474847,-0.9996786584000683,-0.01253907053328678,-0.017477340249763745,0.013920000000000002,-0.11056000000000002,-0.013090000000000001,-0.0198,-1.5999,-17.482,11.161394905792832,24.96737072056422,30.849998474121094,30.729999542236328,31.079999923706055,30.849998474121094,25.050483197972262,24.95304295889168,25.237246495648613,25.050483197972262,25.072813962621204,0.0042232417356681306,-1.600000023841858,0.0,0.0,0.0,0.0,0.0,0.0,,,,,
frame_00103.png,1771859019641999936,1771859019.642,42.30087573418087,-83.69786037715708,237.80068969726562,-0.013494019934575052,-0.9996185956714506,-0.012229091906927104,-0.0207611156967535,0.09098000000000002,-0.13013000000000002,-0.021340000000000005,0.5385,-0.25830000000000003,-7.3580000000000005,11.165356192713759,24.976231881729117,30.92999839782715,30.959999084472656,31.1299991607666,31.059999465942383,25.115443873620872,25.13980470778336,25.277846337134743,25.22100593954029,25.188525214519817,0.00849981429528606,-1.5,0.0,0.0,0.0,0.0,0.0,0.0,,,,,
frame_00104.png,1771859019701376331,1771859019.7013762,42.300875774622575,-83.69786577580662,237.80812072753906,-0.013584891082877026,-0.9995576928531806,-0.011932816679225664,-0.02361095674454748,0.054270000000000006,-0.06246000000000001,0.0021600000000000005,0.533,3.2666,-6.9477,11.120569884537783,24.87604759751795,30.979999542236328,30.979999542236328,31.010000228881836,31.0,25.156045263891677,25.156045263891677,25.180406098054164,25.172285820000003,25.16619561145938,0.011663750553780885,-1.7000000476837158,0.0,0.0,0.0,0.0,0.0,0.0,,,,,
frame_00105.png,1771859019751273471,1771859019.7512734,42.300875841140495,-83.6978738580956,237.81068420410156,-0.013702472220731954,-0.9995449170466837,-0.010805999729247355,-0.024605516272362713,0.028720000000000002,0.01683,0.004090000000000001,-0.905,-0.5146000000000001,-4.8119000000000005,11.087113905765268,24.80120858036256,31.1299991607666,31.059999465942383,30.90999984741211,31.049999237060547,25.277846337134743,25.22100593954029,25.099204866297228,25.212885661486133,25.202735701114598,0.016189820727928794,-1.7000000476837158,0.0,0.0,0.0,0.0,0.0,0.0,,,,,
frame_00106.png,1771859019794078182,1771859019.794078,42.3008758877642,-83.69787923470814,237.80581665039062,-0.013585742860469763,-0.9995528772438598,-0.010540659648942408,-0.024461555114415407,0.012690000000000002,0.019930000000000003,-0.009390000000000003,-0.868,-0.6401,-8.0604,11.075467888853954,24.775157139292965,31.079999923706055,31.099998474121094,30.959999084472656,30.959999084472656,25.237246495648613,25.25348550297226,25.13980470778336,25.13980470778336,25.192585353546896,0.01684866061220243,-1.7000000476837158,0.0,0.0,0.0,0.0,0.0,0.0,,,,,
frame_00107.png,1771859019844457290,1771859019.8444571,42.3008759856782,-83.69788995382594,237.78408813476562,-0.013549717228898916,-0.9995897723111522,-0.010162915085004068,-0.02309561453892769,0.014140000000000002,0.05539000000000001,-0.007940000000000001,-0.437,-0.9898,-9.2698,11.068574524634746,24.75973709713645,31.17999839782715,31.28999900817871,30.94999885559082,30.90999984741211,25.31844617862087,25.40776768843197,25.131684429729198,25.099204866297228,25.239275790769817,0.01936768115719718,-1.600000023841858,0.0,0.0,0.0,0.0,0.0,0.0,,,,,
frame_00108.png,1771859019894549370,1771859019.8945491,42.30087603354306,-83.69789531583149,237.77163696289062,-0.013545003125689292,-0.9996165288736281,-0.010007027991020587,-0.021981525965024628,0.017630000000000003,0.026210000000000004,-0.0023500000000000005,-0.1105,-0.1047,-11.277700000000001,11.076316701515754,24.777055882288654,31.099998474121094,30.959999084472656,30.94999885559082,30.969999313354492,25.25348550297226,25.13980470778336,25.131684429729198,25.147924985837516,25.168224906580587,0.01578755063355014,-1.600000023841858,0.0,0.0,0.0,0.0,0.0,0.0,,,,,
frame_00109.png,1771859019947761434,1771859019.9477613,42.300876101437446,-83.69790336236555,237.755615234375,-0.013508970520971275,-0.9996337467844602,-0.009851876526539644,-0.02127958021275322,0.020290000000000002,0.05987000000000001,-0.010460000000000002,-0.5528000000000001,0.47150000000000003,-10.339400000000001,11.06420254473762,24.749957240425374,31.029998779296875,31.059999465942383,30.979999542236328,31.01999855041504,25.196645105377808,25.22100593954029,25.156045263891677,25.188524827323647,25.19055528403336,0.017801971911625487,-1.7000000476837158,0.0,0.0,0.0,0.0,0.0,0.0,,,,,
frame_00110.png,1771859019995706548,1771859019.9957066,42.300876145811706,-83.6979087266484,237.74693298339844,-0.013383938712874521,-0.9996377822677753,-0.009594082423434003,-0.021286804122424213,0.028630000000000003,0.009510000000000001,-0.006360000000000001,0.15910000000000002,-0.0393,-11.0074,11.091565969229569,24.811167579208394,30.84000015258789,30.779998779296875,30.94999885559082,30.829999923706055,25.042364468702775,24.993642800377806,25.131684429729198,25.034244190648614,25.050483972364603,0.009645511134943694,-1.899999976158142,0.0,0.0,0.0,0.0,0.0,0.0,,,,,
frame_00111.png,1771859020044894012,1771859020.044894,42.30087621314563,-83.69791680158124,237.73797607421875,-0.01331965634375809,-0.9996164169091494,-0.009129298538574429,-0.02250026019386572,0.031810000000000005,-0.04968000000000001,-0.004600000000000001,-0.7849,0.6705,-10.9937,11.108461518093716,24.848961908284558,31.01999855041504,30.829999923706055,31.010000228881836,30.869998931884766,25.188524827323647,25.034244190648614,25.180406098054164,25.06672375408058,25.117474717526754,0.01080579584101962,-2.1000001430511475,0.0,0.0,0.0,0.0,0.0,0.0,,,,,
frame_00112.png,1771859020096049068,1771859020.096049,42.30087625403924,-83.697922186086,237.7335205078125,-0.01337323740927382,-0.9995786375097888,-0.009421098153327357,-0.02397804964660509,-0.004000000000000001,-0.03934000000000001,-0.0006000000000000001,-1.1478000000000002,1.5401,-10.0299,11.095727782870421,24.820477306614162,31.01999855041504,31.079999923706055,30.889999389648438,30.889999389648438,25.188524827323647,25.237246495648613,25.082964310188903,25.082964310188903,25.147924985837516,0.013192642316193331,-2.1000001430511475,0.0,0.0,0.0,0.0,0.0,0.0,,,,,
frame_00113.png,1771859020148728259,1771859020.1487284,42.300876313807535,-83.69793023673331,237.7255401611328,-0.013393967038324128,-0.9995657063191237,-0.009048068511791497,-0.024640066029409755,0.023920000000000004,-0.017090000000000004,0.005130000000000001,-1.6816,0.9,-9.431000000000001,11.061713241039145,24.74438881741011,31.03999900817871,31.010000228881836,31.099998474121094,31.209999084472656,25.204765383431972,25.180406098054164,25.25348550297226,25.342807012783357,25.24536599931044,0.020246092380663095,-2.200000047683716,0.0,0.0,0.0,0.0,0.0,0.0,,,,,
frame_00114.png,1771859020198570823,1771859020.1985707,42.30087635661939,-83.6979355952499,237.7196807861328,-0.013275408758982032,-0.9995958242897367,-0.008226501757719495,-0.023754499650253492,-0.00116,0.03266000000000001,-0.008530000000000001,-0.9105000000000001,-0.9001,-10.5798,11.039087064406889,24.693775417854347,30.959999084472656,30.92999839782715,31.189998626708984,31.079999923706055,25.13980470778336,25.115443873620872,25.326566456675035,25.237246495648613,25.20476538343197,0.02069306766304194,-2.700000047683716,0.0,0.0,0.0,0.0,0.0,0.0,,,,,
frame_00115.png,1771859020247941789,1771859020.247942,42.30087638237158,-83.69793826338808,237.716796875,-0.013327040208809982,-0.9996326636707543,-0.007177249529723443,-0.02248143258276383,0.038610000000000005,0.09307000000000001,0.00525,-1.0826,-0.3052,-7.6191,11.032324353254175,24.678647638768396,31.099998474121094,30.94999885559082,30.92999839782715,30.84000015258789,25.25348550297226,25.131684429729198,25.115443873620872,25.042364468702775,25.135744568756277,0.01852196022564112,-3.700000047683716,0.0,0.0,0.0,0.0,0.0,0.0,,,,,
frame_00116.png,1771859020299405174,1771859020.299405,42.30087645754638,-83.6979489629432,237.7017822265625,-0.013354185189477508,-0.9996561809990218,-0.007619585558052986,-0.02123976092849933,-0.017740000000000002,0.0864,-0.00562,-0.09530000000000001,0.5556,-8.1112,11.04163233028235,24.699469024901802,30.90999984741211,30.90999984741211,30.65999984741211,30.760000228881836,25.099204866297228,25.099204866297228,24.896202561297226,24.97740379305416,25.018004021736463,0.012896430952159997,-4.400000095367432,0.0,0.0,0.0,0.0,0.0,0.0,,,,,
frame_00117.png,1771859020351566619,1771859020.3515666,42.30087647595555,-83.69795164228059,237.69732666015625,-0.013409432115958853,-0.9996696190750559,-0.008116739649508915,-0.020370526898491857,-0.0034000000000000002,0.023990000000000004,0.004220000000000001,-0.0001,0.7016,-9.738900000000001,11.051536637764878,24.721624366481766,31.34000015258789,31.34000015258789,30.719999313354492,30.829999923706055,25.448369078702775,25.448369078702775,24.944922680837518,25.034244190648614,25.21897625722292,0.02011809108366992,-4.599999904632568,0.0,0.0,0.0,0.0,0.0,0.0,,,,,
frame_00118.png,1771859020399484811,1771859020.3994849,42.300876540712075,-83.69796234916144,237.67730712890625,-0.013539583869619454,-0.9996597924758904,-0.009007295738585955,-0.02039234167953909,-0.06775000000000002,-0.03237,0.007720000000000001,0.1456,1.3291000000000002,-12.1965,11.066433799806589,24.754948424139354,30.92999839782715,30.92999839782715,30.92999839782715,30.829999923706055,25.115443873620872,25.115443873620872,25.115443873620872,25.034244190648614,25.095143952877805,0.013742526258172932,-4.300000190734863,0.0,0.0,0.0,0.0,0.0,0.0,,,,,
frame_00119.png,1771859020448814877,1771859020.4488149,42.30087656337147,-83.69796770927015,237.67152404785156,-0.013660704430685455,-0.9996074222747283,-0.011199066659075538,-0.021747813538291506,-0.13431,0.007940000000000001,0.012050000000000002,-1.0831,1.6280000000000001,-10.3514,11.037686860925593,24.6906432466789,31.0,30.920000076293945,30.94999885559082,30.829999923706055,25.172285820000003,25.10732514435139,25.131684429729198,25.034244190648614,25.1113848961823,0.017040530102835415,-3.700000047683716,0.0,0.0,0.0,0.0,0.0,0.0,,,,,
frame_00120.png,1771859020499800027,1771859020.4998,42.30087659538265,-83.69797574690475,237.6676025390625,-0.013794328198604933,-0.9995614111807385,-0.011784027596372332,-0.0234059497036064,-0.012810000000000002,-0.029790000000000004,0.007170000000000001,-1.3835000000000002,-1.8202,-11.143600000000001,11.050311754775457,24.718884376727413,31.01999855041504,30.94999885559082,31.0,30.869998931884766,25.188524827323647,25.131684429729198,25.172285820000003,25.06672375408058,25.13980470778336,0.017028289976235268,-3.700000047683716,0.0,0.0,0.0,0.0,0.0,0.0,,,,,
frame_00121.png,1771859020549637831,1771859020.5496378,42.300876626456805,-83.69798109410844,237.66390991210938,-0.014137815910285623,-0.9995499962519621,-0.011390760286075764,-0.023878394713517756,0.052680000000000005,-0.009460000000000001,0.007850000000000001,-2.1856,0.5327000000000001,-7.7231000000000005,11.027583733975154,24.668043157878383,30.959999084472656,30.92999839782715,31.059999465942383,30.76999855041504,25.13980470778336,25.115443873620872,25.22100593954029,24.98552252232365,25.115444260817043,0.01813687044713031,-4.400000095367432,0.0,0.0,0.0,0.0,0.0,0.0,,,,,
frame_00122.png,1771859020600583929,1771859020.600584,42.3008767164284,-83.6979917657387,237.64710998535156,-0.014404953934061049,-0.9995820547625645,-0.010804079249046278,-0.022616033480427785,0.04567,0.06409000000000001,-0.00044000000000000007,-1.0876000000000001,1.1065,-8.0579,11.011250239551547,24.63150611086244,31.03999900817871,30.849998474121094,31.219999313354492,30.94999885559082,25.204765383431972,25.050483197972262,25.350927290837518,25.131684429729198,25.18446507549274,0.022449255118283076,-5.099999904632568,0.0,0.0,0.0,0.0,0.0,0.0,,,,,
frame_00123.png,1771859020650686867,1771859020.650687,42.30087676763733,-83.69799709721244,237.63552856445312,-0.014469578841147357,-0.9996073855124162,-0.010993627049581265,-0.021327125485775006,-0.046130000000000004,0.060180000000000004,0.018420000000000002,0.0936,0.45070000000000005,-9.7309,11.012984285143153,24.635385066808126,30.78999900817871,30.60999870300293,30.979999542236328,31.139999389648438,25.001763078431967,24.85560117102642,25.156045263891677,25.285966615188908,25.074844032134745,0.017838526336603232,-5.300000190734863,0.0,0.0,0.0,0.0,0.0,0.0,,,,,
frame_00124.png,1771859020701773493,1771859020.7017736,42.300876817439224,-83.6980051028885,237.61917114257812,-0.014778361259762562,-0.9995871917775662,-0.013623422315788558,-0.02052920936424423,-0.18806000000000003,-0.07134000000000001,0.04408000000000001,0.2189,1.8432000000000002,-15.971400000000001,11.028232378312095,24.66949413634146,30.729999542236328,30.649999618530273,30.799999237060547,30.829999923706055,24.95304295889168,24.88808228324307,25.00988335648613,25.034244190648614,24.97131319731737,0.012234505470920564,-4.800000190734863,0.0,0.0,0.0,0.0,0.0,0.0,,,,,
frame_00125.png,1771859020751703512,1771859020.7517035,42.3008768446449,-83.69801045100131,237.61415100097656,-0.015195930694429871,-0.9995755647451979,-0.014349781819617203,-0.02029428038581877,-0.05904000000000001,0.01617,0.025540000000000004,1.3246,1.4625000000000001,-5.4858,11.032154379700534,24.678267418127316,30.719999313354492,30.59000015258789,30.869998931884766,30.760000228881836,24.944922680837518,24.839362163702774,25.06672375408058,24.97740379305416,24.95710309791876,0.011298835330175073,-4.300000190734863,0.0,0.0,0.0,0.0,0.0,0.0,,,,,
frame_00126.png,1771859020802658804,1771859020.8026588,42.300876875217135,-83.69801312923421,237.61248779296875,-0.015605260187931347,-0.9995399234457019,-0.013303286432069919,-0.02234815121511975,0.04336000000000001,-0.05704000000000001,-0.00030000000000000003,-1.3356000000000001,0.0217,-14.384300000000001,11.033590181158212,24.681479219840053,30.729999542236328,30.67999839782715,30.90999984741211,30.729999542236328,24.95304295889168,24.912441568620874,25.099204866297228,24.95304295889168,24.979433088175362,0.01207196155795236,-4.200000286102295,0.0,0.0,0.0,0.0,0.0,0.0,,,,,
frame_00127.png,1771859020854561047,1771859020.854561,42.30087696387564,-83.69802116418037,237.6090850830078,-0.015828699483725117,-0.9995377962776832,-0.012288461348317131,-0.022861316731490267,0.07299000000000001,-0.01718,0.006340000000000001,0.7514000000000001,1.3684,-6.5056,11.050085843661375,24.718379027119877,30.76999855041504,30.829999923706055,30.75,30.76999855041504,24.98552252232365,25.034244190648614,24.969283515,24.98552252232365,24.993643187573976,0.011136011797217467,-3.799999952316284,0.0,0.0,0.0,0.0,0.0,0.0,,,,,
frame_00128.png,1771859020903573436,1771859020.9035735,42.30087702589588,-83.69802651850001,237.60557556152344,-0.015884570734342407,-0.9994986715076366,-0.012110713382344191,-0.024564541282629564,-0.014140000000000002,-0.033010000000000005,0.0027400000000000002,-0.0974,0.8315,-8.8809,11.027704418165232,24.668313121170534,30.809999465942383,30.76999855041504,30.869998931884766,30.869998931884766,25.018003634540293,24.98552252232365,25.06672375408058,25.06672375408058,25.034243416256277,0.014834021819339517,-2.700000047683716,0.0,0.0,0.0,0.0,0.0,0.0,,,,,
frame_00129.png,1771859020953560290,1771859020.9535604,42.30087714955252,-83.69803721508455,237.59378051757812,-0.015983908675989755,-0.9994871838868785,-0.012800813620109458,-0.02461753602572914,-0.019020000000000002,0.030980000000000004,0.005690000000000001,-0.4379,1.3503,-9.3443,11.000247272763813,24.606893134336286,30.849998474121094,30.76999855041504,30.899999618530273,30.849998474121094,25.050483197972262,24.98552252232365,25.091084588243067,25.050483197972262,25.04439337662781,0.017779580701353923,-1.5,0.0,0.0,0.0,0.0,0.0,0.0,,,,,
frame_00130.png,1771859021004554832,1771859021.0045547,42.30087718163979,-83.6980398846621,237.59048461914062,-0.01608014192676449,-0.9995043849711152,-0.012318734695572632,-0.024096934133373552,0.01182,0.04327000000000001,0.00824,-1.0181,0.47050000000000003,-8.0813,10.985741864021914,24.574445405305184,30.799999237060547,30.799999237060547,31.010000228881836,30.75,25.00988335648613,25.00988335648613,25.180406098054164,24.969283515,25.042364081506605,0.01904086413687309,-1.0,0.0,0.0,0.0,0.0,0.0,0.0,,,,,
frame_00131.png,1771859021054353657,1771859021.0543537,42.30087732226291,-83.6980505417985,237.57247924804688,-0.016048579440491928,-0.9995446040296134,-0.011099169887006224,-0.023018168498922315,0.04127000000000001,0.048530000000000004,-0.0038200000000000005,-0.9881000000000001,-0.8667,-9.5869,10.98034079982417,24.56236354875868,30.709999084472656,30.760000228881836,30.90999984741211,30.760000228881836,24.936802402783357,24.97740379305416,25.099204866297228,24.97740379305416,24.99770371379723,0.017723871083267596,-1.100000023841858,0.0,0.0,0.0,0.0,0.0,0.0,,,,,
frame_00132.png,1771859021105763751,1771859021.105764,42.30087736340043,-83.69805320475704,237.56712341308594,-0.01596472717691666,-0.9995826693034744,-0.010301668753948081,-0.02175983306900855,0.04559000000000001,0.0473,-0.009330000000000001,-0.9076000000000001,-0.5345,-10.463600000000001,10.979552408891921,24.560599965546697,30.719999313354492,30.709999084472656,30.760000228881836,30.78999900817871,24.944922680837518,24.936802402783357,24.97740379305416,25.001763078431967,24.965222988776752,0.016474476348202215,-1.0,0.0,0.0,0.0,0.0,0.0,0.0,,,,,
frame_00133.png,1771859021166003658,1771859021.1660037,42.300877514298975,-83.69806385489031,237.54714965820312,-0.015764015295179123,-0.9996138229244841,-0.009858483205310839,-0.020652146352428218,0.02236,0.02568,-0.015200000000000002,-0.4073,-0.28200000000000003,-10.0374,10.982247765334009,24.56662931618626,30.67999839782715,30.60999870300293,30.719999313354492,30.829999923706055,24.912441568620874,24.85560117102642,24.944922680837518,25.034244190648614,24.936802402783357,0.015068126841202513,-0.699999988079071,0.0,0.0,0.0,0.0,0.0,0.0,,,,,
frame_00134.png,1771859021219605104,1771859021.219605,42.30087765185365,-83.69807451041842,237.53086853027344,-0.015590863476517947,-0.9996272021001933,-0.009922496455780586,-0.020097906893026617,-0.01042,0.00459,-0.007730000000000001,-0.6935,0.12390000000000001,-10.7841,10.988141673236942,24.579813634530648,30.479999542236328,30.51999855041504,30.78999900817871,30.689998626708984,24.750040653891677,24.782520217323647,25.001763078431967,24.92056184667503,24.86372144908058,0.011550446182028263,-0.4000000059604645,0.0,0.0,0.0,0.0,0.0,0.0,,,,,
frame_00135.png,1771859021257008640,1771859021.2570086,42.30087768485314,-83.69807717369876,237.5276641845703,-0.015448955242008622,-0.9996310821103207,-0.009847617063984848,-0.02005128173061548,0.013510000000000003,-0.005320000000000001,-0.0028300000000000005,-0.5639000000000001,-0.1595,-10.860000000000001,10.993981057336052,24.59287598639731,30.56999969482422,30.56999969482422,30.760000228881836,30.729999542236328,24.82312160759445,24.82312160759445,24.97740379305416,24.95304295889168,24.894172491783685,0.0122513733470224,-0.4000000059604645,0.0,0.0,0.0,0.0,0.0,0.0,,,,,
frame_00136.png,1771859021307349835,1771859021.3073497,42.300877716335066,-83.69807984048417,237.52529907226562,-0.01540558993181984,-0.9996247025991004,-0.009529149918576056,-0.02055035411718943,0.010790000000000003,-0.037380000000000004,-0.0028200000000000005,0.2235,-0.4651,-10.5799,10.999761272421804,24.60580598073123,30.599998474121094,30.619998931884766,30.639999389648438,30.760000228881836,24.84748089297226,24.863721449080582,24.879962005188904,24.97740379305416,24.892142035073977,0.011636930510098994,-0.4000000059604645,0.0,0.0,0.0,0.0,0.0,0.0,,,,,
frame_00137.png,1771859021359087862,1771859021.359088,42.30087783725715,-83.69809050335284,237.5179901123047,-0.015367925742747923,-0.9996127610388086,-0.009308876080718157,-0.021248521192051846,0.005200000000000001,-0.022240000000000003,-0.005600000000000001,-0.7117,-0.30360000000000004,-9.3994,10.979991375978035,24.561581908580305,30.549999237060547,30.599998474121094,30.75,30.799999237060547,24.806881051486133,24.84748089297226,24.969283515,25.00988335648613,24.908382203986132,0.014119623756183112,-0.4000000059604645,0.0,0.0,0.0,0.0,0.0,0.0,,,,,
frame_00138.png,1771859021408515062,1771859021.408515,42.30087789548647,-83.69809583132181,237.51541137695312,-0.015250183582657284,-0.9996082567088783,-0.00959500886511216,-0.02141730200120816,-0.010230000000000003,0.012100000000000001,-0.008600000000000002,-0.7828,-0.4536,-9.3853,10.955810649948045,24.507491075294784,30.510000228881836,30.53999900817871,30.760000228881836,30.709999084472656,24.774401488054163,24.79876077343197,24.97740379305416,24.936802402783357,24.871842114330914,0.014866925297115403,-0.4000000059604645,0.0,0.0,0.0,0.0,0.0,0.0,,,,,
frame_00139.png,1771859021458567804,1771859021.4585676,42.3008779764903,-83.69810380800249,237.51039123535156,-0.015081217618515108,-0.9996144494703774,-0.010284493287143301,-0.02092220072086164,-0.018400000000000003,0.03304000000000001,-0.0064800000000000005,-0.6455000000000001,-0.1827,-9.120700000000001,10.93948040936399,24.470961306922685,30.459999084472656,30.529998779296875,30.760000228881836,30.779998779296875,24.73380009778336,24.790640495377808,24.97740379305416,24.993642800377806,24.87387179664828,0.016464841109924626,-0.4000000059604645,0.0,0.0,0.0,0.0,0.0,0.0,,,,,
frame_00140.png,1771859021509679978,1771859021.5096798,42.30087802702,-83.69810911985175,237.50607299804688,-0.014937672052928508,-0.999624518563339,-0.011023066721578986,-0.020153903857653113,-0.012990000000000002,0.029130000000000003,-0.00642,-0.6234000000000001,0.8223,-9.5714,10.932286942599305,24.45486995337809,30.51999855041504,30.459999084472656,30.619998931884766,30.599998474121094,24.782520217323647,24.73380009778336,24.863721449080582,24.84748089297226,24.806880664289963,0.014394299032583817,-0.4000000059604645,0.0,0.0,0.0,0.0,0.0,0.0,,,,,
frame_00141.png,1771859021559703981,1771859021.559704,42.30087810456974,-83.69811707981225,237.49847412109375,-0.014761028336222726,-0.999640087653408,-0.011310085399443582,-0.01933621387452333,-0.00449,0.026600000000000002,-0.008220000000000002,-0.5409,0.6854,-9.856900000000001,10.92757889058975,24.444338323515836,30.3799991607666,30.369998931884766,30.619998931884766,30.489999771118164,24.66883942213474,24.660719144080584,24.863721449080582,24.758160931945838,24.737860236810437,0.012007766764225656,-0.4000000059604645,0.0,0.0,0.0,0.0,0.0,0.0,,,,,
frame_00142.png,1771859021610725457,1771859021.6107254,42.30087816068411,-83.69812238502145,237.49249267578125,-0.014479679425559555,-0.9996605900599489,-0.010958585430838018,-0.018680282922995346,0.036430000000000004,0.025630000000000003,-0.015270000000000002,-0.5392,0.7399,-9.8976,10.925735723161674,24.440215268569276,30.299999237060547,30.389999389648438,30.599998474121094,30.510000228881836,24.60387874648613,24.676959700188903,24.84748089297226,24.774401488054163,24.725680206925365,0.0116801319145173,-0.4000000059604645,0.0,0.0,0.0,0.0,0.0,0.0,,,,,
frame_00143.png,1771859021660642196,1771859021.6606424,42.300878244509256,-83.6981303383978,237.48350524902344,-0.014122237617607725,-0.9996760613139304,-0.010581395875202102,-0.018340362642837067,0.031880000000000006,-0.0016200000000000001,-0.01755,-0.4803,1.5806,-10.3002,10.926268155024625,24.441406286700786,30.25,30.309999465942383,30.559999465942383,30.619998931884766,24.563278905000004,24.611999024540292,24.815001329540294,24.863721449080582,24.713500177040295,0.011132497334556488,-0.4000000059604645,0.0,0.0,0.0,0.0,0.0,0.0,,,,,
frame_00144.png,1771859021711835999,1771859021.7118359,42.30087831625716,-83.69813828196786,237.4767303466797,-0.01368642840121892,-0.9996851652991829,-0.010798443158665872,-0.0180456527649392,-0.011890000000000001,0.00406,-0.015170000000000001,-0.6477,0.7545000000000001,-10.445300000000001,10.908025865526788,24.400599379631494,30.189998626708984,30.229999542236328,30.479999542236328,30.489999771118164,24.514557236675035,24.54703834889168,24.750040653891677,24.758160931945838,24.642449292851058,0.00991163821252069,-0.5,0.0,0.0,0.0,0.0,0.0,0.0,,,,,
frame_00145.png,1771859021761776776,1771859021.761777,42.30087837368116,-83.69814622279092,237.4725341796875,-0.013483981609227702,-0.9996775769839571,-0.011627380985124355,-0.01810326840306524,-0.03200000000000001,-0.012430000000000002,-0.005420000000000001,-0.5575,1.1082,-9.805,10.904266384823927,24.392189646868037,30.15999984741211,30.149999618530273,30.469999313354492,30.439998626708984,24.49019795129723,24.48207767324307,24.741920375837516,24.717559541675033,24.607938885513214,0.008845013168913247,-0.5,0.0,0.0,0.0,0.0,0.0,0.0,,,,,
frame_00146.png,1771859021812705372,1771859021.8127053,42.3008783876493,-83.6981488710472,237.47169494628906,-0.013363863750609495,-0.9996661466050694,-0.011998234662951149,-0.018575382698606122,-0.028990000000000002,-0.04476,0.0016700000000000003,-0.7383000000000001,0.191,-10.606300000000001,10.907266378083879,24.398900451790954,30.139999389648438,30.079999923706055,30.369998931884766,30.399999618530273,24.473957395188904,24.425237275648612,24.660719144080584,24.685079978243067,24.561248448290293,0.006653906261887378,-0.5,0.0,0.0,0.0,0.0,0.0,0.0,,,,,
frame_00147.png,1771859021871453719,1771859021.8714538,42.30087844114485,-83.69815680911783,237.4698486328125,-0.013350190719539134,-0.999649562522265,-0.012123622848479624,-0.01937891446454413,0.010470000000000002,-0.03572,0.0024200000000000003,-0.9901000000000001,0.43110000000000004,-8.8062,10.894573377909673,24.370506971981264,30.059999465942383,30.079999923706055,30.420000076293945,30.329999923706055,24.408996719540294,24.425237275648612,24.70132053435139,24.628239580648614,24.540948527547226,0.006993763230363567,-0.5,0.0,0.0,0.0,0.0,0.0,0.0,,,,,
frame_00148.png,1771859021922950224,1771859021.92295,42.300878473078434,-83.6981620941914,237.46771240234375,-0.013323363954804435,-0.9996439607000673,-0.011903085833574698,-0.0198180815531788,0.00855,-0.008820000000000001,0.0012300000000000002,-0.9302,0.6224000000000001,-9.209100000000001,10.873796449348058,24.324030229404645,30.10999870300293,30.01999855041504,30.399999618530273,30.479999542236328,24.44959656102642,24.376515607323647,24.685079978243067,24.750040653891677,24.5653082001212,0.009919325393079062,-0.5,0.0,0.0,0.0,0.0,0.0,0.0,,,,,
frame_00149.png,1771859021972705025,1771859021.9727051,42.30087852874437,-83.69817263904801,237.46095275878906,-0.01325972663932573,-0.9996425960415254,-0.012308020502837365,-0.01968177990202862,-0.04512000000000001,0.013930000000000001,-0.0027800000000000004,-0.5045000000000001,0.060000000000000005,-10.5134,10.851756902220597,24.274729084853345,30.029998779296875,30.079999923706055,30.399999618530273,30.399999618530273,24.384635885377808,24.425237275648612,24.685079978243067,24.685079978243067,24.545008279378138,0.01113417964748528,-0.5,0.0,0.0,0.0,0.0,0.0,0.0,,,,,
frame_00150.png,1771859022032094093,1771859022.0320942,42.300878544214136,-83.69817526955428,237.45944213867188,-0.013064191074804332,-0.9996486231839794,-0.013142456996874038,-0.018953440374260378,-0.013660000000000002,0.03463,-0.00787,-0.7283000000000001,1.5097,-9.3957,10.822544847463101,24.209383471084113,29.939998626708984,29.959999084472656,30.329999923706055,30.309999465942383,24.311554931675033,24.32779548778336,24.628239580648614,24.611999024540292,24.469897256161826,0.010760859952872093,-0.5,0.0,0.0,0.0,0.0,0.0,0.0,,,,,
frame_00151.png,1771859022073763728,1771859022.0737638,42.30087861093533,-83.69818577308968,237.45123291015625,-0.012838352944919473,-0.9996687408027903,-0.013060565478800813,-0.01808333444913928,0.0028300000000000005,0.044480000000000006,-0.006920000000000001,-0.6705,0.7384000000000001,-8.3351,10.809506091380328,24.18021655605231,29.85999870300293,29.85999870300293,30.299999237060547,30.26999855041504,24.246594256026423,24.246594256026423,24.60387874648613,24.57951791232365,24.419146292715656,0.00988120747841442,-0.5,0.0,0.0,0.0,0.0,0.0,0.0,,,,,
frame_00152.png,1771859022125065203,1771859022.1250653,42.30087864857417,-83.69819101977721,237.44699096679688,-0.012564071779892994,-0.9996873523941179,-0.012870548167803577,-0.01736924158990959,-0.0011300000000000001,0.022440000000000005,-0.005960000000000001,-0.6973,0.8207,-9.971400000000001,10.803678401634834,24.167180363753026,29.829999923706055,29.81999969482422,30.209999084472656,30.15999984741211,24.222234970648614,24.214114692594453,24.530797792783357,24.49019795129723,24.364336351830914,0.008158005406935738,-0.800000011920929,0.0,0.0,0.0,0.0,0.0,0.0,,,,,
frame_00153.png,1771859022177824917,1771859022.177825,42.300878693216774,-83.6981988827707,237.43955993652344,-0.012324769061506646,-0.9997001862853399,-0.012747502853741006,-0.016886052813837555,-0.011270000000000002,0.020720000000000002,-0.00885,-0.5354,-0.1819,-10.241900000000001,10.80125254735679,24.1617538732843,29.78999900817871,29.78999900817871,30.119998931884766,30.119998931884766,24.18975385843197,24.18975385843197,24.457716839080582,24.457716839080582,24.323735348756273,0.006704044595499136,-0.699999988079071,0.0,0.0,0.0,0.0,0.0,0.0,,,,,
frame_00154.png,1771859022229334708,1771859022.2293348,42.300878715712216,-83.69820412133973,237.43482971191406,-0.011922233100191637,-0.9997091477402191,-0.01282098052842528,-0.016586221411735023,-0.018840000000000003,-0.00144,-0.014970000000000002,-0.20070000000000002,-0.3245,-10.641,10.79421207255981,24.146004753591946,29.670000076293945,29.670000076293945,30.1299991607666,30.15999984741211,24.092313619351387,24.092313619351387,24.465837117134743,24.49019795129723,24.285165576783687,0.005763306377674735,-0.30000001192092896,0.0,0.0,0.0,0.0,0.0,0.0,,,,,
frame_00155.png,1771859022279025188,1771859022.279025,42.30087874929237,-83.69821197205621,237.43043518066406,-0.011576145279773409,-0.9997048480766437,-0.01331606610254661,-0.016700059163641378,-0.032510000000000004,-0.006180000000000001,-0.013920000000000002,-0.5463,0.034800000000000005,-10.5426,10.777134126556145,24.107802413058504,29.739999771118164,29.60999870300293,30.15999984741211,30.15999984741211,24.14915401694584,24.043591951026425,24.49019795129723,24.49019795129723,24.29328546764168,0.007693901393629552,-0.10000000149011612,0.0,0.0,0.0,0.0,0.0,0.0,,,,,
frame_00156.png,1771859022333003985,1771859022.333004,42.300878763031754,-83.6982145862927,237.42987060546875,-0.011325776087023176,-0.9996986135414332,-0.013857723089569778,-0.016803939720665087,-0.028660000000000005,0.007840000000000001,-0.0012600000000000003,-0.7196,0.41300000000000003,-9.9513,10.752179973764918,24.051981470513695,29.59000015258789,29.42999839782715,30.079999923706055,30.09000015258789,24.027352943702773,23.897430043620872,24.425237275648612,24.433357553702773,24.19584445416876,0.005981336042164877,-0.10000000149011612,0.0,0.0,0.0,0.0,0.0,0.0,,,,,
frame_00157.png,1771859022370147035,1771859022.370147,42.300878784807075,-83.6982224165823,237.42823791503906,-0.011205799266687688,-0.9996989465158977,-0.013997820942038284,-0.01674835534234066,-0.0038100000000000005,0.008020000000000001,-0.01208,-0.7722,-0.2813,-9.6401,10.744342847136457,24.034450288473426,29.42999839782715,29.5,30.03999900817871,30.1299991607666,23.897430043620872,23.95427199,24.39275616343197,24.465837117134743,24.177573828546894,0.00595493295480562,-0.10000000149011612,0.0,0.0,0.0,0.0,0.0,0.0,,,,,
frame_00158.png,1771859022421440152,1771859022.4214404,42.300878787281576,-83.69822762665325,237.4265899658203,-0.01112179887805892,-0.9997024161948866,-0.014191382293747109,-0.016431351509055166,0.00506,0.00444,-0.007140000000000001,-0.4605,0.5831000000000001,-9.922,10.731529636730926,24.00578790558888,29.599998474121094,29.42999839782715,29.969999313354492,29.969999313354492,24.03547167297226,23.897430043620872,24.33591576583752,24.33591576583752,24.15118331206704,0.006056681290777875,-0.10000000149011612,0.0,0.0,0.0,0.0,0.0,0.0,,,,,
frame_00159.png,1771859022471165291,1771859022.4711652,42.30087880165433,-83.69823543446155,237.42465209960938,-0.011011191522178665,-0.9997109128289396,-0.01395612648101742,-0.016188606043630656,0.02262,0.011050000000000003,-0.008400000000000001,-0.5529000000000001,0.3688,-9.0382,10.720327410279994,23.98072919715173,29.459999084472656,29.3799991607666,29.869998931884766,29.90999984741211,23.92179087778336,23.856830202134745,24.254714534080584,24.287195646297228,24.08013281507398,0.004145145758705934,-0.10000000149011612,0.0,0.0,0.0,0.0,0.0,0.0,,,,,
frame_00160.png,1771859022522463375,1771859022.5224636,42.30087880711161,-83.69824323366045,237.42147827148438,-0.010821209944806287,-0.9997201317165858,-0.013657959410196482,-0.01600061875842471,0.019180000000000003,0.004520000000000001,-0.014090000000000004,-0.4353,-0.8178000000000001,-9.4196,10.70650867312128,23.94981751125192,29.44999885559082,29.25,29.869998931884766,29.90999984741211,23.913670599729194,23.751269685,24.254714534080584,24.287195646297228,24.051712616276752,0.004254525320577597,-0.10000000149011612,0.0,0.0,0.0,0.0,0.0,0.0,,,,,
frame_00161.png,1771859022573029615,1771859022.5730295,42.300878789135524,-83.6982510218262,237.4173126220703,-0.010905914407052741,-0.9997100264550178,-0.014471931472211614,-0.015858349085496902,-0.012210000000000002,-0.026270000000000005,-0.005920000000000001,0.076,1.2137,-11.1388,10.710235986187776,23.958155286942883,29.369998931884766,29.219999313354492,29.81999969482422,29.85999870300293,23.848709924080584,23.726908850837518,24.214114692594453,24.246594256026423,24.009081930884744,0.0021256496308634898,0.0,0.0,0.0,0.0,0.0,0.0,0.0,,,,,
frame_00162.png,1771859022623365136,1771859022.6233652,42.30087878315433,-83.69825621435552,237.41571044921875,-0.01093610185564714,-0.9996842382737713,-0.01580807850617064,-0.01618425398760367,-0.034940000000000006,-0.030140000000000004,-0.0009000000000000002,0.5624,2.6989,-8.587900000000001,10.701152285972864,23.93783559458414,29.209999084472656,29.219999313354492,29.709999084472656,29.920000076293945,23.718788572783353,23.726908850837518,24.124793182783357,24.29531592435139,23.966451632688905,0.0011954313075506035,0.10000000149011612,0.0,0.0,0.0,0.0,0.0,0.0,,,,,
frame_00163.png,1771859022672617611,1771859022.6726177,42.30087876224753,-83.69826399580249,237.41470336914062,-0.01074611169074513,-0.9996525752599119,-0.017006250602659364,-0.017030481502160577,-0.0594,-0.039650000000000005,-0.00025000000000000006,0.2315,1.2768000000000002,-9.6887,10.693141881945483,23.91991680139913,29.219999313354492,29.229999542236328,29.81999969482422,29.76999855041504,23.726908850837518,23.73502912889168,24.214114692594453,24.17351330232365,23.962391493661826,0.0017757040133272056,0.20000000298023224,0.0,0.0,0.0,0.0,0.0,0.0,,,,,
frame_00164.png,1771859022723756484,1771859022.7237566,42.300878751144204,-83.69826918033606,237.41419982910156,-0.010535915251698613,-0.9996239561322151,-0.017683463184991154,-0.018117283079237503,-0.04479000000000001,-0.03773000000000001,-0.004370000000000001,-0.7183,-0.44780000000000003,-10.088000000000001,10.683243791616887,23.89777536721948,29.40999984741211,29.389999389648438,29.85999870300293,29.8799991607666,23.881191036297228,23.864950480188906,24.246594256026423,24.262834812134745,24.063892646161825,0.0069511607833676135,0.30000001192092896,0.0,0.0,0.0,0.0,0.0,0.0,,,,,
frame_00165.png,1771859022773639776,1771859022.7736397,42.300878722894815,-83.69827694399756,237.4115447998047,-0.010546410817607432,-0.9995891066832479,-0.01890476480379515,-0.018788317826942097,-0.061070000000000006,-0.025060000000000002,0.0018600000000000003,-1.0975000000000001,1.0030000000000001,-8.6509,10.657403293821881,23.83997172408192,29.3799991607666,29.51999855041504,29.869998931884766,29.729999542236328,23.856830202134745,23.97051099732365,24.254714534080584,24.14103373889168,24.055772368107665,0.009052051173691357,1.2000000476837158,0.0,0.0,0.0,0.0,0.0,0.0,,,,,
frame_00166.png,1771859022823140233,1771859022.8231404,42.30087870773931,-83.698282101264,237.40841674804688,-0.010472923388353983,-0.9995971173242002,-0.01883837955769453,-0.018467170018465755,0.022190000000000005,0.04358000000000001,0.0016700000000000003,-0.9612,1.1169,-8.944600000000001,10.62126363181307,23.759129468547933,29.34000015258789,29.099998474121094,29.889999389648438,29.81999969482422,23.824350638702775,23.62946706297226,24.270955090188902,24.214114692594453,23.984721871114598,0.00949497761966834,2.5,0.0,0.0,0.0,0.0,0.0,0.0,,,,,
frame_00167.png,1771859022874401033,1771859022.874401,42.30087870301168,-83.6982898301545,237.40359497070312,-0.010350218911670761,-0.9996343943991723,-0.017739776816424795,-0.017585528743373893,0.048060000000000005,0.044500000000000005,-0.005090000000000001,0.3517,-0.5296000000000001,-10.7554,10.618887550517137,23.753814317253806,29.25,29.25,29.889999389648438,29.719999313354492,23.751269685,23.751269685,24.270955090188902,24.132913460837518,23.976601980256603,0.009379026880789159,3.700000047683716,0.0,44.0,0.0,0.0,0.0,0.0,,,,,
frame_00168.png,1771859022923832094,1771859022.9238322,42.300878706822374,-83.69829498519178,237.40084838867188,-0.010154873991461921,-0.9996518448278134,-0.017272055298526594,-0.017168103341125267,0.016250000000000004,0.0060300000000000015,-0.016370000000000003,-0.0356,0.8564,-9.8794,10.626740501946127,23.77138089842337,29.31999969482422,29.209999084472656,29.849998474121094,29.67999839782715,23.808110082594453,23.718788572783353,24.23847397797226,24.100432348620874,23.966451245492735,0.008206100768941977,5.099999904632568,0.0,580.0,0.0,0.0,0.0,0.0,,,,,
frame_00169.png,1771859022975128165,1771859022.9751282,42.300878710624175,-83.69830271242351,237.39547729492188,-0.009841340766321094,-0.999666316479696,-0.01678353158906054,-0.016991667817991305,0.020610000000000003,0.00427,-0.017380000000000003,-0.45930000000000004,0.4848,-9.0547,10.619588761511732,23.755382884176054,29.299999237060547,29.19999885559082,29.44999885559082,29.709999084472656,23.79186952648613,23.710668294729196,23.913670599729194,24.124793182783357,23.885250400931966,0.005466866915557872,7.300000190734863,0.0,1680.0,0.0,0.0,0.0,0.0,,,,,
frame_00170.png,1771859023026012013,1771859023.026012,42.300878712579646,-83.6983078628117,237.39068603515625,-0.009394021414738551,-0.9996819341042948,-0.016625952350412542,-0.016473029338816884,0.010130000000000002,0.018940000000000002,-0.025410000000000002,-0.6685,-0.8609,-10.0442,10.610324560276409,23.734659421864713,28.43000030517578,28.51999855041504,29.34000015258789,29.299999237060547,23.08542237240555,23.158501777323647,23.824350638702775,23.79186952648613,23.465036078729526,0.011359899391975525,11.0,0.0,2340.0,808.0,0.0,0.0,0.0,,,,,
frame_00171.png,1771859023076091532,1771859023.0760918,42.300878701944264,-83.6983181598141,237.38363647460938,-0.008915894035986915,-0.9996847409053601,-0.01711451376384703,-0.016062971491883453,0.008110000000000001,-0.0043300000000000005,-0.031560000000000005,-0.027200000000000002,-0.47990000000000005,-13.202900000000001,10.615994920325553,23.747343677073044,26.579999923706055,26.3799991607666,28.94999885559082,28.619998931884766,21.58320500564861,21.420802542134744,23.507665989729194,23.239703009080582,22.437844136648284,0.055142990232167344,16.200000762939453,0.0,2940.0,1696.0,0.0,0.0,0.0,,,,,
frame_00172.png,1771859023128250236,1771859023.1282501,42.30087870138116,-83.6983207370152,237.38319396972656,-0.008249543117998415,-0.9996771461800675,-0.017232294747284303,-0.016751013741355042,0.01806,-0.04616000000000001,-0.03982000000000001,-0.366,0.7958000000000001,-10.2619,10.614112491084706,23.743132795807025,24.18000030517578,23.850000381469727,28.209999084472656,28.56999969482422,19.63438318740555,19.366420206756935,22.906779352783357,23.199103167594455,21.276671478635077,0.10388103955715224,21.80000114440918,0.0,3172.0,2388.0,0.0,0.0,0.0,,,,,
frame_00173.png,1771859023178230855,1771859023.1782308,42.30087869974032,-83.69833096898867,237.38653564453125,-0.007382832383805549,-0.9996554432339815,-0.017150149438439545,-0.01844887457011353,0.004110000000000001,-0.07098,-0.03869000000000001,-2.025,1.3386,-9.1392,10.52403524215289,23.541635394581487,23.459999084472656,25.959999084472656,27.559999465942383,28.229999542236328,19.049735557783357,21.079758607783358,22.37897366954029,22.923019908891682,21.35787193599967,0.09276175686097192,25.399999618530273,0.0,3640.0,2016.0,1.0,0.0,0.0,,,,,
frame_00174.png,1771859023228803817,1771859023.2288039,42.30087869741589,-83.69833349238965,237.3868408203125,-0.006426211175020569,-0.9996312834390033,-0.016857687243527698,-0.02029333291562408,0.015310000000000002,-0.068,-0.04322,-3.0133,0.9759000000000001,-8.9055,10.389655630986073,23.24103626717799,24.09000015258789,26.149999618530273,26.209999084472656,27.479999542236328,19.561302233702776,21.234040793243068,21.282760912783356,22.314012993891676,21.09802923340522,0.09220789508423155,26.5,0.0,4104.0,1972.0,1.0,0.0,0.0,,,,,
frame_00175.png,1771859023281297392,1771859023.2812974,42.30087868753303,-83.69834346092784,237.3858642578125,-0.005305876565241341,-0.9996228250787654,-0.015947966577882094,-0.021719061154969292,0.034670000000000006,-0.04086000000000001,-0.05179000000000001,-2.732,0.3442,-8.0793,10.225075629554482,22.872880678775605,25.100000381469727,25.119998931884766,25.59000015258789,27.439998626708984,20.381431731756933,20.397670739080585,20.779316063702773,22.281531881675036,20.95998760405383,0.08363148925516861,26.600000381469727,0.0,4220.0,2252.0,1.0,0.0,0.0,,,,,
frame_00176.png,1771859023329684496,1771859023.3296845,42.30087868685643,-83.69834591546464,237.3849639892578,-0.003774940318299003,-0.999622313485343,-0.01501165269938844,-0.022707498564059785,0.025660000000000002,-0.005270000000000001,-0.057420000000000006,-4.0766,-0.18100000000000002,-8.5671,10.06628543243802,22.517676535237907,23.76999855041504,24.93000030517578,24.51999855041504,26.939998626708984,19.301457982323647,20.24339010240555,19.910464897323646,21.875527271675033,20.332710063431968,0.09703338923030917,26.5,0.0,4220.0,2476.0,1.0,0.0,0.0,,,,,
frame_00177.png,1771859023378464435,1771859023.3784645,42.30087868108609,-83.69834834616549,237.3831024169922,-0.0019840529867486416,-0.9996347670263414,-0.014464144026962961,-0.022741693505651764,0.01572,0.01999,-0.07319000000000002,-4.1591000000000005,-0.4686,-9.9246,9.905057962552425,22.15702035875202,22.40999984741211,23.639999389648438,24.579999923706055,26.420000076293945,18.197126496297226,19.195897465188906,19.959186565648615,21.453283654351388,19.701373545371535,0.11082928902985396,26.100000381469727,0.0,4220.0,2792.0,1.0,0.0,0.0,,,,,
frame_00178.png,1771859023428008378,1771859023.4280086,42.3008786369403,-83.69835794416827,237.37510681152344,-0.00024653753585546245,-0.9996457343569121,-0.014660135434231513,-0.022213181454344227,-0.018260000000000002,0.037070000000000006,-0.06752000000000001,-3.9649,-0.8253,-8.5657,9.75049394073392,21.811269915785335,25.170000076293945,21.35999870300293,24.779998779296875,25.939998626708984,20.43827212935139,17.34451588602642,20.12158748037781,21.063518051675032,19.741973386857662,0.09487281285855226,26.399999618530273,0.0,4220.0,2712.0,1.0,0.0,0.0,,,,,
frame_00179.png,1771859023479603372,1771859023.4796035,42.30087858795687,-83.6983626440125,237.36976623535156,0.0014721342747400776,-0.9996344235154986,-0.01630065583152658,-0.021520705447915938,-0.08343000000000002,0.019960000000000002,-0.062200000000000005,-3.5835000000000004,0.5504,-9.953800000000001,9.602960526089888,21.481246519231515,23.989999771118164,22.260000228881836,24.31999969482422,25.760000228881836,19.48010100194584,18.075325423054164,19.748063982594452,20.917357693054164,19.555212025162156,0.08966120715318072,27.100000381469727,0.0,4220.0,2372.0,1.0,0.0,0.0,,,,,
frame_00180.png,1771859023530885009,1771859023.5308852,42.300878499736775,-83.69836958347167,237.36196899414062,0.003123458506280985,-0.9996163151628159,-0.017756563488446,-0.021027860574827785,-0.03219,0.031920000000000004,-0.0714,-3.7567000000000004,1.2044000000000001,-9.232800000000001,9.433622621416616,21.102447786751686,22.43000030517578,23.28999900817871,24.40999984741211,25.529998779296875,18.213367052405548,18.911693928431973,19.821144936297227,20.73059439537781,19.41920007812814,0.07976551941430728,28.600000381469727,0.0,4228.0,2516.0,1.0,0.0,0.0,,,,,
frame_00181.png,1771859023580938627,1771859023.5809388,42.300878433637685,-83.6983741428099,237.35719299316406,0.004686685679841651,-0.9996219373539047,-0.017486569721737153,-0.02069389324248409,0.006530000000000001,-0.007560000000000001,-0.05569000000000001,-3.774,0.1668,-9.9673,9.286578817481173,20.773519619976337,21.69999885559082,22.719999313354492,24.03999900817871,24.989999771118164,17.620599144729194,18.448848920837516,19.52070084343197,20.29211022194584,18.970564782736133,0.08679101424423223,30.700000762939453,0.0,4228.0,2644.0,1.0,0.0,0.0,,,,,
frame_00182.png,1771859023632013345,1771859023.6320133,42.300878314481146,-83.6983808668326,237.35055541992188,0.0061839361039339735,-0.9996288020708797,-0.01671634708122946,-0.020605357188369654,0.006660000000000001,0.005170000000000001,-0.05827,-3.8720000000000003,-1.5779,-11.4501,9.14029499338486,20.44629148250233,20.979999542236328,22.979999542236328,23.579999923706055,24.350000381469727,17.03595306389168,18.659971503891676,19.14717734564861,19.772424816756935,18.653881682547226,0.08766429851051588,34.5,0.0,4228.0,3004.0,1.0,0.0,0.0,,,,,
frame_00183.png,1771859023681883758,1771859023.6818836,42.3008781844077,-83.6983874577793,237.3455810546875,0.008235596965347702,-0.9996119361132448,-0.01604143255391167,-0.021232629704603205,0.012040000000000002,-0.028510000000000004,-0.07162,-4.2329,-0.5445,-10.3,8.957631725913034,20.0376847129639,19.369998931884766,22.309999465942383,21.53999900817871,24.18000030517578,15.728617724080582,18.11592526454029,17.49067779343197,19.63438318740555,17.742400992364598,0.11454834994555586,40.79999923706055,0.0,3964.0,2848.0,1.0,0.0,0.0,,,,,
frame_00184.png,1771859023732908487,1771859023.7329085,42.30087804643818,-83.698393914989,237.3434600830078,0.010282091749416522,-0.999581806533123,-0.015525878249392725,-0.02212323985811738,0.02704,-0.04377000000000001,-0.08303,-4.0777,-0.912,-10.9993,8.802755087288368,19.691234964958845,21.06999969482422,20.149999618530273,22.709999084472656,23.469999313354492,17.109034017594453,16.361985473243067,18.440728642783355,19.05785583583752,17.742400992364598,0.09896961648480947,49.900001525878906,0.0,2940.0,2892.0,1.0,0.0,0.0,,,,,
frame_00185.png,1771859023782678527,1771859023.7826786,42.30087793855552,-83.6983981344285,237.34194946289062,0.012320548172520485,-0.9995394707533904,-0.01602123735496483,-0.02263560143616111,-0.020930000000000004,-0.016450000000000003,-0.08014,-4.9007000000000005,0.9734,-7.5499,8.62091134546869,19.284461425132733,22.40999984741211,17.600000381469727,22.729999542236328,23.529998779296875,18.197126496297226,14.291362581756935,18.456969198891677,19.106575955377807,17.513008558080912,0.09185907907923997,61.70000076293945,0.0,2564.0,2304.0,1.0,0.0,0.0,,,,,
frame_00186.png,1771859023832279400,1771859023.8322792,42.30087775693199,-83.69840434446408,237.3379364013672,0.014550056992462035,-0.9994992054220428,-0.016718968337499942,-0.022585621531207925,0.0036100000000000004,0.04798000000000001,-0.08843000000000002,-2.8081,0.2818,-10.5164,8.467866358260675,18.942108971447635,20.75,19.809999465942383,22.19999885559082,23.15999984741211,16.849191315,16.08590221454029,18.026603754729194,18.80613341129723,17.44195767389168,0.07919663538084418,75.0999984741211,0.0,1740.0,2248.0,1.0,0.0,0.0,,,,,
frame_00187.png,1771859023883902947,1771859023.883903,42.30087763710272,-83.69840839837423,237.3360137939453,0.01696843081543481,-0.9994748745900544,-0.015961840761434642,-0.02252258995682995,0.04404,0.00799,-0.09280000000000002,-2.9204000000000003,0.4318,-8.9993,8.304445955973012,18.57654733675427,18.079999923706055,22.78999900817871,22.299999237060547,23.049999237060547,14.681126635648614,18.50568931843197,18.107804986486133,18.716811901486132,17.50285821051321,0.057798099225722814,90.0,0.0,544.0,1764.0,1.0,0.0,0.0,,,,,
frame_00188.png,1771859023934660962,1771859023.934661,42.300877439805305,-83.69841439157828,237.33169555664062,0.019636319409660707,-0.9994508847722101,-0.014825402111319818,-0.022193497703737127,0.025370000000000004,0.03778000000000001,-0.10534000000000002,-3.507,-1.7196,-8.912600000000001,8.179365679667535,18.2967502634755,22.06999969482422,22.489999771118164,22.369998931884766,23.100000381469727,17.921043237594454,18.262087171945836,18.164645384080583,18.757413291756937,18.27629727134445,0.0011178483521129417,106.5999984741211,0.0,0.0,396.0,1.0,0.0,0.0,,,,,
frame_00189.png,1771859023984979655,1771859023.9849796,42.30087729918207,-83.69841833205518,237.327880859375,0.022613579503339365,-0.999398224868344,-0.014758340818941878,-0.021771668018805965,0.011320000000000002,0.027450000000000002,-0.12648,-1.5204,0.433,-10.209900000000001,8.074222382184521,18.061551015603843,22.149999618530273,23.06999969482422,22.029998779296875,22.899999618530273,17.986003913243067,18.733052457594454,17.88856212537781,18.595010828243066,18.3006573311146,0.013238415422030286,123.4000015258789,0.0,0.0,68.0,1.0,0.0,0.0,,,,,
frame_00190.png,1771859024035660629,1771859024.0356605,42.30087701030533,-83.69842611253596,237.31781005859375,0.02652016142400848,-0.9993252267885002,-0.01360106949779762,-0.021465857790296018,0.05455000000000001,0.035230000000000004,-0.17475000000000004,-0.6528,0.4556,-8.8732,8.009544876245764,17.9168713154692,21.6299991607666,22.939998626708984,21.90999984741211,22.959999084472656,17.563758747134745,18.627490391675032,17.791121886297226,18.643730947783357,18.156525493222592,0.013375894347495596,139.5,0.0,0.0,0.0,1.0,0.0,0.0,,,,,
frame_00191.png,1771859024097041668,1771859024.0970416,42.30087685169563,-83.69842998217352,237.31182861328125,0.03383098543848384,-0.9991588980693732,-0.009963278876742147,-0.02092113541567509,0.10043000000000002,0.017830000000000002,-0.22633000000000003,1.1774,1.1386,-10.327300000000001,7.988618106657229,17.870059387505822,21.469999313354492,22.81999969482422,21.489999771118164,22.93000030517578,17.433837395837518,18.530050152594452,17.45007795194584,18.61937166240555,18.008334290695842,0.007737797630750857,157.8000030517578,0.0,0.0,0.0,0.0,0.0,0.0,,,,,
frame_00192.png,1771859024136812689,1771859024.1368127,42.3008765703169,-83.69843577254474,237.30340576171875,0.03772624735164898,-0.9990270238674808,-0.008823237008622427,-0.021068610109249722,0.019450000000000002,0.00128,-0.26108000000000003,-2.2292,-3.515,-10.0479,7.966283295469443,17.820097754967417,21.31999969482422,22.670000076293945,21.510000228881836,22.889999389648438,17.31203632259445,18.40824907935139,17.46631850805416,18.5868905501889,17.943373615047225,0.006917799317090965,167.40000915527344,0.0,0.0,0.0,0.0,0.0,0.0,,,,,
frame_00193.png,1771859024189193503,1771859024.1891935,42.300876457724065,-83.69843769873296,237.30111694335938,0.04483584949782454,-0.9987454857173989,-0.008067041373545636,-0.020787597321547027,0.03097,-0.00604,-0.30799000000000004,-0.2154,-3.7669,-11.7509,7.954729283240929,17.794252122852964,21.44999885559082,22.809999465942383,21.469999313354492,22.889999389648438,17.417596839729196,18.52192987454029,17.433837395837518,18.5868905501889,17.990063665073976,0.011004201855133514,180.40000915527344,0.0,0.0,0.0,0.0,0.0,0.0,,,,,
frame_00194.png,1771859024240333743,1771859024.2403338,42.30087593279529,-83.69844535734875,237.2939910888672,0.05257414539107724,-0.9983636290194764,-0.008693880963150161,-0.020747046085110257,-0.0038200000000000005,-0.013330000000000003,-0.32592000000000004,0.3376,-1.7004000000000001,-9.8932,7.926571674940483,17.731265242541365,21.139999389648438,22.549999237060547,21.279998779296875,22.899999618530273,17.165874415188906,18.31080729148613,17.279555210377808,18.595010828243066,17.837811936323977,0.0060089729821976665,196.40000915527344,0.0,0.0,0.0,0.0,0.0,0.0,,,,,
frame_00195.png,1771859024288033150,1771859024.288033,42.30087577775851,-83.69844726610381,237.29299926757812,0.060561424443186906,-0.997898835268447,-0.0094437662904759,-0.021001040868015766,-0.015200000000000002,-0.004220000000000001,-0.32966,0.5347000000000001,-0.9553,-9.5235,7.900956098544404,17.67396473507792,21.15999984741211,22.6299991607666,21.15999984741211,22.6299991607666,17.182114971297228,18.375767967134742,17.182114971297228,18.375767967134742,17.778941469215987,0.0059396256421015035,208.1999969482422,0.0,0.0,0.0,0.0,0.0,0.0,,,,,
frame_00196.png,1771859024338754339,1771859024.3387544,42.30087560810044,-83.698449173983,237.292236328125,0.06866012279221312,-0.9973511396263369,-0.00980305731116081,-0.021917844135752842,-0.025070000000000002,-0.05591000000000001,-0.31963,-0.8283,-1.2805,-9.7965,7.887664054618666,17.64423123033868,20.850000381469727,22.56999969482422,21.03999900817871,22.529998779296875,16.930392546756934,18.327047847594454,17.08467318343197,18.294566735377806,17.659170078290295,0.0008466703794908686,222.6999969482422,0.0,0.0,0.0,0.0,1.0,0.0,,,,,
frame_00197.png,1771859024388883787,1771859024.3888838,42.30087486114051,-83.69845676292702,237.28948974609375,0.07708149483894666,-0.996726397482661,-0.00866507831759551,-0.02280017834096432,0.06029,-0.020950000000000003,-0.35328000000000004,-0.9277000000000001,-1.8693000000000002,-8.566600000000001,7.861972318801738,17.58676035882036,20.75,22.439998626708984,20.899999618530273,22.6299991607666,16.849191315,18.22148578167503,16.970992388243065,18.375767967134742,17.60435936301321,0.0010006961961031566,235.8000030517578,0.0,0.0,4.0,0.0,1.0,0.0,,,,,
frame_00198.png,1771859024440283331,1771859024.4402833,42.30087444167851,-83.69846052960798,237.2860107421875,0.08620458797783997,-0.9959797923605481,-0.006854375753554848,-0.023367493533520092,0.05587000000000001,-0.019610000000000002,-0.37463,-1.5459,-0.8977,-10.316500000000001,7.820535933405935,17.494069650873072,20.420000076293945,22.260000228881836,20.719999313354492,22.59000015258789,16.581228334351387,18.075325423054164,16.824830480837516,18.343288403702772,17.45616816048646,0.0021665336392850875,244.6999969482422,0.0,0.0,24.0,0.0,1.0,0.0,,,,,
frame_00199.png,1771859024490295814,1771859024.490296,42.30087375934553,-83.69846614494048,237.2796173095703,0.09583374646815024,-0.9951094625836436,-0.005198949634414574,-0.023367101597521242,0.025760000000000005,0.01581,-0.3898600000000001,-1.211,-2.5719000000000003,-7.5747,7.791501745269399,17.429121914062932,20.270000457763672,22.239999771118164,20.56999969482422,22.56999969482422,16.459427261108324,18.059084866945838,16.703029407594453,18.327047847594454,17.387147345810767,0.0024083008001853086,250.60000610351562,0.0,0.0,44.0,0.0,1.0,0.0,,,,,
frame_00200.png,1771859024541264983,1771859024.541265,42.300872984570596,-83.69847172070888,237.27197265625,0.10799694914623792,-0.99386199335623,-0.005362300908770538,-0.023371839167041074,-0.023780000000000003,-0.00935,-0.41129000000000004,-0.6381,-3.2743,-10.0695,7.779599118866076,17.40249645295628,20.1299991607666,22.010000228881836,20.35999870300293,22.489999771118164,16.34574491713474,17.87232311805416,16.53250666602642,18.262087171945836,17.25316546829029,0.008581009343669345,260.8000183105469,2.674999952316284,0.0,68.0,0.0,1.0,0.0,,,,,
frame_00201.png,1771859024591384872,1771859024.591385,42.30087211418656,-83.69847725567061,237.26356506347656,0.11819336513328604,-0.9926829348594131,-0.00682105836092874,-0.02375694509420538,-0.07238000000000001,-0.030450000000000005,-0.4123900000000001,-0.5193,-1.6989,-10.014800000000001,7.76697617919818,17.374259694295578,20.049999237060547,22.03999900817871,20.260000228881836,22.44999885559082,16.28078424148613,17.896682403431967,16.451306983054163,18.229606059729196,17.214594921925364,0.009189730968660234,272.1000061035156,7.974999904632568,0.0,92.0,0.0,1.0,0.0,,,,,
frame_00202.png,1771859024641671221,1771859024.6416712,42.300871491758414,-83.69848092297477,237.25808715820312,0.12855158358875762,-0.9913695224381993,-0.007413601381004253,-0.024617043933878584,-0.038400000000000004,-0.049030000000000004,-0.41880000000000006,-0.5879,-2.1192,-9.3254,7.741312352693316,17.31685125423379,19.93000030517578,21.850000381469727,20.189998626708984,22.26999855041504,16.183344002405548,17.742401766756934,16.394465036675037,18.083444152323647,17.100913739540292,0.012469790929266226,283.3999938964844,18.850000381469727,0.0,96.0,0.0,1.0,0.0,,,,,
frame_00203.png,1771859024692024363,1771859024.6920242,42.30087049811643,-83.69848638620779,237.25,0.1392192162044797,-0.989906505811669,-0.006280267977998287,-0.025761945292757202,0.04998000000000001,-0.04497,-0.43682000000000004,-0.9193,-3.1745,-9.7997,7.70769559559152,17.2416525856025,19.689998626708984,21.739999771118164,19.93000030517578,22.299999237060547,15.988460426675033,17.653080256945838,16.183344002405548,18.107804986486133,16.983172418128138,0.014991612096986687,294.0,21.5,0.0,92.0,0.0,1.0,0.0,,,,,
frame_00204.png,1771859024743054923,1771859024.7430549,42.300869789530495,-83.6984899996396,237.2448272705078,0.15004630970428867,-0.9882998333257844,-0.004584354916646643,-0.026991259369456937,0.05686,-0.047020000000000006,-0.4425700000000001,-0.4711,-4.1801,-10.4482,7.6817805857239465,17.183682263429326,19.469999313354492,21.389999389648438,19.850000381469727,22.239999771118164,15.809818955837516,17.368876720188904,16.118383326756934,18.059084866945838,16.839040967432297,0.020056312186969478,304.5,24.625,0.0,112.0,0.0,1.0,0.0,,,,,
frame_00205.png,1771859024800089790,1771859024.8000898,42.30086824446561,-83.69849715084585,237.23550415039062,0.16528728715909197,-0.985802871615087,-0.004138570123474522,-0.029252064138611058,-0.01847,-0.07370000000000002,-0.44314000000000003,-0.8911,-3.7054,-10.455300000000001,7.662532993226762,17.140626553868675,19.719999313354492,21.600000381469727,19.779998779296875,22.149999618530273,16.01282126083752,17.539399461756936,16.061541380377808,17.986003913243067,16.89994150405383,0.014041788324273352,315.6000061035156,27.700000762939453,0.0,112.0,0.0,1.0,0.0,,,,,
frame_00206.png,1771859024851878248,1771859024.8518782,42.300867396457264,-83.69850068014216,237.23179626464844,0.17621703804548922,-0.9838523608693478,-0.005184637706761272,-0.030906424026966427,-0.055900000000000005,-0.06049000000000001,-0.44626000000000005,-1.0254,-3.3206,-9.118500000000001,7.610683810022713,17.02464304199221,19.850000381469727,21.6299991607666,19.68000030517578,22.329999923706055,16.118383326756934,17.563758747134745,15.980341697405548,18.132165820648613,16.94866239798646,0.0044629801528489705,323.70001220703125,30.899999618530273,0.0,120.0,0.0,1.0,0.0,,,,,
frame_00207.png,1771859024900975600,1771859024.9009757,42.300866054124384,-83.69850591084908,237.2238006591797,0.18744586552222559,-0.9817320360859901,-0.005966572321749469,-0.032103844564303256,-0.026000000000000006,-0.040190000000000003,-0.46792000000000006,-1.2472,-3.859,-9.536900000000001,7.573581005127238,16.941646293609324,19.85999870300293,21.649999618530273,19.739999771118164,22.260000228881836,16.12650205602642,17.579999303243067,16.029061816945838,18.075325423054164,16.952722149817372,0.0006537650483369144,331.0,30.80000114440918,0.0,128.0,0.0,1.0,0.0,,,,,
frame_00208.png,1771859024952060371,1771859024.9520605,42.300865116128655,-83.69850935924502,237.21615600585938,0.1989130534058708,-0.9794507057252462,-0.006603630540507327,-0.03265431522409842,-0.02781,-0.013920000000000002,-0.4782300000000001,-0.6372,-3.0746,-8.1945,7.54952426695455,16.88783281372131,20.219999313354492,21.709999084472656,19.959999084472656,22.5,16.41882587083752,17.628719422783355,16.207703287783357,18.27020745,17.131364007851058,0.01442051190439779,338.20001220703125,30.274999618530273,0.0,136.0,0.0,1.0,0.0,,,,,
frame_00209.png,1771859025001387747,1771859025.0013878,42.300865116128655,-83.69850935924502,237.21615600585938,0.20591877522966673,-0.9779924957090325,-0.007180862271629507,-0.032811149961069035,-0.05515000000000001,-0.013570000000000002,-0.47733000000000003,-1.367,-3.0257,-9.1658,7.531827869494362,16.84824703438672,20.520000457763672,21.84000015258789,20.09000015258789,22.579999923706055,16.662429566108322,17.734281488702777,16.313265353702775,18.33516812564861,17.261286133540622,0.024515256590843137,344.3999938964844,25.92500114440918,0.0,128.0,0.0,1.0,0.0,,,,,
frame_00210.png,1771859025054960766,1771859025.0549607,42.300863126953935,-83.69851616911474,237.19737243652344,0.2178794824858707,-0.9754014670665975,-0.007517416603073991,-0.03261897612792515,-0.03674,0.0041800000000000006,-0.49015000000000003,-0.6308,-3.7554000000000003,-8.699300000000001,7.516522014663027,16.814008755480312,21.35999870300293,21.920000076293945,20.149999618530273,22.639999389648438,17.34451588602642,17.799242164351387,16.361985473243067,18.383888245188903,17.472407942202445,0.0391577758937193,349.5,18.975000381469727,0.0,136.0,0.0,1.0,0.0,,,,,
frame_00211.png,1771859025105414908,1771859025.1054149,42.30086207356987,-83.69851953327253,237.18663024902344,0.2301168953704184,-0.9725992667260036,-0.007750253293809852,-0.03219960252863287,-0.027990000000000004,0.009830000000000002,-0.5052700000000001,-0.2165,-3.1746000000000003,-10.1296,7.515823691525321,16.812446648520652,22.18000030517578,21.969999313354492,20.10999870300293,22.799999237060547,18.010364747405546,17.839842005837518,16.32950436102642,18.513809596486134,17.673380177688905,0.05120810475517601,354.6000061035156,19.67500114440918,0.0,136.0,0.0,1.0,0.0,,,,,
