image_filename,timestamp_ns,timestamp_sec,latitude,longitude,altitude,orientation_x,orientation_y,orientation_z,orientation_w,angular_velocity_x,angular_velocity_y,angular_velocity_z,linear_acceleration_x,linear_acceleration_y,linear_acceleration_z,vehicle_speed_mps,vehicle_speed_mph,wheel_speed_fl_rads,wheel_speed_fr_rads,wheel_speed_rl_rads,wheel_speed_rr_rads,wheel_speed_fl_mph,wheel_speed_fr_mph,wheel_speed_rl_mph,wheel_speed_rr_mph,avg_wheel_speed_mph,wheel_slip,steering_angle_deg,throttle_pedal,brake_pedal,brake_torque_actual,abs_active,esc_active,trac_active,marwis_road_condition,marwis_friction,marwis_surface_temp_c,marwis_ice_percent,marwis_water_film_height
pylon_camera_1771858467938696322.png,1771858467938696322,1771858467.9386964,42.30086869375123,-83.69729119084357,238.57861328125,-0.008115731360686884,-0.9998049667971702,-0.014867750741568346,-0.010154469955491473,-0.0038200000000000005,0.007320000000000001,0.03815,1.9216000000000002,0.367,-9.796000000000001,1.8712696792511534,4.185917996304076,5.509999752044678,5.21999979019165,19.69999885559082,19.44999885559082,4.474170600857992,4.238687958033686,15.996580704729196,15.793578399729196,10.125754415837516,1.4190044871347154,-7.5,45.29999923706055,0.0,4.0,0.0,0.0,0.0,,,,,
pylon_camera_1771858467976724771.png,1771858467976724771,1771858467.9767246,42.30086867608759,-83.69729167499203,238.57830810546875,-0.008115731360686884,-0.9998049667971702,-0.014867750741568346,-0.010154469955491473,-0.0038200000000000005,0.007320000000000001,0.03815,1.9216000000000002,0.367,-9.796000000000001,1.8712696792511534,4.185917996304076,5.789999961853027,5.62999963760376,18.350000381469727,18.719999313354492,4.701533352824307,4.571611614330912,14.900369496756936,15.200812040837517,9.843581626187419,1.3515944733935863,-7.900000095367432,45.57500076293945,0.0,4.0,0.0,0.0,0.0,,,,,
pylon_camera_1771858468034552794.png,1771858468034552794,1771858468.0345528,42.30086862046834,-83.69729322220746,238.57852172851562,-0.00970312852341565,-0.9997800982365739,-0.015678346000247177,-0.009989691367651992,-0.03389,0.00039000000000000005,0.032850000000000004,2.8554,0.1115,-10.083400000000001,2.2287779912168566,4.985642639672635,6.150000095367432,6.190000057220459,16.059999465942383,16.260000228881836,4.993856780439234,5.02633711826354,13.040867639540291,13.203270103054162,9.066082910324308,0.8184381764914463,-7.700000286102295,45.29999923706055,0.0,0.0,0.0,0.0,0.0,,,,,
pylon_camera_1771858468087389444.png,1771858468087389444,1771858468.0873895,42.3008685737481,-83.69729489520148,238.57815551757812,-0.009881566714903367,-0.9997747516813821,-0.01588672548446846,-0.010020603428473633,-0.04153000000000001,-0.005940000000000001,0.036070000000000005,3.1175,-0.1272,-10.495800000000001,2.35993470915252,5.279032348291638,6.759999752044678,7.489999771118164,14.149999618530273,14.5,5.489182125857993,6.08194887194584,11.489930153243066,11.77413369,8.708798710261725,0.6496960305765133,-7.5,45.29999923706055,0.0,8.0,0.0,0.0,0.0,,,,,
pylon_camera_1771858468135341275.png,1771858468135341275,1771858468.1353414,42.30086854384462,-83.6972960792541,238.5777130126953,-0.012661651668117002,-0.9997427562106951,-0.01502991185207488,-0.011322796959966129,0.027570000000000004,-0.02959,0.057670000000000006,2.9987000000000004,0.0451,-10.9579,2.5080529431823555,5.610363950722339,7.690000057220459,7.059999942779541,11.949999809265137,12.859999656677246,6.24435094826354,5.73278504673646,9.703510024121533,10.442438290418758,8.030771077385072,0.43141713227911077,-7.5,45.29999923706055,0.0,12.0,0.0,0.0,0.0,,,,,
pylon_camera_1771858468185195298.png,1771858468185195298,1771858468.1851952,42.30086849436169,-83.69729795068288,238.57762145996094,-0.013997528781693802,-0.9997183691574896,-0.015015059915719735,-0.011907960901102658,0.006940000000000001,-0.01623,0.043140000000000005,2.89,0.55,-9.9733,2.6403376840302153,5.90627697891455,8.289999961853027,7.199999809265137,9.130000114440918,12.119999885559082,6.731556402824307,5.846466229121533,7.413644271527081,9.84155165347292,7.458304639236459,0.2627759696781337,-6.800000190734863,45.125,0.0,12.0,0.0,0.0,0.0,,,,,
pylon_camera_1771858468236672799.png,1771858468236672799,1771858468.2366729,42.300868462167095,-83.69729925724303,238.5780487060547,-0.014977551321318672,-0.9996943249842328,-0.015333109622281751,-0.012321740950351483,0.009400000000000002,-0.005130000000000001,0.02237,2.4489,1.6035000000000001,-10.451600000000001,2.769838314829112,6.195962119973834,7.699999809265137,7.62999963760376,7.62999963760376,11.65999984741211,6.252470839121533,6.195630054330912,6.195630054330912,9.468027381297226,7.027939582270146,0.13427736422310876,-4.599999904632568,44.92499923706055,0.0,0.0,0.0,0.0,0.0,,,,,
pylon_camera_1771858468286573780.png,1771858468286573780,1771858468.286574,42.30086844889496,-83.69730131633327,238.57830810546875,-0.015186134271312601,-0.9996921734215032,-0.01543537855960014,-0.012111515776586552,0.017450000000000004,0.016910000000000005,-0.016730000000000002,3.2267,0.8772000000000001,-9.155700000000001,2.8967698689202934,6.479900390582562,8.15999984741211,8.4399995803833,8.119999885559082,9.920000076293945,6.625995111297226,6.853357476067372,6.59351477347292,8.055131524351388,7.031999721297227,0.08520182370658791,-1.2000000476837158,44.29999923706055,0.0,4.0,0.0,0.0,0.0,,,,,
pylon_camera_1771858468351372143.png,1771858468351372143,1771858468.351372,42.300868479273234,-83.69730350438165,238.5786590576172,-0.014826875237175074,-0.9997032311149121,-0.015031104730630082,-0.012152339679359437,0.008960000000000003,-0.008730000000000002,-0.015190000000000002,2.4822,1.4562000000000002,-9.9008,3.072863687609031,6.873811697360146,9.09000015258789,9.9399995803833,8.380000114440918,8.5,7.381163933702774,8.071371306067372,6.804637356527081,6.90207837,7.289812741574307,0.06051970326360904,3.1000001430511475,42.72500228881836,0.0,8.0,0.0,0.0,0.0,,,,,
pylon_camera_1771858468378285876.png,1771858468378285876,1771858468.378286,42.30086850064836,-83.69730427167025,238.57923889160156,-0.014444286708941212,-0.9997138466955833,-0.014288220846606837,-0.012626719749355877,0.05333000000000001,-0.05612,-0.03944,2.6394,-0.034800000000000005,-10.9745,3.165334469662612,7.0806632885670835,9.6899995803833,10.960000038146973,8.569999694824219,8.6899995803833,7.8683690010673715,8.899621082175694,6.958918767594452,7.056359781067372,7.695817157976221,0.08687800059669647,4.0,42.45000076293945,0.0,8.0,0.0,0.0,0.0,,,,,
pylon_camera_1771858468432350507.png,1771858468432350507,1771858468.4323504,42.30086855931615,-83.6973066199571,238.58155822753906,-0.013679769041243905,-0.9997303823287808,-0.013173058130918876,-0.01336028095541363,0.060700000000000004,-0.04877000000000001,-0.028700000000000003,2.4436,0.21960000000000002,-10.045300000000001,3.293326343664474,7.36697343119681,10.479999542236328,12.09999942779541,9.139999389648438,8.960000038146973,8.509856253891678,9.825311097364597,7.421763775188904,7.275602642175694,8.258133442155218,0.1209669098553589,4.900000095367432,42.35000228881836,0.0,8.0,0.0,0.0,0.0,,,,,
pylon_camera_1771858468482344142.png,1771858468482344142,1771858468.4823442,42.30086861633955,-83.69730908104769,238.58163452148438,-0.012995204019339457,-0.999742881292921,-0.012529857918984874,-0.013722195055966368,0.03389,-0.028640000000000006,-0.02542,2.6143,0.8584,-8.3858,3.4308490172843107,7.674603400723966,11.59999942779541,9.429999351501465,9.420000076293945,9.4399995803833,9.419306487364599,7.6572464180132105,7.649126914351387,7.665366696067372,8.097761628949142,0.0551374717532971,6.099999904632568,41.625,0.0,0.0,0.0,0.0,0.0,,,,,
pylon_camera_1771858468542657117.png,1771858468542657117,1771858468.5426571,42.30086865462432,-83.69731165426155,238.5801239013672,-0.012327469297197968,-0.9997676090908454,-0.011621680926952193,-0.013330335552157771,0.04671000000000001,0.020780000000000003,-0.01989,2.5934,-0.21910000000000002,-9.7613,3.568286343271173,7.982042452717018,9.979999542236328,10.219999313354492,9.949999809265137,9.809999465942383,8.103851643891678,8.298733670837517,8.079491584121532,7.965810014540291,8.111971728347754,0.01627769789504301,7.800000190734863,42.22500228881836,0.0,0.0,0.0,0.0,0.0,,,,,
pylon_camera_1771858468590890061.png,1771858468590890061,1771858468.59089,42.30086867237452,-83.69731342536582,238.5792999267578,-0.012119571977016241,-0.9997813136440421,-0.010925749657498606,-0.013079329405953799,0.043370000000000006,0.022900000000000004,-0.00657,2.5724,1.0512000000000001,-9.580400000000001,3.7088234463660563,8.296415520114087,10.550000190734863,10.449999809265137,10.449999809265137,10.399999618530273,8.566697425878468,8.485496194121533,8.485496194121533,8.444895578243065,8.49564634809115,0.024014085058064117,7.700000286102295,41.47500228881836,0.0,0.0,0.0,0.0,0.0,,,,,
pylon_camera_1771858468640286361.png,1771858468640286361,1771858468.6402864,42.30086868258549,-83.69731620974167,238.57861328125,-0.011984676638193748,-0.9997756622814421,-0.010975204042824472,-0.013584459201611783,-0.027920000000000004,-0.03810000000000001,-0.004980000000000001,2.1579,0.1867,-9.5168,3.871115180750559,8.659452392428156,11.210000038146973,11.039999961853027,10.84000015258789,10.710000038146973,9.102623387175694,8.964581757824307,8.802180068702775,8.696618777175694,8.891500997719618,0.026797145451641483,5.599999904632568,40.42499923706055,0.0,0.0,0.0,0.0,0.0,,,,,
pylon_camera_1771858468690871737.png,1771858468690871737,1771858468.6908717,42.30086867998203,-83.69731814468989,238.5775604248047,-0.01180160603686553,-0.9997572039836411,-0.011964188794445295,-0.014251784598908544,-0.026230000000000003,-0.025630000000000003,-0.016620000000000003,1.4474,0.9542,-9.6141,4.012042217008247,8.974697716914429,11.239999771118164,11.300000190734863,11.25,11.399999618530273,9.12698344694584,9.175704340878468,9.135103725,9.256904798243067,9.173674077766844,0.022170814787155223,2.200000047683716,40.04999923706055,0.0,0.0,0.0,0.0,0.0,,,,,
pylon_camera_1771858468742156284.png,1771858468742156284,1771858468.7421563,42.30086867200905,-83.6973211429551,238.57485961914062,-0.01154008974694204,-0.9997510068041248,-0.012529749149076942,-0.01441374722382972,-0.023860000000000006,-4e-05,-0.010410000000000003,1.4009,-0.3295,-9.7939,4.148366142456113,9.279646158705777,11.59000015258789,11.800000190734863,11.609999656677246,11.619999885559082,9.411186983702773,9.581708950878468,9.427426765418758,9.435547043472921,9.46396743586823,0.019862963954668796,-1.399999976158142,40.20000076293945,0.0,0.0,0.0,0.0,0.0,,,,,
pylon_camera_1771858468781752659.png,1771858468781752659,1771858468.7817526,42.300868661255976,-83.69732321358693,238.57289123535156,-0.01144520353750983,-0.9997453181274141,-0.013285361199913491,-0.014205821908238724,-0.03773000000000001,0.0089,-0.0033700000000000006,2.6914000000000002,-0.32380000000000003,-10.529,4.2769241103575295,9.567222619423173,12.09999942779541,11.819999694824219,11.869999885559082,11.880000114440918,9.825311097364597,9.597948732594453,9.638549348472921,9.64666962652708,9.677119701239763,0.011486832301098383,-3.799999952316284,39.97500228881836,0.0,0.0,0.0,0.0,0.0,,,,,
pylon_camera_1771858468832341127.png,1771858468832341127,1771858468.8323412,42.300868644784465,-83.6973253388623,238.5713653564453,-0.011577188773987224,-0.9997265223409681,-0.01450128879882357,-0.014232422537940591,-0.028710000000000003,-0.022160000000000003,-0.005090000000000001,4.0925,-0.5487000000000001,-10.5915,4.45154921736311,9.957848506288235,12.539999961853027,13.269999504089355,12.369999885559082,12.239999771118164,10.182595587824308,10.775361946715984,10.04455395847292,9.93899266694584,10.235376039989763,0.027870230554951084,-5.099999904632568,39.85000228881836,0.0,0.0,0.0,0.0,0.0,,,,,
pylon_camera_1771858468882239533.png,1771858468882239533,1771858468.8822396,42.30086861883437,-83.69732866007587,238.5699462890625,-0.011966677957884309,-0.9996946354001719,-0.015559600216116808,-0.015011109615358656,-0.03194,-0.041650000000000006,0.019000000000000003,2.3325,1.1451,-9.9879,4.6065446275657935,10.304563939187027,12.889999389648438,13.229999542236328,12.969999313354492,12.710000038146973,10.466798350188904,10.742881608891679,10.531759025837516,10.320637217175694,10.515519050523448,0.020472007605696355,-5.300000190734863,39.47500228881836,0.0,0.0,0.0,0.0,0.0,,,,,
pylon_camera_1771858468933093421.png,1771858468933093421,1771858468.9330933,42.30086860808055,-83.69733095135916,238.56883239746094,-0.01248515721665383,-0.9996614767361346,-0.016710327931107386,-0.015550489363391307,-0.013500000000000002,-0.019860000000000003,0.026110000000000005,1.8442,3.4985000000000004,-9.1818,4.75432715548485,10.63514458719028,13.269999504089355,13.34999942779541,13.34000015258789,13.229999542236328,10.775361946715984,10.840322622364598,10.832203118702774,10.742881608891679,10.797692324168759,0.015284017593353853,-5.300000190734863,39.42499923706055,0.0,0.0,0.0,0.0,0.0,,,,,
pylon_camera_1771858468983355715.png,1771858468983355715,1771858468.9833558,42.30086861159866,-83.69733448993914,238.565185546875,-0.01267485148524683,-0.9996581731906884,-0.01679075915385957,-0.015522735581057245,0.0028400000000000005,0.004300000000000001,0.018150000000000003,3.1589,2.4621,-8.1351,4.908355132831056,10.979695930835103,13.869999885559082,13.829999923706055,13.809999465942383,13.710000038146973,11.26256778847292,11.230087450648613,11.213846894540291,11.132646437175694,11.209787142709379,0.020956064113587497,-5.200000286102295,39.42499923706055,0.0,0.0,0.0,0.0,0.0,,,,,
pylon_camera_1771858469034223601.png,1771858469034223601,1771858469.0342236,42.3008686189045,-83.6973369254413,238.5623779296875,-0.012953388684199929,-0.9996585548567047,-0.016355300674947157,-0.01573173745118328,0.0029200000000000007,-0.029010000000000005,0.014350000000000002,3.4056,1.9524000000000001,-11.1315,5.060916839186142,11.320967314249048,14.15999984741211,14.239999771118164,13.969999313354492,14.219999313354492,11.498050431297225,11.56301110694584,11.343768245837518,11.546770550837518,11.487900083729524,0.014745451059678276,-5.099999904632568,39.95000076293945,0.0,0.0,0.0,0.0,0.0,,,,,
pylon_camera_1771858469084913822.png,1771858469084913822,1771858469.084914,42.30086865290973,-83.69734068670539,238.55958557128906,-0.013145928170028853,-0.9996639183318857,-0.01528943485079277,-0.01629319305209706,0.03339,-0.013580000000000002,0.00689,2.1956,-0.0456,-9.0496,5.2441454122605835,11.73083863850219,14.50999927520752,14.50999927520752,14.4399995803833,14.729999542236328,11.782253193661825,11.782253193661825,11.725412796067372,11.96089543889168,11.812703655570676,0.006978615902173764,-4.800000190734863,39.32500076293945,0.0,0.0,0.0,0.0,0.0,,,,,
pylon_camera_1771858469135469017.png,1771858469135469017,1771858469.135469,42.300868685982394,-83.6973432596411,238.5581512451172,-0.013264489332198814,-0.9996657609324708,-0.014351567350622476,-0.016924900491314517,0.022070000000000003,-0.021630000000000003,0.004070000000000001,2.1522,-1.8265,-10.799800000000001,5.386946251726907,12.050275548337988,15.0,14.960000038146973,14.84999942779541,15.089999198913574,12.180138300000001,12.147657962175694,12.058336452364598,12.253218479310437,12.159837798462682,0.009092095005230469,-4.0,39.57500076293945,0.0,0.0,0.0,0.0,0.0,,,,,
pylon_camera_1771858469194538608.png,1771858469194538608,1771858469.1945386,42.30086873596967,-83.69734723696646,238.55783081054688,-0.013459674411525513,-0.999655767549343,-0.013408111731921914,-0.018094366798914373,0.01933,-0.04687,-0.0013400000000000003,0.9669000000000001,-2.0699,-11.614600000000001,5.556227761030578,12.428948127759742,15.339999198913574,15.34999942779541,15.479999542236328,15.529999732971191,12.456220784310437,12.464341062364598,12.56990235389168,12.610502969770145,12.525241792584215,0.007747531314367837,-3.299999952316284,39.650001525878906,0.0,0.0,0.0,0.0,0.0,,,,,
pylon_camera_1771858469245327076.png,1771858469245327076,1771858469.245327,42.300868786542914,-83.69735134115332,238.5600128173828,-0.013574848799756067,-0.999648831512256,-0.012333303858931124,-0.019126598029132774,0.06261000000000001,-0.07075000000000002,-0.006640000000000001,1.1856,-1.7254,-8.3815,5.714154218670603,12.78222013791302,15.929999351501465,15.670000076293945,16.09000015258789,15.90999984741211,12.93530634801321,12.724184539351388,13.065228473702776,12.919066566297225,12.91094648184115,0.010070734390367524,-3.0,39.29999923706055,0.0,0.0,0.0,0.0,0.0,,,,,
pylon_camera_1771858469295167811.png,1771858469295167811,1771858469.2951677,42.30086881998107,-83.69735414848962,238.55914306640625,-0.0137455004259871,-0.9996434430472785,-0.011773542272493205,-0.01963241434412229,0.04587,-0.03576000000000001,-0.011980000000000001,2.6489000000000003,0.48900000000000005,-8.7139,5.855017075395671,13.097321896635593,16.270000457763672,16.19999885559082,16.270000457763672,16.28999900817871,13.211390381108323,13.154548434729195,13.211390381108323,13.22762938843197,13.201239646344453,0.007934274695924943,-2.9000000953674316,39.57500076293945,0.0,0.0,0.0,0.0,0.0,,,,,
pylon_camera_1771858469338133960.png,1771858469338133960,1771858469.338134,42.30086884548997,-83.69735700211417,238.5571746826172,-0.01386602888263605,-0.9996398090797117,-0.011461236737050157,-0.019915456272970675,-0.008310000000000001,-0.01831,0.006980000000000001,2.8153,0.633,-10.5692,5.952165268471807,13.314636575655326,16.69999885559082,16.739999771118164,16.529998779296875,16.75,13.560553044729195,13.593034156945839,13.422511415377807,13.601154435,13.54431326301321,0.017249940398510622,-2.700000047683716,39.29999923706055,0.0,0.0,0.0,0.0,0.0,,,,,
pylon_camera_1771858469387816212.png,1771858469387816212,1771858469.3878162,42.300868882399854,-83.69736138501014,238.5531005859375,-0.013958726500502394,-0.9996295734066847,-0.011406464895699173,-0.02039025462903799,-0.05306000000000001,-0.027470000000000005,0.005180000000000001,2.2661000000000002,-0.6672,-8.4936,6.095982458684674,13.636347001130094,16.920000076293945,16.969999313354492,17.029998779296875,17.18000030517578,13.739196064351386,13.779795905837517,13.828516025377809,13.950318647405549,13.824456660743067,0.013794725200039545,-2.4000000953674316,36.32500076293945,0.0,0.0,0.0,0.0,0.0,,,,,
pylon_camera_1771858469450813761.png,1771858469450813761,1771858469.4508138,42.300868916302804,-83.69736588770604,238.54592895507812,-0.014097369638650437,-0.9996109305195354,-0.01201238695897456,-0.020855558364315335,-0.027480000000000004,-0.027130000000000005,0.014060000000000001,1.4245,1.1011,-9.939400000000001,6.258919570109047,14.000827543159732,17.649999618530273,17.279998779296875,17.299999237060547,17.35999870300293,14.331962423243066,14.031518330377809,14.04775888648613,14.09647900602642,14.126929661533357,0.009006761777823178,-2.200000047683716,35.625,0.0,0.0,0.0,0.0,0.0,,,,,
pylon_camera_1771858469497367938.png,1771858469497367938,1771858469.497368,42.300868935195695,-83.69736894935298,238.54006958007812,-0.014171136233113835,-0.9996087080491172,-0.012160710305942261,-0.020826108976287585,-0.026690000000000002,-0.009940000000000001,0.0037,1.8455000000000001,-0.056900000000000006,-9.3732,6.387124881844096,14.287615133192334,17.85999870300293,17.829999923706055,17.75,17.709999084472656,14.50248361602642,14.478124330648614,14.413163655,14.380682542783356,14.443613536114597,0.010918435404930149,-2.0,35.42499923706055,0.0,0.0,0.0,0.0,0.0,,,,,
pylon_camera_1771858469550802085.png,1771858469550802085,1771858469.5508022,42.300868958785415,-83.69737363126268,238.53143310546875,-0.014226889362058126,-0.9996180283900022,-0.01254775808416052,-0.020098425406630465,-0.011660000000000002,0.01711,0.00267,1.4341000000000002,-0.48600000000000004,-10.219800000000001,6.501883823084799,14.544323999211311,18.190000534057617,18.3799991607666,18.239999771118164,18.229999542236328,14.77044814545971,14.924728782134743,14.811047986945841,14.802927708891678,14.827288155857994,0.01945529793354625,-1.7000000476837158,34.400001525878906,0.0,0.0,0.0,0.0,0.0,,,,,
pylon_camera_1771858469590299246.png,1771858469590299246,1771858469.5902991,42.300868978397425,-83.69737681729228,238.52566528320312,-0.014276828935888664,-0.9996282348897563,-0.012927092429117645,-0.019299078943165352,0.013900000000000003,0.022670000000000003,-0.0012900000000000001,3.0183,1.2738,-10.629900000000001,6.612372245346326,14.791479970505012,18.5,18.3799991607666,18.44999885559082,18.489999771118164,15.02217057,14.924728782134743,14.981569179729195,15.01405029194584,14.985629705952444,0.013125781587412278,-1.5,33.20000076293945,0.0,0.0,0.0,0.0,0.0,,,,,
pylon_camera_1771858469642142745.png,1771858469642142745,1771858469.6421428,42.300869008980214,-83.69738168647757,238.52008056640625,-0.014350169887602404,-0.9996281708355923,-0.013011783948665262,-0.0191907835837418,0.004700000000000001,-0.017120000000000003,-6e-05,2.4383,1.0548,-9.971400000000001,6.739721957732271,15.076353636129626,18.78999900817871,18.869998931884766,18.799999237060547,18.869998931884766,15.25765243843197,15.322613114080582,15.26577271648613,15.322613114080582,15.292162845769816,0.014314416791273406,-1.399999976158142,31.450000762939453,0.0,0.0,0.0,0.0,0.0,,,,,
pylon_camera_1771858469691202300.png,1771858469691202300,1771858469.6912024,42.30086903923616,-83.69738500054055,238.51742553710938,-0.014270679349790538,-0.9996235948483989,-0.01300579202997877,-0.019490143840735254,0.013040000000000001,-0.036050000000000006,0.0013700000000000001,2.3266,1.1675,-10.602400000000001,6.869274267958209,15.366154380966437,18.979999542236328,18.93000030517578,19.100000381469727,19.209999084472656,15.411934623891678,15.37133478240555,15.509376411756936,15.598696372783357,15.472835547709382,0.006942606725016856,-1.5,29.450000762939453,0.0,0.0,0.0,0.0,0.0,,,,,
pylon_camera_1771858469741100306.png,1771858469741100306,1771858469.7411003,42.30086908842854,-83.69739004570607,238.5125274658203,-0.014099406108836532,-0.999631346141375,-0.01226291628672651,-0.01969770146755029,0.029030000000000004,-0.0017300000000000002,-0.015420000000000003,2.7351,-1.0331000000000001,-9.030000000000001,6.977183298606797,15.60754040798549,19.389999389648438,19.5,19.389999389648438,19.439998626708984,15.744858280188904,15.83417979,15.744858280188904,15.785458121675035,15.77733861801321,0.010879242057950751,-1.5,29.225000381469727,0.0,0.0,0.0,0.0,0.0,,,,,
pylon_camera_1771858469790490811.png,1771858469790490811,1771858469.7904909,42.30086912791122,-83.69739345077346,238.50863647460938,-0.013881286195807307,-0.9996410328114792,-0.011352638764456139,-0.019905602383079694,0.04676,0.01794,-0.022030000000000004,1.5833000000000002,-4.0915,-9.5298,7.0686398663514804,15.812123262636282,19.489999771118164,20.03999900817871,19.559999465942383,19.739999771118164,15.82605951194584,16.27266396343197,15.882899909540292,16.029061816945838,16.002671300465984,0.012050755908282274,-1.399999976158142,29.075000762939453,0.0,0.0,0.0,0.0,0.0,,,,,
pylon_camera_1771858469841299275.png,1771858469841299275,1771858469.8412993,42.30086918008229,-83.69739863849192,238.5008087158203,-0.01385054894683746,-0.9996366082906705,-0.011452488089389378,-0.02009114669595474,0.04163000000000001,0.0016500000000000002,-0.00046000000000000007,0.4335,-1.1907,-9.7147,7.167591361381101,16.03347181992784,20.149999618530273,20.029998779296875,20.03999900817871,20.09000015258789,16.361985473243067,16.26454368537781,16.27266396343197,16.313265353702775,16.303114618938906,0.016817492932250024,-1.7000000476837158,29.149999618530273,0.0,0.0,0.0,0.0,0.0,,,,,
pylon_camera_1771858469891207548.png,1771858469891207548,1771858469.8912075,42.30086920912496,-83.69740214248989,238.4935302734375,-0.01394738821943664,-0.9996404396215575,-0.01167867687785543,-0.019699501045916678,-0.004020000000000001,0.024650000000000002,0.00496,1.6883000000000001,2.0529,-9.2089,7.275001425144929,16.273741687963696,20.139999389648438,20.149999618530273,20.369998931884766,20.18000030517578,16.353865195188906,16.361985473243067,16.540626944080582,16.38634630740555,16.410705979979525,0.008416275411150836,-1.8000000715255737,29.075000762939453,0.0,0.0,0.0,0.0,0.0,,,,,
pylon_camera_1771858469942502220.png,1771858469942502220,1771858469.9425023,42.300869245860106,-83.69740747431263,238.48391723632812,-0.014055517593846156,-0.9996326161581716,-0.012119024597700164,-0.019753591590881716,-0.017020000000000004,0.0296,0.0176,3.6474,2.5584000000000002,-9.991200000000001,7.368003093696033,16.481780840412405,20.43000030517578,20.299999237060547,20.5,20.369998931884766,16.589348612405548,16.48378654648613,16.64618901,16.540626944080582,16.564987778243065,0.005048419138461127,-1.899999976158142,29.825000762939453,0.0,0.0,0.0,0.0,0.0,,,,,
pylon_camera_1771858469992747528.png,1771858469992747528,1771858469.9927475,42.30086926909187,-83.69741107297659,238.48068237304688,-0.013948047482937043,-0.9996070873292353,-0.012730127055292488,-0.020713927626899237,-0.0033600000000000006,-0.028480000000000002,-0.005490000000000001,2.8348,3.4042000000000003,-11.1724,7.452576786139155,16.670967115986123,20.719999313354492,20.600000381469727,20.65999984741211,20.75,16.824830480837516,16.727390241756936,16.776110361297228,16.849191315,16.79438059972292,0.007402898876721666,-2.1000001430511475,31.475000381469727,0.0,0.0,0.0,0.0,0.0,,,,,
pylon_camera_1771858470051869019.png,1771858470051869019,1771858470.051869,42.300869302387845,-83.6974165361677,238.47679138183594,-0.01390968285050026,-0.9995845459311199,-0.012555026108258194,-0.02190040132272497,-0.013430000000000003,-0.05158,0.010960000000000001,3.0518,2.6185,-9.835600000000001,7.568297760748838,16.929827992929507,20.959999084472656,20.809999465942383,21.020000457763672,20.969999313354492,17.019712507783357,16.89791143454029,17.068434176108322,17.027832785837518,17.003472726067372,0.0043499988994939315,-1.399999976158142,33.97500228881836,0.0,0.0,0.0,0.0,0.0,,,,,
pylon_camera_1771858470093210478.png,1771858470093210478,1771858470.0932105,42.30086932352078,-83.69742020814624,238.4750518798828,-0.013873825461526657,-0.9995644030252726,-0.0123864610651376,-0.022914989724522963,-0.019420000000000003,-0.026780000000000005,0.007760000000000001,1.0743,-0.4938,-8.725900000000001,7.608167504023767,17.019014216450927,21.209999084472656,21.279998779296875,21.1299991607666,21.170000076293945,17.222714812783355,17.279555210377808,17.157754137134745,17.190235249351385,17.212564852411823,0.011372611450891586,-1.100000023841858,34.47500228881836,0.0,0.0,0.0,0.0,0.0,,,,,
pylon_camera_1771858470144492974.png,1771858470144492974,1771858470.144493,42.300869359950184,-83.6974257853611,238.4717559814453,-0.01383250855147966,-0.9995243878485998,-0.012641409716705708,-0.02449192853634043,0.0009000000000000002,-0.032990000000000005,0.004090000000000001,-0.6134000000000001,-0.4128,-8.6282,7.69542173400166,17.214196693657673,21.34000015258789,21.40999984741211,21.529998779296875,21.619998931884766,17.328276878702773,17.385117276297226,17.48255751537781,17.55563846908058,17.437897534864597,0.012995136815727398,-0.800000011920929,34.47500228881836,0.0,0.0,0.0,0.0,0.0,,,,,
pylon_camera_1771858470194826168.png,1771858470194826168,1771858470.1948261,42.30086938104745,-83.69742953784458,238.46780395507812,-0.013705345894967691,-0.9995084912298919,-0.01329747905871978,-0.024861948916514744,-0.06376000000000001,-0.036140000000000005,0.0015500000000000002,-0.5165000000000001,-1.3225,-10.395800000000001,7.778230026207885,17.39943387482547,21.60999870300293,21.920000076293945,21.68000030517578,21.809999465942383,17.54751819102642,17.799242164351387,17.60436013740555,17.70992065454029,17.665260286830915,0.01527787708024563,-0.699999988079071,34.60000228881836,0.0,0.0,0.0,0.0,0.0,,,,,
pylon_camera_1771858470245553397.png,1771858470245553397,1771858470.2455535,42.30086940800216,-83.69743522093773,238.45858764648438,-0.013609627030846894,-0.9995101568492158,-0.013688830870602792,-0.02463412910441815,-0.040580000000000005,0.0177,0.005090000000000001,0.17320000000000002,-1.1475,-8.336400000000001,7.868925796108544,17.602314870347048,21.85999870300293,22.06999969482422,21.8799991607666,22.10999870300293,17.75052049602642,17.921043237594454,17.766761052134743,17.953522801026423,17.84796189669551,0.013955381900495339,-0.699999988079071,34.775001525878906,0.0,0.0,0.0,0.0,0.0,,,,,
pylon_camera_1771858470295824548.png,1771858470295824548,1771858470.2958245,42.30086943245301,-83.6974390662156,238.4502716064453,-0.013582862492775571,-0.9995015018424454,-0.014175722077624832,-0.024724533661465528,-0.023680000000000003,-0.05457000000000001,0.013130000000000003,0.2917,0.7133,-10.2233,7.977609614867715,17.845434051882187,22.170000076293945,22.260000228881836,22.18000030517578,22.25,18.00224446935139,18.075325423054164,18.010364747405546,18.067205145000003,18.038784946202775,0.01083475435556553,-0.6000000238418579,34.5,0.0,0.0,0.0,0.0,0.0,,,,,
pylon_camera_1771858470346740092.png,1771858470346740092,1771858470.34674,42.300869471488426,-83.69744488238368,238.43756103515625,-0.013565095044787867,-0.9994949502008075,-0.014498583507103625,-0.024811767284867284,0.021800000000000003,-0.011760000000000001,0.006750000000000001,1.8228000000000002,1.671,-9.2265,8.06739443522099,18.046277307923244,22.510000228881836,22.44999885559082,22.420000076293945,22.600000381469727,18.278327728054162,18.229606059729196,18.205246774351387,18.351408681756936,18.26614731097292,0.012183676405833588,-0.6000000238418579,34.29999923706055,0.0,0.0,0.0,0.0,0.0,,,,,
pylon_camera_1771858470396651768.png,1771858470396651768,1771858470.3966517,42.300869490827736,-83.69744880383615,238.42984008789062,-0.0134674494468347,-0.999492891639511,-0.014317654319106237,-0.02505178920324652,-0.011420000000000001,-0.0048000000000000004,0.011630000000000001,2.1171,2.0797,-10.1585,8.142725754796313,18.214788949934064,22.709999084472656,22.6299991607666,22.829999923706055,22.75,18.440728642783355,18.375767967134742,18.538170430648613,18.473209755000003,18.456969198891677,0.013295803186261442,-0.6000000238418579,34.45000076293945,0.0,0.0,0.0,0.0,0.0,,,,,
pylon_camera_1771858470447901998.png,1771858470447901998,1771858470.447902,42.30086953371439,-83.69745474198061,238.41851806640625,-0.013358567336819782,-0.9995192986597036,-0.013517634204786974,-0.024494771912134655,0.016330000000000004,0.07279000000000002,-0.008740000000000001,0.8248000000000001,-1.7012,-9.1155,8.19885664371177,18.340350380584606,23.15999984741211,23.549999237060547,23.09000015258789,23.049999237060547,18.80613341129723,19.122816511486132,18.749293013702776,18.716811901486132,18.848763709493067,0.027721025954153804,-0.5,37.04999923706055,0.0,0.0,0.0,0.0,0.0,,,,,
pylon_camera_1771858470498269440.png,1771858470498269440,1771858470.4982696,42.30086955894446,-83.69745873714176,238.4100799560547,-0.013205200270460682,-0.9995308468765315,-0.01436527328390649,-0.023608213646520146,-0.00792,0.00992,-0.009600000000000001,1.7015,-0.35250000000000004,-12.2155,8.319192563128297,18.609534612164214,23.350000381469727,23.119998931884766,23.26999855041504,23.34000015258789,18.960415596756935,18.77365229908058,18.895453372323647,18.952295318702777,18.895454146715984,0.015364142119109043,-0.4000000059604645,38.0,0.0,0.0,0.0,0.0,0.0,,,,,
pylon_camera_1771858470551345956.png,1771858470551345956,1771858470.5513458,42.30086958481843,-83.6974648057321,238.3992919921875,-0.013139781081402735,-0.9995187071078135,-0.015274329212546331,-0.023588030052643875,-0.013450000000000002,-0.07866000000000001,-0.0006300000000000001,0.1577,0.685,-12.5207,8.422815964350573,18.841333943294373,23.44999885559082,23.469999313354492,23.439998626708984,23.469999313354492,19.041615279729196,19.05785583583752,19.033495001675035,19.05785583583752,19.047705488269816,0.01095312813819591,-0.699999988079071,38.10000228881836,0.0,0.0,0.0,0.0,0.0,,,,,
pylon_camera_1771858470607474381.png,1771858470607474381,1771858470.6074743,42.30086960628025,-83.69747097440874,238.39068603515625,-0.013097615864597179,-0.9995051123814598,-0.01542713895538354,-0.024082901935607963,0.015850000000000003,-0.01964,-0.014250000000000002,0.6358,-2.0595,-8.4684,8.548904527695804,19.12338649418385,23.76999855041504,23.78999900817871,23.829999923706055,23.920000076293945,19.301457982323647,19.31769853843197,19.350179650648617,19.423260604351388,19.348149193938905,0.011753289608167095,-0.9000000357627869,37.79999923706055,0.0,0.0,0.0,0.0,0.0,,,,,
pylon_camera_1771858470650744226.png,1771858470650744226,1771858470.6507444,42.30086962975261,-83.69747513792912,238.38278198242188,-0.013113550363741788,-0.9994976928746566,-0.015512207043571136,-0.024326285530953777,0.033030000000000004,-0.022820000000000003,-0.018890000000000004,2.5719000000000003,-0.0664,-7.9562,8.624186448937753,19.291787635086816,24.010000228881836,24.059999465942383,24.119998931884766,24.09000015258789,19.496341558054162,19.53694139954029,19.58566151908058,19.561302233702776,19.545061677594454,0.013128593746646738,-1.0,38.0,0.0,0.0,0.0,0.0,0.0,,,,,
pylon_camera_1771858470700562234.png,1771858470700562234,1771858470.7005622,42.30086965965014,-83.69748143386164,238.367919921875,-0.01309782230721257,-0.9995039632776895,-0.015617034781280431,-0.024007970918845756,-0.0027300000000000007,0.022160000000000003,-0.00464,1.3787,1.0711,-9.6891,8.705033358147354,19.472637320174144,24.3799991607666,24.299999237060547,24.3799991607666,24.369998931884766,19.796784102134744,19.73182342648613,19.796784102134744,19.78866382408058,19.77851386370905,0.015708018308234577,-1.100000023841858,37.97500228881836,0.0,0.0,0.0,0.0,0.0,,,,,
pylon_camera_1771858470751336648.png,1771858470751336648,1771858470.7513368,42.30086968438969,-83.69748567671571,238.35708618164062,-0.013087881674384516,-0.9995252746517473,-0.015315453924295772,-0.023310288645124622,0.02391,0.042870000000000005,-0.0034500000000000004,1.8119,0.7939,-11.1445,8.802987449307441,19.69175474485379,24.639999389648438,24.6299991607666,24.559999465942383,24.619998931884766,20.007906685188903,19.999786407134746,19.94294600954029,19.99166612908058,19.98557630773613,0.014921045213562275,-1.100000023841858,38.025001525878906,0.0,0.0,0.0,0.0,0.0,,,,,
pylon_camera_1771858470801388514.png,1771858470801388514,1771858470.8013885,42.30086972831501,-83.69749212161192,238.34629821777344,-0.012990396275214311,-0.999533610246794,-0.014800717122074475,-0.02333988783811451,0.012790000000000001,-0.020580000000000005,-0.009210000000000001,1.8136,-1.3105,-12.9364,8.912668490869533,19.937104653965697,24.920000076293945,24.889999389648438,25.029998779296875,25.119998931884766,20.235269824351388,20.210908990188905,20.32458978537781,20.397670739080585,20.29210983474967,0.01780625556947953,-1.100000023841858,38.0,0.0,0.0,0.0,0.0,0.0,,,,,
pylon_camera_1771858470851154118.png,1771858470851154118,1771858470.851154,42.300869754707854,-83.69749646875056,238.34317016601562,-0.013027626222177902,-0.9995251943438654,-0.014650407207274622,-0.023770410083432718,0.019000000000000003,0.03309,-0.02045,1.9239000000000002,-3.2143,-8.695400000000001,9.018394402114621,20.173607173866284,25.119998931884766,24.969999313354492,25.350000381469727,25.529998779296875,20.397670739080585,20.27586966583752,20.584434036756935,20.73059439537781,20.49714220926321,0.016037540168624204,-1.3000000715255737,37.900001525878906,0.0,0.0,0.0,0.0,0.0,,,,,
pylon_camera_1771858470900831727.png,1771858470900831727,1771858470.9008317,42.300869790802,-83.69750305971849,238.3331298828125,-0.013031098219799031,-0.9995128257846447,-0.015072887868922379,-0.02402310601215066,0.027580000000000004,0.00506,-0.0244,2.3797,-0.26980000000000004,-10.6811,9.121443969283698,20.404122872649477,25.3799991607666,25.309999465942383,25.459999084472656,25.599998474121094,20.608793322134744,20.551952924540288,20.673753997783358,20.78743479297226,20.65548375935766,0.01231912237918929,-2.0,37.54999923706055,0.0,0.0,0.0,0.0,0.0,,,,,
pylon_camera_1771858470951060911.png,1771858470951060911,1771858470.951061,42.30086981995158,-83.69750750966244,238.32440185546875,-0.013097485163423406,-0.9995205448194535,-0.01483902906163376,-0.023810493122249102,0.0033300000000000005,-0.011200000000000002,-0.0024900000000000005,2.5628,0.7123,-8.8792,9.21941057097244,20.62326828263109,25.719999313354492,25.60999870300293,25.829999923706055,25.78999900817871,20.884876580837517,20.795555071026424,20.974198090648613,20.94171697843197,20.89908668023613,0.013374136137157941,-2.4000000953674316,37.25,0.0,0.0,0.0,0.0,0.0,,,,,
pylon_camera_1771858471001279035.png,1771858471001279035,1771858471.0012789,42.300869862327,-83.69751423453793,238.31008911132812,-0.013230085425089966,-0.9995298541756983,-0.014376880063272823,-0.023629235510241937,0.00515,0.010770000000000002,0.00918,1.2435,1.0867,-9.1262,9.302625516158116,20.80941512211474,25.959999084472656,25.76999855041504,26.01999855041504,26.059999465942383,21.079758607783358,20.925476422323648,21.12847872732365,21.160959839540293,21.073668399242738,0.012698736392988267,-2.700000047683716,36.97500228881836,0.0,0.0,0.0,0.0,0.0,,,,,
pylon_camera_1771858471052039656.png,1771858471052039656,1771858471.0520396,42.30086988654456,-83.69751876686847,238.2997283935547,-0.013245034749559625,-0.9995342208192284,-0.015106342151365009,-0.022971915300801726,-0.0007300000000000002,0.0028000000000000004,0.0013900000000000002,2.5671,3.7070000000000003,-10.285400000000001,9.416884272283177,21.06500510404113,26.25,26.099998474121094,26.239999771118164,26.309999465942383,21.315242025000003,21.19343940297226,21.30712174694584,21.36396214454029,21.2949413298646,0.010915555191551202,-2.9000000953674316,37.10000228881836,0.0,0.0,0.0,0.0,0.0,,,,,
pylon_camera_1771858471102290805.png,1771858471102290805,1771858471.1022906,42.30086994840966,-83.69752564247777,238.2866668701172,-0.013381104256928344,-0.999543864400049,-0.014370707114056856,-0.022945412746848987,0.04159,-0.027530000000000006,0.009520000000000002,2.9250000000000003,2.3973,-10.1716,9.51988939082272,21.295421373906976,26.510000228881836,26.59000015258789,26.489999771118164,26.469999313354492,21.526364608054163,21.591325283702773,21.510124051945837,21.49388349583752,21.530424359885075,0.011035376189646343,-2.5,37.07500076293945,0.0,0.0,0.0,0.0,0.0,,,,,
pylon_camera_1771858471153269331.png,1771858471153269331,1771858471.1532693,42.30087000073744,-83.69753027426464,238.27996826171875,-0.013492381992584734,-0.9995496140230389,-0.0130917336397529,-0.02339083677139427,0.0483,-0.040650000000000006,0.00487,1.9964000000000002,0.5587,-10.4588,9.612219820937732,21.501959006248452,26.84000015258789,26.76999855041504,26.799999237060547,26.779998779296875,21.794327588702778,21.737485642323648,21.76184647648613,21.74560592037781,21.759816406972593,0.01199227478060061,-2.200000047683716,37.125,0.0,0.0,0.0,0.0,0.0,,,,,
pylon_camera_1771858471203861782.png,1771858471203861782,1771858471.2038617,42.30087007187666,-83.69753729129623,238.27084350585938,-0.01361622942624302,-0.9995547359779886,-0.012125295569158655,-0.023620018788012558,0.021560000000000003,0.01932,0.008810000000000002,1.8758000000000001,1.5635000000000001,-7.9196,9.713008084305292,21.72741630410588,26.979999542236328,27.059999465942383,27.260000228881836,27.229999542236328,21.908008383891676,21.972969059540294,22.13537152305416,22.111010688891678,22.031839913844454,0.014011035894822273,-2.1000001430511475,37.45000076293945,0.0,0.0,0.0,0.0,0.0,,,,,
pylon_camera_1771858471254381593.png,1771858471254381593,1771858471.2543817,42.300870117102285,-83.69754201034287,238.2638397216797,-0.013653056134535213,-0.9995720367359926,-0.011492836250593507,-0.02317870032085381,0.013310000000000002,0.06606000000000001,0.0006500000000000001,2.3873,-0.28150000000000003,-9.648900000000001,9.788501728284796,21.896291056069394,27.809999465942383,27.649999618530273,27.639999389648438,27.389999389648438,22.581975974540292,22.452054623243065,22.443934345188907,22.240932040188905,22.429724245790293,0.02436180576678248,-2.0,37.85000228881836,0.0,0.0,0.0,0.0,0.0,,,,,
pylon_camera_1771858471304608233.png,1771858471304608233,1771858471.3046083,42.300870177138805,-83.69754914558241,238.2519989013672,-0.013596635569787019,-0.9995815000575206,-0.011688887551883177,-0.022700796279842297,-0.044160000000000005,0.07132000000000001,-0.01276,0.8222,-3.3077,-10.440100000000001,9.853206258671012,22.041031208271534,27.93000030517578,28.099998474121094,27.60999870300293,27.420000076293945,22.67941776240555,22.81745784297226,22.41957351102642,22.26529287435139,22.545435497688906,0.022884786317442375,-2.1000001430511475,38.22500228881836,0.0,0.0,0.0,0.0,0.0,,,,,
pylon_camera_1771858471355442283.png,1771858471355442283,1771858471.3554423,42.300870217096374,-83.69755394442556,238.24400329589844,-0.013825438632937337,-0.9995949511016526,-0.012302638746192049,-0.02162026962302693,0.08276000000000001,0.08853000000000001,-0.028000000000000004,1.6778000000000002,-3.133,-8.688500000000001,9.964063648604533,22.289012538109425,27.989999771118164,27.94999885559082,28.049999237060547,28.56999969482422,22.72813788194584,22.695656769729197,22.77685800148613,23.199103167594455,22.849938955188907,0.025166050587499943,-2.1000001430511475,41.275001525878906,0.0,0.0,0.0,0.0,0.0,,,,,
pylon_camera_1771858471405828526.png,1771858471405828526,1771858471.4058287,42.30087028259528,-83.6975612055191,238.23065185546875,-0.013874089794716327,-0.9996157417134813,-0.012203215129783378,-0.020663012642663733,0.07132000000000001,0.05401,-0.019100000000000002,1.8371000000000002,0.4576,-12.2757,10.074797466064368,22.536717443738027,28.170000076293945,28.209999084472656,28.309999465942383,28.309999465942383,22.874299789351387,22.906779352783357,22.987980584540292,22.987980584540292,22.939260077803834,0.017861635576287335,-2.0,40.875,0.0,0.0,0.0,0.0,0.0,,,,,
pylon_camera_1771858471465876901.png,1771858471465876901,1771858471.465877,42.30087035594101,-83.69756855687125,238.2166748046875,-0.01378826152167928,-0.999643454879917,-0.01153422656974272,-0.019743570532992607,0.03705000000000001,0.00248,-0.015260000000000003,1.4324000000000001,0.4015,-10.244100000000001,10.182294256934039,22.77718131510603,28.549999237060547,28.40999984741211,28.489999771118164,28.469999313354492,23.18286261148613,23.069181816297224,23.13414249194584,23.117901935837516,23.12602221389168,0.015315367338903128,-2.0,41.0,0.0,0.0,0.0,0.0,0.0,,,,,
pylon_camera_1771858471515927410.png,1771858471515927410,1771858471.5159273,42.30087041138061,-83.69757349765482,238.2077178955078,-0.013821819731302698,-0.9996719535592191,-0.010788514323017855,-0.018669507896878514,0.03225000000000001,0.03273,-0.004900000000000001,2.2822,0.9539000000000001,-9.0387,10.275645651812397,22.986002784365226,28.75,28.849998474121094,28.799999237060547,28.689998626708984,23.345265075,23.42646475797226,23.38586491648613,23.296543406675035,23.363534539033353,0.016424419600476102,-1.899999976158142,41.04999923706055,0.0,0.0,0.0,0.0,0.0,,,,,
pylon_camera_1771858471569998502.png,1771858471569998502,1771858471.5699985,42.30087049066024,-83.6975809922365,238.19664001464844,-0.013875365882757673,-0.9996800496141729,-0.010876190492643403,-0.01813783629300498,-0.01233,0.057030000000000004,0.005860000000000001,1.7006000000000001,1.1237000000000001,-7.258100000000001,10.373037610768503,23.203862753032496,29.01999855041504,28.989999771118164,28.510000228881836,28.6299991607666,23.56450638732365,23.54014710194584,23.15038304805416,23.247823287134747,23.375714956114603,0.0074061894310958115,-1.899999976158142,40.92499923706055,0.0,0.0,0.0,0.0,0.0,,,,,
pylon_camera_1771858471616578812.png,1771858471616578812,1771858471.6165788,42.300870517883,-83.69758606218194,238.19284057617188,-0.014050179163227983,-0.9996322379422549,-0.012617674527822418,-0.019462158707357825,-0.042980000000000004,-0.053090000000000005,0.028820000000000002,0.0825,3.5823,-12.571800000000001,10.496008960740099,23.47894228463796,29.28999900817871,29.15999984741211,29.279998779296875,29.229999542236328,23.78374924843197,23.678188731297226,23.77562897037781,23.73502912889168,23.743149019749673,0.01125292323260155,-2.1000001430511475,41.04999923706055,0.0,0.0,0.0,0.0,0.0,,,,,
pylon_camera_1771858471670375453.png,1771858471670375453,1771858471.6703753,42.300870566269815,-83.69759373632503,238.18649291992188,-0.014282201814863948,-0.9995986171729168,-0.012949447316843127,-0.020758975685247174,-0.047380000000000005,-0.10412,0.03764,0.7832,1.5731000000000002,-6.9694,10.618035463868,23.751908250544886,29.559999465942383,29.459999084472656,29.739999771118164,29.69999885559082,24.002992109540294,23.92179087778336,24.14915401694584,24.116672904729196,24.047652477249674,0.012451388056283975,-2.1000001430511475,40.775001525878906,0.0,0.0,0.0,0.0,0.0,,,,,
pylon_camera_1771858471711745256.png,1771858471711745256,1771858471.7117453,42.300870600083876,-83.69759889435264,238.18238830566406,-0.014433741574506165,-0.9995780231133461,-0.012933408422984053,-0.02163723086579693,-0.005450000000000001,-0.05689000000000001,0.018890000000000004,0.5704,0.3866,-8.756300000000001,10.674001640490284,23.87710122967834,29.67999839782715,29.69999885559082,29.81999969482422,29.78999900817871,24.100432348620874,24.116672904729196,24.214114692594453,24.18975385843197,24.155243451094123,0.01164891075932048,-2.0,40.42499923706055,0.0,0.0,0.0,0.0,0.0,,,,,
pylon_camera_1771858471760922475.png,1771858471760922475,1771858471.7609224,42.30087066764415,-83.697606698451,238.17416381835938,-0.014536014574285494,-0.9995686396648436,-0.012654330497186405,-0.02216092955041301,0.031060000000000004,-0.022310000000000003,-0.003940000000000001,1.3386,0.24330000000000002,-11.2817,10.778651354799726,24.1111963616057,30.01999855041504,30.010000228881836,30.01999855041504,29.889999389648438,24.376515607323647,24.368396878054163,24.376515607323647,24.270955090188902,24.34809579572259,0.00982528741270277,-1.899999976158142,40.525001525878906,0.0,0.0,0.0,0.0,0.0,,,,,
pylon_camera_1771858471812288294.png,1771858471812288294,1771858471.8122883,42.300870725861124,-83.69761194446671,238.17001342773438,-0.014500540233752413,-0.9995707193313167,-0.012006640479165217,-0.022448874644567754,0.012440000000000003,0.009240000000000002,-0.01007,2.0642,-0.5415,-8.525400000000001,10.866324837731307,24.30731668251467,30.349998474121094,30.329999923706055,30.459999084472656,30.42999839782715,24.64447858797226,24.628239580648614,24.73380009778336,24.709439263620872,24.678989382506273,0.015290568878750953,-1.7000000476837158,40.10000228881836,0.0,0.0,0.0,0.0,0.0,,,,,
pylon_camera_1771858471860482081.png,1771858471860482081,1771858471.860482,42.30087081467046,-83.69761988190086,238.16001892089844,-0.014442187478082624,-0.9995760539957941,-0.011810547951061023,-0.022352772896017586,-0.017140000000000002,0.04134000000000001,0.0022700000000000003,1.0961,-0.17400000000000002,-7.411700000000001,10.947516073582515,24.488936605639672,30.67999839782715,30.6299991607666,30.92999839782715,30.779998779296875,24.912441568620874,24.871841727134743,25.115443873620872,24.993642800377806,24.973342492438576,0.019780601117949208,-1.5,40.0,0.0,0.0,0.0,0.0,0.0,,,,,
pylon_camera_1771858471911410827.png,1771858471911410827,1771858471.911411,42.300870863464425,-83.69762522470369,238.1508331298828,-0.014548704376723287,-0.9995774890131106,-0.012084826974744722,-0.02207114895499207,-0.014750000000000001,0.023310000000000004,0.007190000000000001,0.038200000000000005,0.1333,-10.5372,11.049427574972762,24.716906519559572,30.889999389648438,30.92999839782715,31.03999900817871,30.90999984741211,25.082964310188903,25.115443873620872,25.204765383431972,25.099204866297228,25.125594608384745,0.016534758850253364,-1.5,39.775001525878906,0.0,0.0,0.0,0.0,0.0,,,,,
pylon_camera_1771858471963131141.png,1771858471963131141,1771858471.9631312,42.30087094459816,-83.69763330531288,238.13531494140625,-0.014528702144624928,-0.9995958930544315,-0.011971187648338774,-0.021299250432695187,0.03615000000000001,0.021700000000000004,-0.00578,1.0768,0.35400000000000004,-9.460600000000001,11.153603170026633,24.94994107515938,31.189998626708984,31.28999900817871,31.279998779296875,31.15999984741211,25.326566456675035,25.40776768843197,25.399647410377806,25.302207171297226,25.35904718169551,0.01639707706337801,-1.5,39.875,0.0,0.0,0.0,0.0,0.0,,,,,
pylon_camera_1771858472011688657.png,1771858472011688657,1771858472.0116887,42.300871006718815,-83.6976387303281,238.12448120117188,-0.014479169151578153,-0.9996343618512058,-0.01084721882744155,-0.020095624168514285,0.07196000000000001,0.04079,-0.013680000000000001,2.2655000000000003,-0.2695,-10.1715,11.247805228689382,25.160665428264426,31.469999313354492,31.439998626708984,31.399999618530273,31.549999237060547,25.553929595837516,25.529568761675037,25.497089198243067,25.61889027148613,25.549869456810434,0.015468749411881305,-1.3000000715255737,40.20000076293945,0.0,0.0,0.0,0.0,0.0,,,,,
pylon_camera_1771858472062195428.png,1771858472062195428,1771858472.0621955,42.30087110890034,-83.69764693564336,238.11068725585938,-0.014343610027955478,-0.9996768109423086,-0.009338112858005457,-0.01879718499756097,0.04911000000000001,0.05765000000000001,-0.014020000000000003,2.4419,-1.6625,-10.8599,11.32844203273725,25.341045120711264,31.739999771118164,31.899999618530273,31.849998474121094,31.84000015258789,25.77317245694584,25.903093808243067,25.862492417972263,25.854373688702776,25.84828309296599,0.020016458273070928,-1.2000000476837158,40.20000076293945,0.0,0.0,0.0,0.0,0.0,,,,,
pylon_camera_1771858472121015976.png,1771858472121015976,1771858472.121016,42.300871197639644,-83.69765523709493,238.10093688964844,-0.014284411023741617,-0.99969355481984,-0.00918091317017952,-0.01801285337579426,0.012630000000000002,-0.00792,-0.0038100000000000005,2.6756,-0.5453,-10.578700000000001,11.47438804556302,25.667517594641744,31.920000076293945,32.06999969482422,32.189998626708984,32.130001068115234,25.919334364351386,26.041135437594452,26.138575676675035,26.08985710591942,26.04722564613507,0.014793329744228721,-1.2000000476837158,38.85000228881836,0.0,0.0,0.0,0.0,0.0,,,,,
pylon_camera_1771858472163247400.png,1771858472163247400,1771858472.1632473,42.300871257923774,-83.6976608346163,238.09613037109375,-0.014249836221893741,-0.9996831170715468,-0.009081032176517314,-0.018658576161495063,0.01012,-0.061320000000000006,0.0013400000000000003,2.2603,0.8299000000000001,-9.5152,11.56931494783615,25.879863379412598,32.029998779296875,32.16999816894531,32.27000045776367,32.38999938964844,26.00865432537781,26.12233512056671,26.203537901108323,26.300978140188906,26.158876371810436,0.010781084440337228,-1.2000000476837158,35.650001525878906,0.0,0.0,0.0,0.0,0.0,,,,,
pylon_camera_1771858472213026893.png,1771858472213026893,1771858472.2130268,42.30087131474043,-83.69766647372961,238.0914764404297,-0.014301714717159075,-0.9996564711059266,-0.008747135342270933,-0.020146671077341295,0.027500000000000004,-0.03725,-0.0010600000000000002,1.9243000000000001,0.5961000000000001,-9.0525,11.66091876131375,26.084775613933182,32.39999771118164,32.27000045776367,32.29999923706055,32.459999084472656,26.30909686945839,26.203537901108323,26.227897186486132,26.357818537783356,26.27458762370905,0.007276735387153533,-1.2000000476837158,35.10000228881836,0.0,0.0,0.0,0.0,0.0,,,,,
pylon_camera_1771858472264003039.png,1771858472264003039,1771858472.264003,42.30087140619923,-83.69767498876962,238.08444213867188,-0.014343667769603108,-0.9996341125300262,-0.0073757558514029615,-0.021714015907770615,0.045270000000000005,-0.04045000000000001,0.00436,1.1618000000000002,1.3966,-8.759400000000001,11.748854954544582,26.28148360201896,32.7599983215332,32.86000061035156,32.790000915527344,32.880001068115234,26.601420684269485,26.682623464811094,26.625783067216645,26.69886402091942,26.65217280930416,0.014104576929467037,-1.2000000476837158,35.275001525878906,0.0,0.0,0.0,0.0,0.0,,,,,
pylon_camera_1771858472314427867.png,1771858472314427867,1771858472.3144279,42.30087146640092,-83.69768069757676,238.080078125,-0.014263915661920423,-0.999618314123155,-0.006623210072110759,-0.022713429241563426,0.0016300000000000002,-0.012850000000000002,0.0043300000000000005,0.5032,-0.2847,-10.719800000000001,11.818926051638414,26.438228441952035,32.880001068115234,32.97999954223633,33.09000015258789,32.97999954223633,26.69886402091942,26.78006370389168,26.869385213702774,26.78006370389168,26.78209416060139,0.01300638276139978,-1.0,35.10000228881836,0.0,0.0,0.0,0.0,0.0,,,,,
pylon_camera_1771858472365640143.png,1771858472365640143,1771858472.3656402,42.300871549039044,-83.69768931981352,238.07420349121094,-0.014161456000293338,-0.9996147054215623,-0.006786363645336026,-0.022887532356901195,-0.0040100000000000005,0.025060000000000002,-0.0039900000000000005,0.0916,-0.6097,-6.726500000000001,11.88583576613276,26.587901458693015,33.349998474121094,33.32999801635742,33.43000030517578,33.689998626708984,27.08050624797226,27.064265691863937,27.14546847240555,27.356589506675036,27.161707479729195,0.021581470877934675,-1.0,35.0,0.0,0.0,0.0,0.0,0.0,,,,,
pylon_camera_1771858472415287883.png,1771858472415287883,1771858472.4152877,42.300871605468984,-83.69769508996792,238.06370544433594,-0.01394891039068663,-0.9996624081431382,-0.006354009700866517,-0.020979137377298524,0.0362,0.07676000000000002,-0.012630000000000002,0.9378000000000001,0.1062,-6.3742,11.946015135068015,26.722519096239047,33.66999816894531,33.72999954223633,33.77000045776367,33.7599983215332,27.340348950566714,27.38907061889168,27.421551731108323,27.41342990426949,27.39110030120905,0.025019392915846022,-1.100000023841858,34.95000076293945,0.0,0.0,0.0,0.0,0.0,,,,,
pylon_camera_1771858472467105887.png,1771858472467105887,1771858472.4671059,42.30087169876443,-83.69770380506407,238.04107666015625,-0.013883662281857279,-0.999705922965711,-0.004958194988007673,-0.019254293323314114,0.08344,0.05078000000000001,-0.00025000000000000006,1.2724,0.4791,-12.335600000000001,12.052053698979936,26.95972100139618,33.869998931884766,33.93000030517578,33.79999923706055,33.77000045776367,27.502751414080585,27.55147308240555,27.44591101648613,27.421551731108323,27.480421811020147,0.019314028123547784,-1.3000000715255737,33.72500228881836,0.0,0.0,0.0,0.0,0.0,,,,,
pylon_camera_1771858472516354203.png,1771858472516354203,1771858472.5163543,42.30087176734354,-83.6977096835357,238.03001403808594,-0.013835926750548566,-0.9997069699481669,-0.00296962145691179,-0.019639824755099313,0.11515000000000002,-0.09434000000000001,-0.00408,1.8092000000000001,1.3951,-13.947600000000001,12.194036354238529,27.277327682250338,34.2599983215332,35.46999740600586,33.91999816894531,33.869998931884766,27.81943451426949,28.801964927052843,27.543351255566712,27.502751414080585,27.916875527742405,0.02344613273492435,-1.899999976158142,34.025001525878906,0.0,0.0,0.0,0.0,0.0,,,,,
pylon_camera_1771858472567658847.png,1771858472567658847,1771858472.5676587,42.30087186516689,-83.69771860435742,238.02113342285156,-0.013666703457132778,-0.9996085799987746,-0.0015739239065479717,-0.024360434581197108,0.008910000000000001,-0.26688,0.006370000000000001,3.1913,-0.30310000000000004,-11.9442,12.37350699514681,27.678792737723708,34.05999755859375,34.040000915527344,33.89999771118164,33.79999923706055,27.657032050755618,27.640794592216643,27.52711069945839,27.44591101648613,27.56771208972919,0.004013204226321734,-3.1000001430511475,33.54999923706055,0.0,0.0,0.0,0.0,0.0,,,,,
pylon_camera_1771858472626029371.png,1771858472626029371,1771858472.6260293,42.300871934289994,-83.69772762227961,238.01654052734375,-0.013606285962642907,-0.9993994740150081,-0.0025732806855025304,-0.03176379302510546,-0.09695000000000001,-0.263,0.011230000000000002,1.4482000000000002,-0.7211000000000001,-9.4823,12.440973114854815,27.82971039954333,34.06999969482422,34.189998626708984,34.21999740600586,34.29999923706055,27.665153877594452,27.762594116675032,27.78695340205284,27.851915626486132,27.766654255702115,0.002265785124456435,-4.200000286102295,35.025001525878906,0.0,0.0,0.0,0.0,0.0,,,,,
pylon_camera_1771858472679746429.png,1771858472679746429,1771858472.6797464,42.30087198244479,-83.6977366700577,238.00733947753906,-0.013931581466539557,-0.9992365352795689,-0.003992208560822889,-0.03628112279314546,-0.06664,-0.12124000000000001,0.027200000000000002,-0.39840000000000003,-0.1894,-6.3045,12.433569628238223,27.813149244191212,34.47999954223633,34.2599983215332,34.54999923706055,34.630001068115234,27.998077533891678,27.81943451426949,28.054917931486134,28.119880155919418,27.998077533891678,0.006648951834862352,-4.700000286102295,37.95000076293945,0.0,0.0,0.0,0.0,0.0,,,,,
pylon_camera_1771858472726905589.png,1771858472726905589,1771858472.7269056,42.30087200789672,-83.69774269886331,237.99473571777344,-0.014544260867703442,-0.999217026285213,-0.005631173268354984,-0.0363605382959286,-0.07207000000000001,0.08431000000000001,0.01796,-0.8926000000000001,0.5678000000000001,-4.6977,12.411304480104254,27.763343443724413,34.779998779296875,34.43000030517578,34.91999816894531,35.22999954223633,28.241679680377807,27.957477692405547,28.355360475566712,28.607084448891676,28.290400574310432,0.018983921430585287,-3.700000047683716,37.82500076293945,0.0,0.0,0.0,0.0,0.0,,,,,
pylon_camera_1771858472771887127.png,1771858472771887127,1771858472.771887,42.300872037393354,-83.69774871314472,237.97183227539062,-0.01452707968358008,-0.999303887024491,-0.005676361586039014,-0.033889294072835155,0.057940000000000005,0.19449000000000002,0.00534,-0.3929,1.0567,-3.8067,12.429707793465731,27.804510551515236,35.369998931884766,35.31999969482422,36.05999755859375,37.46999740600586,28.72076524408058,28.68016540259445,29.281050490755614,30.425983367052844,29.276991126120876,0.05295833465140411,-2.5,37.22500228881836,0.0,0.0,0.0,0.0,0.0,,,,,
pylon_camera_1771858472821782497.png,1771858472821782497,1771858472.8217826,42.30087209027942,-83.69775773279324,237.91688537597656,-0.015808551734901255,-0.9995392400058456,-0.004183644296200401,-0.02557136095292235,0.047880000000000006,0.27432000000000006,0.024980000000000006,-0.4283,-1.7512,-1.921,12.44596440198381,27.840875609373665,35.709999084472656,35.599998474121094,35.779998779296875,35.7599983215332,28.996848502783358,28.90752699297226,29.053688900377807,29.037448344269485,28.99887818510073,0.04159361192423055,-2.299999952316284,34.0,0.0,0.0,0.0,0.0,0.0,,,,,
pylon_camera_1771858472871246966.png,1771858472871246966,1771858472.8712468,42.30087212916052,-83.69776382857447,237.88723754882812,-0.016095184325113476,-0.9996491941310979,-0.005875819363617784,-0.020196743831445402,0.07692,0.20342000000000005,0.034600000000000006,2.0011,0.5671,-26.3508,12.605368724059499,28.197453513597658,35.98999786376953,35.90999984741211,35.0099983215332,35.07999801635742,29.224210093161165,29.159250966297225,28.428441429269487,28.485281826863936,28.824296078897955,0.022230467194422888,-2.4000000953674316,28.30000114440918,0.0,0.0,0.0,0.0,0.0,,,,,
pylon_camera_1771858472921254493.png,1771858472921254493,1771858472.9212544,42.30087216108513,-83.69777308623846,237.8596649169922,-0.016077501594954025,-0.9996841456040833,-0.008101663039998817,-0.017535279475517015,-0.10915000000000001,-0.06292,0.010210000000000002,3.4198,3.3742,-27.465300000000003,12.812451757229471,28.660685833816895,35.7599983215332,35.71999740600586,35.29999923706055,34.709999084472656,29.037448344269485,29.00496723205284,28.663924846486132,28.184839282783358,28.722794926397956,0.0021670483721564584,-2.1000001430511475,27.850000381469727,0.0,0.0,0.0,0.0,0.0,,,,,
pylon_camera_1771858472971480236.png,1771858472971480236,1771858472.9714804,42.30087218220225,-83.69777932233697,237.85609436035156,-0.0164117180226781,-0.9996038848156026,-0.010130715240406284,-0.02049628214621926,-0.025410000000000002,-0.19244000000000003,0.00935,4.6096,1.8004,-6.5507,12.917004645284225,28.894564371222096,35.64999771118164,35.52000045776367,35.869998931884766,35.7599983215332,28.948126834458392,28.842567866108322,29.12676985408058,29.037448344269485,28.988728224729194,0.003258877770134564,-1.3000000715255737,29.200000762939453,0.0,0.0,0.0,0.0,0.0,,,,,
pylon_camera_1771858473022087292.png,1771858473022087292,1771858473.022087,42.3008722479691,-83.69778875952805,237.86465454101562,-0.016595275840304236,-0.9994459355622929,-0.011390398903481112,-0.026508065199417816,-0.012470000000000002,-0.20504000000000003,0.006750000000000001,-1.0591000000000002,2.1017,-10.9785,12.930069172995319,28.92378893584015,35.709999084472656,35.65999984741211,36.099998474121094,36.16999816894531,28.996848502783358,28.956248661297227,29.31353160297226,29.37037200056671,29.15925019190489,0.008140747278548027,-0.9000000357627869,28.975000381469727,0.0,0.0,0.0,0.0,0.0,,,,,
pylon_camera_1771858473082515121.png,1771858473082515121,1771858473.0825152,42.30087234181754,-83.69779820708983,237.86572265625,-0.016528704762845292,-0.9993473650640765,-0.010523294179778729,-0.03034643534183126,0.03155,-0.09435000000000002,-0.007380000000000001,-1.0875000000000001,-0.2155,-5.8631,12.995832402165105,29.07089733369921,35.849998474121094,35.79999923706055,36.38999938964844,36.46999740600586,29.11052929797226,29.069929456486133,29.549015020188907,29.61397414705284,29.335861980425037,0.009114429585174059,-0.9000000357627869,28.475000381469727,0.0,0.0,0.0,0.0,0.0,,,,,
pylon_camera_1771858473122356142.png,1771858473122356142,1771858473.1223562,42.300872408608626,-83.69780449613314,237.85617065429688,-0.016419998677013714,-0.9993446454259975,-0.010091007538068979,-0.03064041234547645,0.04103000000000001,0.0422,-0.00384,0.3554,0.8716,-3.9201,12.986923843988519,29.05096942357168,36.189998626708984,36.369998931884766,36.52000045776367,36.56999969482422,29.386612556675036,29.532774464080582,29.654577086108326,29.695176927594456,29.5672852586146,0.017772757511630127,-0.9000000357627869,27.625,0.0,0.0,0.0,0.0,0.0,,,,,
pylon_camera_1771858473172698198.png,1771858473172698198,1771858473.172698,42.300872470671095,-83.69781078317749,237.8377227783203,-0.01623755304087915,-0.9994190042566731,-0.009915423450955448,-0.028278617003538942,-0.028800000000000006,0.14632000000000003,-0.015590000000000003,-0.6716000000000001,-0.8167000000000001,-5.978000000000001,12.976996774393212,29.028763164511155,36.52000045776367,36.43000030517578,36.779998779296875,36.81999969482422,29.654577086108326,29.58149613240555,29.86569812037781,29.898179232594455,29.749987642871538,0.02484516733534517,-1.0,28.149999618530273,0.0,0.0,0.0,0.0,0.0,,,,,
pylon_camera_1771858473222792492.png,1771858473222792492,1771858473.2227924,42.300872556339684,-83.6978202229184,237.80474853515625,-0.016216520010494284,-0.9995085741473073,-0.011827186423458074,-0.02407804697376321,-0.017060000000000002,0.25443000000000005,-0.0027800000000000004,-2.8317,1.7151,-9.184700000000001,12.990311829517852,29.058548143921666,37.529998779296875,36.88999938964844,36.88999938964844,36.88999938964844,30.47470503537781,29.955019630188904,29.955019630188904,29.955019630188904,30.084940981486127,0.035321545745538495,-1.0,29.80000114440918,0.0,0.0,0.0,0.0,0.0,,,,,
pylon_camera_1771858473273739106.png,1771858473273739106,1771858473.273739,42.30087260990465,-83.69782653911724,237.78257751464844,-0.016023841276827877,-0.9996407153688376,-0.013085961886513186,-0.01704213276319508,-0.007710000000000002,0.18935000000000002,-0.0006000000000000001,-1.0427,3.5660000000000003,-14.3871,13.075184990193032,29.248404311962403,37.29999923706055,37.22999954223633,36.95000076293945,37.04999923706055,30.28794328648613,30.23110288889168,30.00374129851387,30.08494098148613,30.151932113844452,0.030891524619430684,-0.699999988079071,33.95000076293945,0.0,0.0,0.0,0.0,0.0,,,,,
pylon_camera_1771858473324180504.png,1771858473324180504,1771858473.3241804,42.300872698455265,-83.69783605629283,237.75445556640625,-0.015764854863170974,-0.9997226054008903,-0.012995359382474344,-0.011717603685023469,-0.014590000000000002,0.10604000000000002,-0.0083,1.2617,2.1648,-10.590900000000001,13.169545627560682,29.459483396115594,37.34000015258789,37.189998626708984,37.529998779296875,37.16999816894531,30.320424398702773,30.198621776675033,30.47470503537781,30.182381220566715,30.294033107830582,0.028328728664163493,-0.5,33.875,0.0,0.0,0.0,0.0,0.0,,,,,
pylon_camera_1771858473375137720.png,1771858473375137720,1771858473.3751378,42.300872758051405,-83.69784245243392,237.74319458007812,-0.015616759089354004,-0.9997508991524731,-0.01270805130496076,-0.009631298531226096,0.042300000000000004,0.07938000000000002,-0.015250000000000001,2.6725000000000003,-0.2414,-11.1706,13.257829953582815,29.656970136367544,37.2599983215332,37.25,37.43000030517578,37.349998474121094,30.255462174269486,30.247343445,30.393505352405548,30.32854312797226,30.306213524911826,0.021891763911112812,-0.699999988079071,30.274999618530273,0.0,0.0,0.0,0.0,0.0,,,,,
pylon_camera_1771858473424974496.png,1771858473424974496,1771858473.4249747,42.30087283995751,-83.6978521329102,237.7413330078125,-0.015569452017555385,-0.999727155621892,-0.01361279138606576,-0.010858102353263979,-0.021500000000000002,-0.09814000000000002,0.014010000000000002,3.6539,3.069,-20.1721,13.39055035039227,29.953857700806484,37.25,37.22999954223633,36.779998779296875,36.93000030517578,30.247343445,30.23110288889168,29.86569812037781,29.98750074240555,30.082911299168764,0.004308413281899411,-1.0,21.05000114440918,0.0,0.0,0.0,0.0,0.0,,,,,
pylon_camera_1771858473475759308.png,1771858473475759308,1771858473.4757593,42.300872884571746,-83.69785863392248,237.752197265625,-0.015546191722160818,-0.999668631972336,-0.013767446072124014,-0.015211824418745894,0.012,-0.20185000000000003,0.018170000000000006,2.9101000000000004,4.686,-9.8354,13.456044004090494,30.10036307451019,37.189998626708984,37.040000915527344,37.54999923706055,37.11000061035156,30.198621776675033,30.076822252216644,30.49094559148613,30.1336626498111,30.225013067547227,0.004141145830316995,-1.100000023841858,0.0,0.0,0.0,0.0,0.0,0.0,,,,,
pylon_camera_1771858473526164929.png,1771858473526164929,1771858473.526165,42.300872970651746,-83.69786843177756,237.77328491210938,-0.015545319549070125,-0.999592807361263,-0.012808501482008808,-0.020211501713919108,0.014770000000000002,-0.13712000000000002,0.023780000000000003,0.2805,2.4473000000000003,-7.7514,13.45778731027274,30.104262745841506,37.290000915527344,37.11000061035156,37.62999725341797,37.46999740600586,30.279824557216646,30.1336626498111,30.555904718350067,30.425983367052844,30.348843823107664,0.008124466602323407,-1.100000023841858,0.0,0.0,0.0,0.0,0.0,0.0,,,,,
pylon_camera_1771858473577468939.png,1771858473577468939,1771858473.5774689,42.30087303311713,-83.69787498807123,237.78335571289062,-0.015561033185469253,-0.9995414607338835,-0.011228585237667291,-0.023423095306466024,0.05226000000000001,-0.08212000000000001,0.0061600000000000005,-1.1214,-0.3632,-4.4716000000000005,13.489247027050064,30.174636244689374,37.38999938964844,37.43000030517578,37.790000915527344,37.79999923706055,30.361024240188904,30.393505352405548,30.685829167216646,30.69394789648613,30.533576664074303,0.011895434843828523,-1.100000023841858,0.0,0.0,0.0,0.0,0.0,0.0,,,,,
pylon_camera_1771858473627057168.png,1771858473627057168,1771858473.627057,42.300873131716145,-83.69788480661465,237.78280639648438,-0.015475181082736933,-0.9995300026260143,-0.010752605907227916,-0.024180034886246943,0.0,-0.010230000000000003,-0.020120000000000002,-0.5374,-0.3259,-4.8559,13.476710197752798,30.146592109761144,37.71999740600586,37.62999725341797,37.72999954223633,37.7599983215332,30.628985672052842,30.555904718350067,30.63710749889168,30.66146678426949,30.62086616839102,0.015732261109417816,-1.5,0.0,0.0,0.0,0.0,0.0,0.0,,,,,
pylon_camera_1771858473677783173.png,1771858473677783173,1771858473.6777833,42.300873195380944,-83.69789134131865,237.772705078125,-0.015291060198308448,-0.999556407281254,-0.010729899736444943,-0.023195719274239145,0.027330000000000004,0.07744000000000001,-0.005940000000000001,-0.2949,1.2562,-7.6172,13.474826680303465,30.142378794238034,37.939998626708984,37.91999816894531,37.86000061035156,37.89999771118164,30.807628691675035,30.791388135566713,30.7426695648111,30.775147579458388,30.77920849287781,0.02112738689228838,-1.7000000476837158,0.0,0.0,0.0,0.0,0.0,0.0,,,,,
pylon_camera_1771858473736792792.png,1771858473736792792,1771858473.7367928,42.30087329933711,-83.69790115041306,237.75234985351562,-0.015081135790900813,-0.9996067139385116,-0.01018653362630816,-0.02133568196676263,0.034190000000000005,0.04562000000000001,-0.007610000000000001,-0.7866000000000001,0.8423,-10.622300000000001,13.502231038941781,30.20368070025043,37.86000061035156,38.22999954223633,37.72999954223633,37.79999923706055,30.7426695648111,31.043112108891677,30.63710749889168,30.69394789648613,30.779209267270147,0.019054914953293915,-1.899999976158142,0.0,0.0,0.0,0.0,0.0,0.0,,,,,
pylon_camera_1771858473790960598.png,1771858473790960598,1771858473.7909606,42.30087339899145,-83.6979109781291,237.7317352294922,-0.014937493755655673,-0.9996288127601607,-0.010247945401765796,-0.02034914236654242,0.02125,0.007600000000000001,-0.00124,0.4091,1.0510000000000002,-10.4266,13.545597897317252,30.300689760424856,37.7599983215332,37.89999771118164,37.7599983215332,37.869998931884766,30.66146678426949,30.775147579458388,30.66146678426949,30.750788294080582,30.712217360519485,0.013581459806638387,-2.299999952316284,0.0,0.0,0.0,0.0,0.0,0.0,,,,,
pylon_camera_1771858473840631010.png,1771858473840631010,1771858473.840631,42.30087349116853,-83.69792084115211,237.71438598632812,-0.014852382514130735,-0.9996182643362441,-0.010134993078664601,-0.020976516735249622,0.014730000000000002,-0.027250000000000003,0.0017000000000000001,0.391,0.37070000000000003,-10.921800000000001,13.571644084354201,30.358953518055287,37.66999816894531,37.89999771118164,37.79999923706055,37.84000015258789,30.588385830566715,30.775147579458388,30.69394789648613,30.726429008702773,30.6959775788035,0.011101306919152395,-2.700000047683716,0.0,0.0,0.0,0.0,0.0,0.0,,,,,
pylon_camera_1771858473882483845.png,1771858473882483845,1771858473.882484,42.30087355284803,-83.69792742058041,237.70672607421875,-0.014889783627176467,-0.9995893506212696,-0.010371332368911003,-0.022177915433564004,-0.014360000000000001,-0.05398000000000001,0.011800000000000001,-0.6938000000000001,1.5273,-12.157200000000001,13.567099874925487,30.348788394215823,37.87999725341797,37.75,37.68000030517578,37.71999740600586,30.75890702335007,30.653348055,30.59650765740555,30.628985672052842,30.659437101952115,0.010235950895341111,-2.799999952316284,0.0,0.0,0.0,0.0,0.0,0.0,,,,,
pylon_camera_1771858473932337190.png,1771858473932337190,1771858473.932337,42.300873614856044,-83.69793399478657,237.69998168945312,-0.014963619137353612,-0.9995821399833027,-0.009091211379404999,-0.02299968270147038,0.06535,0.00825,0.009210000000000001,-0.2856,0.1,-9.0435,13.541741814080206,30.29206393358858,37.939998626708984,38.040000915527344,37.84000015258789,38.02000045776367,30.807628691675035,30.888831472216644,30.726429008702773,30.872590916108322,30.823870022175694,0.017555954251021983,-2.700000047683716,0.0,0.0,0.0,0.0,0.0,0.0,,,,,
pylon_camera_1771858473981898013.png,1771858473981898013,1771858473.981898,42.30087371589168,-83.6979438375433,237.69175720214844,-0.01499654804603634,-0.9995842754398874,-0.008220254984709352,-0.02321222195320562,0.05072000000000001,-5.000000000000001e-05,0.016520000000000003,0.5387000000000001,2.2374,-12.257900000000001,13.532481656684192,30.27134951710314,37.86000061035156,37.77000045776367,38.029998779296875,37.80999755859375,30.7426695648111,30.669588611108324,30.88070964537781,30.70206662575562,30.74875861176321,0.01577098815466876,-2.6000001430511475,0.0,0.0,0.0,0.0,0.0,0.0,,,,,
pylon_camera_1771858474032291083.png,1771858474032291083,1771858474.0322912,42.30087378107023,-83.69795039093941,237.68507385253906,-0.015123954881469948,-0.9995984002208298,-0.007959051271133388,-0.02260437496513552,-0.055830000000000005,0.04016,0.019000000000000003,-0.0732,0.5849,-6.4439,13.514750989637754,30.23168707876028,37.79999923706055,37.790000915527344,38.029998779296875,37.87999725341797,30.69394789648613,30.685829167216646,30.88070964537781,30.75890702335007,30.75484843310766,0.017305066468319415,-2.700000047683716,0.0,0.0,0.0,0.0,0.0,0.0,,,,,
pylon_camera_1771858474081924135.png,1771858474081924135,1771858474.0819242,42.300873860988126,-83.69796022894634,237.67037963867188,-0.015161323082074685,-0.9996065778919965,-0.008586648951145696,-0.021979380729295228,-0.02262,0.04722000000000001,0.02355,-0.4577,-1.4743000000000002,-12.8831,13.502347600891271,30.203941442337722,37.89999771118164,37.98999786376953,37.77000045776367,37.87999725341797,30.775147579458388,30.848228533161162,30.669588611108324,30.75890702335007,30.762967936769485,0.018508395518478896,-3.0,0.0,0.0,0.0,0.0,0.0,0.0,,,,,
pylon_camera_1771858474132350910.png,1771858474132350910,1771858474.132351,42.30087390588363,-83.69796679820952,237.66465759277344,-0.015219746746575558,-0.9995814473483984,-0.010387566956700754,-0.02230219447882042,-0.08674000000000001,-0.06964000000000001,0.0004000000000000001,-0.1168,-0.9639000000000001,-13.6068,13.54677552065728,30.303324033179095,37.61000061035156,37.97999954223633,37.63999938964844,37.82999801635742,30.5396672598111,30.84010980389168,30.564026545188906,30.71830718186394,30.665527697688905,0.011952605071088349,-3.5,0.0,0.0,0.0,0.0,0.0,0.0,,,,,
pylon_camera_1771858474182649533.png,1771858474182649533,1771858474.1826496,42.300873975321885,-83.6979766370261,237.6600799560547,-0.015307063115032438,-0.9995435123743812,-0.012492734560339206,-0.022855902351084676,0.012600000000000002,-0.018600000000000002,-0.005550000000000001,1.8832,3.0649,-8.9296,13.530389701336702,30.266669938508123,37.62999725341797,37.40999984741211,37.89999771118164,37.91999816894531,30.555904718350067,30.37726479629723,30.775147579458388,30.791388135566713,30.6249263074181,0.011836662891485444,-3.700000047683716,0.0,0.0,0.0,0.0,0.0,0.0,,,,,
pylon_camera_1771858474232061851.png,1771858474232061851,1771858474.2320619,42.300874022410696,-83.69798318803281,237.65695190429688,-0.015492097245872583,-0.9995390946678875,-0.012072049662428742,-0.023148623509235102,0.012170000000000002,0.024750000000000005,0.008000000000000002,0.4011,1.2403,-7.2315000000000005,13.490143034522461,30.176640559644675,37.79999923706055,37.56999969482422,37.87999725341797,37.869998931884766,30.69394789648613,30.507186147594453,30.75890702335007,30.750788294080582,30.677707340377808,0.0166044586620822,-4.0,0.0,0.0,0.0,0.0,0.0,0.0,,,,,
pylon_camera_1771858474292102065.png,1771858474292102065,1771858474.292102,42.30087411158431,-83.69799299979967,237.6457061767578,-0.015625416640311696,-0.9995635839779524,-0.011074521743419736,-0.022490951694450846,-0.03787000000000001,0.007030000000000001,0.017050000000000003,-1.9786000000000001,0.2616,-9.6296,13.466740822409855,30.124291215281506,37.80999755859375,37.77000045776367,37.86000061035156,37.72999954223633,30.70206662575562,30.669588611108324,30.7426695648111,30.63710749889168,30.68785807514168,0.018708053770715334,-4.599999904632568,0.0,0.0,0.0,0.0,0.0,0.0,,,,,
pylon_camera_1771858474332845376.png,1771858474332845376,1771858474.3328452,42.3008741625196,-83.69799952396252,237.63470458984375,-0.015838163709685993,-0.9995824131467856,-0.011682538855380342,-0.02115821787973707,-0.05593000000000001,0.06857,0.010490000000000001,-0.6648000000000001,-1.1689,-6.374300000000001,13.461145036468467,30.111773777877776,37.689998626708984,37.71999740600586,38.2599983215332,37.82999801635742,30.604626386675033,30.628985672052842,31.06747139426949,30.71830718186394,30.754847658715324,0.021356227154907603,-5.0,0.0,0.0,0.0,0.0,0.0,0.0,,,,,
pylon_camera_1771858474384138742.png,1771858474384138742,1771858474.3841388,42.300874217164214,-83.69800931814224,237.6157989501953,-0.016813478526948422,-0.9995187891093384,-0.015545410270202361,-0.02092456395618842,0.03508,-0.014710000000000003,0.07225000000000001,-1.4915,6.0625,-17.736700000000003,13.460219220381061,30.109702782839214,37.68000030517578,37.709999084472656,37.2599983215332,37.48999786376953,30.59650765740555,30.62086694278336,30.255462174269486,30.442223923161166,30.478765174404888,0.012257257875558236,-5.099999904632568,0.0,0.0,0.0,0.0,0.0,0.0,,,,,
pylon_camera_1771858474434921402.png,1771858474434921402,1771858474.4349215,42.30087426013392,-83.69801586079849,237.6083526611328,-0.017091408437262368,-0.9995088148893738,-0.015401836254344275,-0.021279007403173216,0.07323000000000002,-0.12593000000000001,0.03926,0.8043,5.0037,-9.0836,13.516495386307032,30.235589189445655,37.709999084472656,37.48999786376953,37.75,37.529998779296875,30.62086694278336,30.442223923161166,30.653348055,30.47470503537781,30.547785989080584,0.010325474316998186,-4.300000190734863,0.0,0.0,0.0,0.0,0.0,0.0,,,,,
pylon_camera_1771858474486506685.png,1771858474486506685,1771858474.4865067,42.30087436331249,-83.69802566647411,237.60333251953125,-0.017315579307166207,-0.9995012864411077,-0.013601975453986587,-0.02263482669642549,0.08771000000000001,0.008490000000000001,0.030520000000000005,0.2669,2.3567,-6.0986,13.469876299074368,30.13130508845142,37.56999969482422,37.46999740600586,37.790000915527344,37.56999969482422,30.507186147594453,30.425983367052844,30.685829167216646,30.507186147594453,30.5315462073646,0.013283232098253243,-3.0,0.0,0.0,0.0,0.0,0.0,0.0,,,,,
pylon_camera_1771858474535382813.png,1771858474535382813,1771858474.5353827,42.30087443292947,-83.69803220715323,237.59959411621094,-0.017327115145983008,-0.9994629301507585,-0.013430784417818087,-0.02435644401590387,-0.03456000000000001,-0.0031400000000000004,0.009650000000000002,-2.4688000000000003,1.1078000000000001,-11.4352,13.446515901676777,30.079049281096854,37.5099983215332,37.529998779296875,37.689998626708984,37.45000076293945,30.458464479269484,30.47470503537781,30.604626386675033,30.40974590851387,30.48688545245905,0.01355881190096322,-2.1000001430511475,0.0,0.0,0.0,0.0,0.0,0.0,,,,,
pylon_camera_1771858474586276151.png,1771858474586276151,1771858474.586276,42.300874551890665,-83.69804199798232,237.58987426757812,-0.017373590601510114,-0.9994544549476853,-0.013422830323119372,-0.024673436342615193,0.005700000000000001,0.0024200000000000003,0.0017900000000000004,-0.917,-0.8757,-7.1888000000000005,13.439076604852255,30.062408020458207,37.61000061035156,37.68000030517578,37.64999771118164,37.62999725341797,30.5396672598111,30.59650765740555,30.57214527445839,30.555904718350067,30.566056227506277,0.016753421971564104,-1.7000000476837158,0.0,0.0,0.0,0.0,0.0,0.0,,,,,
pylon_camera_1771858474636228840.png,1771858474636228840,1771858474.6362288,42.30087464303733,-83.69804850516304,237.58033752441406,-0.01725004659019691,-0.9994764122919235,-0.013114899717841307,-0.024027829075712256,0.05270000000000001,0.03867,-0.012520000000000002,-0.7395,0.6677000000000001,-8.8401,13.409228253323942,29.995639048990462,37.689998626708984,37.64999771118164,37.7599983215332,37.64999771118164,30.604626386675033,30.57214527445839,30.66146678426949,30.57214527445839,30.602595929965325,0.02023483747032524,-1.0,0.0,0.0,0.0,0.0,0.0,0.0,,,,,
pylon_camera_1771858474696093863.png,1771858474696093863,1771858474.696094,42.30087478267091,-83.69805825459093,237.5637969970703,-0.016991182647585035,-0.9995371929065547,-0.01182409718655209,-0.022291039330733533,0.06405000000000001,0.06459000000000001,-0.016560000000000002,-0.7981,0.2018,-10.3109,13.39668579824464,29.967582329525367,37.62999725341797,37.59000015258789,37.56999969482422,37.599998474121094,30.555904718350067,30.523426703702775,30.507186147594453,30.53154543297226,30.529515750654888,0.018751376569202886,0.10000000149011612,0.0,0.0,0.0,0.0,0.0,0.0,,,,,
pylon_camera_1771858474737726083.png,1771858474737726083,1771858474.7377262,42.300874874890255,-83.69806475064046,237.5521697998047,-0.01679876836636668,-0.9995793296494917,-0.01095190893781566,-0.02095282342463534,0.053610000000000005,0.06103000000000001,-0.014520000000000002,0.2326,-0.0645,-9.831100000000001,13.400395074734721,29.975879758477088,37.66999816894531,37.869998931884766,37.62999725341797,37.56999969482422,30.588385830566715,30.750788294080582,30.555904718350067,30.507186147594453,30.600566247647954,0.02083963820925745,0.5,0.0,0.0,0.0,0.0,0.0,0.0,,,,,
pylon_camera_1771858474797025331.png,1771858474797025331,1771858474.7970252,42.300875010847506,-83.69807449714564,237.53634643554688,-0.01635367574266161,-0.999616320550769,-0.01030347733392183,-0.019839539638690416,0.02253,0.013610000000000002,-0.020820000000000005,-0.3665,-0.0043,-10.6739,13.406514410379312,29.989568345153902,37.56999969482422,37.529998779296875,37.48999786376953,37.48999786376953,30.507186147594453,30.47470503537781,30.442223923161166,30.442223923161166,30.46658475732365,0.015906077962833654,0.4000000059604645,0.0,0.0,0.0,0.0,0.0,0.0,,,,,
pylon_camera_1771858474847316320.png,1771858474847316320,1771858474.8473163,42.30087513457244,-83.69808425105938,237.52590942382812,-0.01597718739379994,-0.999624803210421,-0.010023147283218558,-0.01986249752798964,0.0134,-0.012300000000000002,-0.015150000000000002,-0.0757,-0.1109,-10.5952,13.409122983404208,29.99540356649621,37.38999938964844,37.48999786376953,37.54999923706055,37.529998779296875,30.361024240188904,30.442223923161166,30.49094559148613,30.47470503537781,30.442224697553502,0.014896320033392526,0.5,0.0,0.0,0.0,0.0,0.0,0.0,,,,,
pylon_camera_1771858474913690889.png,1771858474913690889,1771858474.9136908,42.30087524395783,-83.69809400584981,237.5189666748047,-0.015589719929536672,-0.9996172407557884,-0.010041936368015822,-0.02053027350726896,-0.007500000000000001,-0.03844,-0.019000000000000003,-0.3532,-0.3331,-10.1568,13.395160194998635,29.964169646600247,37.40999984741211,37.54999923706055,37.349998474121094,37.529998779296875,30.37726479629723,30.49094559148613,30.32854312797226,30.47470503537781,30.41786463778336,0.015141250251017367,1.100000023841858,0.0,0.0,0.0,0.0,0.0,0.0,,,,,
pylon_camera_1771858474941370791.png,1771858474941370791,1771858474.941371,42.300875312217094,-83.69810050031543,237.5157470703125,-0.015419901099867461,-0.9996111599076732,-0.01019172344141721,-0.02087784498936764,-0.012500000000000002,-0.024100000000000003,-0.012020000000000001,-1.7842,0.3786,-11.015,13.375555009412057,29.92031402275421,37.45000076293945,37.48999786376953,37.40999984741211,37.529998779296875,30.40974590851387,30.442223923161166,30.37726479629723,30.47470503537781,30.425984915837518,0.016900587764511744,1.3000000715255737,0.0,0.0,0.0,0.0,0.0,0.0,,,,,
pylon_camera_1771858474990664988.png,1771858474990664988,1771858474.990665,42.300875376902916,-83.69810698801787,237.51344299316406,-0.015036012067351057,-0.9996158148437078,-0.010390712729599993,-0.020836845836904098,-0.01276,0.01058,-0.012600000000000002,-1.2114,0.2373,-9.2262,13.361705150890941,29.889332720233984,37.40999984741211,37.48999786376953,37.56999969482422,37.529998779296875,30.37726479629723,30.442223923161166,30.507186147594453,30.47470503537781,30.450344975607663,0.018769648042155675,1.2000000476837158,0.0,0.0,0.0,0.0,0.0,0.0,,,,,
pylon_camera_1771858475040154999.png,1771858475040154999,1771858475.040155,42.300875462264464,-83.69811670753421,237.5078125,-0.014618167515919656,-0.9996276406597963,-0.010682145953707013,-0.02041521406278552,-0.006640000000000001,0.013430000000000003,-0.019810000000000005,-0.3645,0.3272,-8.9932,13.347581367662283,29.85773866457847,37.45000076293945,37.38999938964844,37.40999984741211,37.45000076293945,30.40974590851387,30.361024240188904,30.37726479629723,30.40974590851387,30.38944521337847,0.017807997945630944,0.9000000357627869,0.0,0.0,0.0,0.0,0.0,0.0,,,,,
pylon_camera_1771858475102482842.png,1771858475102482842,1771858475.102483,42.300875547378205,-83.69812641244494,237.5002899169922,-0.014041931099040672,-0.9996489374965019,-0.010803280046363724,-0.019700636369531618,0.016880000000000003,0.022490000000000003,-0.02152,-0.9127000000000001,0.8014,-9.0455,13.334884046115052,29.829335518116608,37.38999938964844,37.369998931884766,37.38999938964844,37.45000076293945,30.361024240188904,30.344783684080586,30.361024240188904,30.40974590851387,30.369144518243065,0.018096581460844422,0.6000000238418579,0.0,156.0,0.0,0.0,0.0,0.0,,,,,
pylon_camera_1771858475142233915.png,1771858475142233915,1771858475.1422338,42.300875598803145,-83.69813287768163,237.49488830566406,-0.013638598173018601,-0.999662074009414,-0.010769955173465528,-0.01933221385752693,-0.009900000000000003,0.007840000000000001,-0.014060000000000001,-0.877,0.137,-9.927800000000001,13.324815616618704,29.806813045439046,37.32999801635742,37.349998474121094,37.369998931884766,37.30999755859375,30.31230257186394,30.32854312797226,30.344783684080586,30.296062015755616,30.320422849918103,0.01723128882299772,0.5,0.0,364.0,0.0,0.0,0.0,0.0,,,,,
pylon_camera_1771858475202197061.png,1771858475202197061,1771858475.202197,42.300875662611126,-83.69814256769213,237.487060546875,-0.013080891183478383,-0.9996800847178987,-0.011284190221262636,-0.018473915538167126,-0.032200000000000006,0.023600000000000003,-0.015040000000000003,-0.6135,-0.0913,-10.6933,13.306665301292188,29.76621187907255,37.25,37.25,37.32999801635742,37.29999923706055,30.247343445,30.247343445,30.31230257186394,30.28794328648613,30.273733187087515,0.01705024845206398,0.4000000059604645,0.0,964.0,0.0,0.0,0.0,0.0,,,,,
pylon_camera_1771858475241662124.png,1771858475241662124,1771858475.2416623,42.300875696702875,-83.698149025366,237.48239135742188,-0.012765380827724215,-0.9996838132629646,-0.011855796113412833,-0.018131702922186743,-0.026380000000000004,0.011980000000000001,-0.014940000000000002,-0.1144,-0.0898,-10.531500000000001,13.30639050997789,29.765597187389943,37.14999771118164,37.14999771118164,37.16999816894531,37.38999938964844,30.16614066445839,30.16614066445839,30.182381220566715,30.361024240188904,30.218921697418097,0.015229814042508179,0.4000000059604645,0.0,1568.0,0.0,0.0,0.0,0.0,,,,,
pylon_camera_1771858475292816740.png,1771858475292816740,1771858475.2928166,42.30087573740626,-83.69815547904464,237.4787139892578,-0.012350720759941425,-0.9996748068958521,-0.012211040898814005,-0.018671653237420916,-0.016730000000000002,-0.047130000000000005,-0.013830000000000002,-1.006,0.3047,-10.5274,13.297170707992333,29.74497304353637,36.689998626708984,36.81999969482422,36.93000030517578,37.040000915527344,29.792617166675036,29.898179232594455,29.98750074240555,30.076822252216644,29.938779848472922,0.006515615416860089,0.20000000298023224,0.0,2044.0,284.0,0.0,0.0,0.0,,,,,
pylon_camera_1771858475342177836.png,1771858475342177836,1771858475.3421779,42.30087580100306,-83.69816511961021,237.47463989257812,-0.011893296792845787,-0.9996636378650365,-0.01177538081821649,-0.019811638711233384,0.012560000000000002,-0.06765000000000002,-0.01668,-2.4449,-0.010700000000000001,-10.7004,13.212848830701867,29.556350063350237,35.91999816894531,35.52000045776367,36.79999923706055,36.75,29.167369695566713,28.842567866108322,29.88193867648613,29.841338835000002,29.43330376829029,0.0041631085975167015,-0.9000000357627869,0.0,2400.0,1232.0,0.0,0.0,0.0,,,,,
pylon_camera_1771858475393706311.png,1771858475393706311,1771858475.3937063,42.30087583336623,-83.69817149645489,237.47381591796875,-0.011212530204748217,-0.9996416716657164,-0.011298651584492433,-0.02152087145427895,-2e-05,-0.05033000000000001,-0.025810000000000003,-3.2564,0.09290000000000001,-10.5999,13.068155768531422,29.23268036485868,34.619998931884766,34.71999740600586,36.130001068115234,36.16999816894531,28.111758329080583,28.19295801205284,29.337893985919422,29.37037200056671,28.753245581904892,0.016400643970031863,-2.9000000953674316,0.0,2680.0,1348.0,0.0,0.0,0.0,,,,,
pylon_camera_1771858475443696450.png,1771858475443696450,1771858475.4436965,42.300875881747096,-83.69818097095025,237.47254943847656,-0.010695024725600688,-0.9996289766626626,-0.011132303687190051,-0.022440973176158004,0.0088,-0.04775000000000001,-0.025920000000000002,-3.9073,-0.4423,-8.9571,12.957863322173576,28.985962779902962,33.43000030517578,32.98999786376953,35.459999084472656,35.52000045776367,27.14546847240555,26.788182433161165,28.793846197783356,28.842567866108322,27.8925162423646,0.03772331268901267,-5.5,0.0,3360.0,1792.0,0.0,0.0,0.0,,,,,
pylon_camera_1771858475494247298.png,1771858475494247298,1771858475.4942474,42.300875906816614,-83.69818721858046,237.47085571289062,-0.00983518504883335,-0.9996305179861373,-0.010936238705041028,-0.02285815672376697,0.01969,0.005900000000000001,-0.030640000000000004,-3.7258,0.059000000000000004,-8.1683,12.75107213412369,28.52338329970665,31.189998626708984,30.459999084472656,34.79999923706055,34.55999755859375,25.326566456675035,24.73380009778336,28.257920236486132,28.063036660755618,26.595330862925035,0.0675955028378925,-7.800000190734863,0.0,3732.0,2260.0,0.0,0.0,0.0,,,,,
pylon_camera_1771858475544625492.png,1771858475544625492,1771858475.5446255,42.3008759330842,-83.69819645015816,237.46400451660156,-0.00917063670309859,-0.9996461447452197,-0.011045404146661952,-0.022393833207287064,-0.038090000000000006,0.014020000000000003,-0.022840000000000003,-4.1061000000000005,0.027600000000000003,-8.379800000000001,12.585075692720133,28.152059220073376,28.799999237060547,30.469999313354492,34.11000061035156,34.040000915527344,23.38586491648613,24.741920375837516,27.6976349898111,27.640794592216643,25.866553718587852,0.08118430995114846,-9.600000381469727,0.0,4060.0,1796.0,1.0,0.0,0.0,,,,,
pylon_camera_1771858475595602322.png,1771858475595602322,1771858475.5956025,42.300875945939524,-83.69820252288099,237.45736694335938,-0.008339038850258496,-0.9996823813811342,-0.010825176935356506,-0.02117574866484332,-0.012420000000000002,0.05041,-0.03193,-3.2749,-2.4274,-9.473600000000001,12.425070991478565,27.794138303678064,31.399999618530273,30.529998779296875,33.56999969482422,33.91999816894531,25.497089198243067,24.790640495377808,27.259149267594452,27.543351255566712,26.272557554195508,0.0547446635278922,-11.199999809265137,0.0,4244.0,1748.0,1.0,0.0,0.0,,,,,
pylon_camera_1771858475645425771.png,1771858475645425771,1771858475.6454256,42.30087594025035,-83.69821152866577,237.44720458984375,-0.007691852823080492,-0.9997003492662082,-0.011324916734742913,-0.020292691741620343,-0.03343000000000001,-0.00232,-0.023490000000000004,-3.6716,-1.3124,-10.937800000000001,12.305822741989804,27.527387124466674,31.579999923706055,32.880001068115234,33.46999740600586,33.40999984741211,25.643251105648613,26.69886402091942,27.177946487052843,27.12922791629723,26.662322382479523,0.03142560309395551,-12.0,0.0,4476.0,1784.0,1.0,0.0,0.0,,,,,
pylon_camera_1771858475696418227.png,1771858475696418227,1771858475.6964183,42.30087592676425,-83.69821746511366,237.4418182373047,-0.007349935846183209,-0.9997034267406277,-0.012349787505798964,-0.01966010566260531,-0.03352000000000001,0.006180000000000001,-0.01195,-2.0702000000000003,-0.0961,-9.4018,12.175529716914705,27.235929444955183,31.559999465942383,32.14999771118164,33.439998626708984,33.05999755859375,25.62701054954029,26.10609456445839,27.153587201675034,26.845022830755614,26.43292878660733,0.029483137704947638,-12.5,0.0,4596.0,2196.0,1.0,0.0,0.0,,,,,
pylon_camera_1771858475746665816.png,1771858475746665816,1771858475.7466657,42.3008758975727,-83.69822626973111,237.43548583984375,-0.007204990287454971,-0.9997040007557766,-0.012965736169205452,-0.019284415299458634,-0.021370000000000004,0.023940000000000003,-0.0024500000000000004,-1.4480000000000002,-0.5535,-8.6128,12.017131071518193,26.88160117912191,32.41999816894531,31.829999923706055,32.70000076293945,32.55999755859375,26.325337425566712,25.846253410648615,26.55270211351387,26.439018220755614,26.290827792621204,0.02197686747021375,-12.600000381469727,0.0,4624.0,2472.0,1.0,0.0,0.0,,,,,
pylon_camera_1771858475797664835.png,1771858475797664835,1771858475.7976649,42.30087587406248,-83.69823207281894,237.4321746826172,-0.007407940166786975,-0.9996905094740627,-0.013566262945921611,-0.019492670408542363,0.003940000000000001,0.00248,0.00158,-4.7991,1.0021,-12.8115,11.838790896274093,26.48266490751137,31.229999542236328,31.459999084472656,32.779998779296875,32.16999816894531,25.35904756889168,25.545809317783355,26.61766124037781,26.12233512056671,25.911213311904888,0.02157832671304919,-12.90000057220459,0.0,4656.0,2652.0,1.0,0.0,0.0,,,,,
pylon_camera_1771858475847538970.png,1771858475847538970,1771858475.847539,42.3008758390914,-83.69824066347222,237.43055725097656,-0.0075428475825851105,-0.9996861969894565,-0.013432556266991897,-0.01975296006267163,0.009630000000000001,-0.026250000000000006,-0.0018900000000000002,-4.5185,-0.7704000000000001,-10.629800000000001,11.707662419919794,26.189338373615385,30.34000015258789,30.079999923706055,31.969999313354492,31.60999870300293,24.63635985870277,24.425237275648612,25.959934205837516,25.66761039102642,25.172285432803832,0.03883461759523445,-13.40000057220459,0.0,4796.0,3080.0,1.0,0.0,0.0,,,,,
pylon_camera_1771858475907329805.png,1771858475907329805,1771858475.9073298,42.300875799646846,-83.69824911921253,237.42979431152344,-0.007709982728413056,-0.9996763900873107,-0.013653250702525037,-0.020031475571822586,-0.010660000000000003,-0.012160000000000002,-0.007640000000000001,-4.1844,-0.7511,-9.2626,11.51173675871703,25.751064425044476,26.8799991607666,29.26999855041504,31.309999465942383,30.69999885559082,21.82680715213474,23.76750869232365,25.424008244540293,24.928682124729196,23.98675155343197,0.06851417255966341,-14.800000190734863,0.0,4836.0,3288.0,1.0,0.0,0.0,,,,,
pylon_camera_1771858475957004772.png,1771858475957004772,1771858475.9570048,42.300875774127114,-83.69825467440711,237.4288330078125,-0.0077088486984427385,-0.9996590385785253,-0.014315899093474364,-0.020431232785815424,-0.00017,-0.033900000000000007,-0.013100000000000002,-3.1778,0.5865,-9.2901,11.356778457934206,25.404432003691344,28.35999870300293,25.78999900817871,30.28999900817871,29.969999313354492,23.02858042602642,20.94171697843197,24.595758468431967,24.33591576583752,23.225492909681968,0.0857700378301223,-15.5,0.0,4876.0,3096.0,1.0,0.0,0.0,,,,,
pylon_camera_1771858476000860402.png,1771858476000860402,1771858476.0008605,42.30087572728008,-83.69826289509435,237.42843627929688,-0.00747866275593434,-0.9996478159965221,-0.014605304595042659,-0.020856621357556268,-0.04367000000000001,-0.01729,-0.010360000000000001,-3.0089,-0.6545000000000001,-10.0309,11.219216738518153,25.096714691060797,27.369998931884766,25.829999923706055,29.760000228881836,29.42999839782715,22.22469148408058,20.974198090648613,24.165394573054165,23.897430043620872,22.81542854785106,0.09089979191668099,-16.5,0.0,4876.0,2936.0,1.0,0.0,0.0,,,,,
pylon_camera_1771858476058498475.png,1771858476058498475,1771858476.0584986,42.30087568621071,-83.6982682976642,237.4272003173828,-0.007031884567497038,-0.9996047044812553,-0.016034308936855302,-0.02199746156467073,-0.08849000000000001,-0.031990000000000005,-0.017570000000000002,-4.3444,-1.0575,-9.116100000000001,11.030316096957435,24.674155289927967,24.44999885559082,28.56999969482422,29.779998779296875,28.420000076293945,19.853624499729197,23.199103167594455,24.18163358037781,23.07730209435139,22.57791583551321,0.0849568882818228,-17.399999618530273,0.0,4904.0,2636.0,1.0,0.0,0.0,,,,,
pylon_camera_1771858476102271881.png,1771858476102271881,1771858476.102272,42.300875626423334,-83.69827628971159,237.423583984375,-0.006656450228258948,-0.9995697987539841,-0.017577677077074673,-0.022515202816153167,-0.04411,-0.01635,-0.020510000000000004,-4.7837000000000005,1.8159,-8.9114,10.902313059446586,24.387820175198446,27.18000030517578,26.389999389648438,29.549999237060547,26.34000015258789,22.070410847405547,21.4289228201889,23.99487183148613,21.388322978702774,22.22063211944584,0.08886354090623323,-17.30000114440918,0.0,4944.0,2788.0,1.0,0.0,0.0,,,,,
pylon_camera_1771858476160636613.png,1771858476160636613,1771858476.1606367,42.30087556441467,-83.69828411986778,237.4178009033203,-0.006202016358478835,-0.9995709586385184,-0.01814061978555573,-0.02214388297833748,-0.00892,0.00017,-0.00042000000000000007,-4.3409,2.0556,-9.5949,10.67069302459919,23.869700054446913,28.239999771118164,25.459999084472656,28.869998931884766,27.099998474121094,22.93114018694584,20.673753997783358,23.442705314080584,22.00544862297226,22.26326203044551,0.06730030207070507,-17.200000762939453,0.0,4944.0,2728.0,1.0,0.0,0.0,,,,,
pylon_camera_1771858476201727917.png,1771858476201727917,1771858476.201728,42.300875524989216,-83.69828926274128,237.41319274902344,-0.0057658090113889005,-0.9996123521022489,-0.01739556044472825,-0.020959376132593143,0.03694,0.04913000000000001,-0.01881,-2.2246,-0.0956,-9.7898,10.540894945286102,23.579349538908293,27.939998626708984,26.459999084472656,28.229999542236328,28.619998931884766,22.687536491675036,21.485763217783358,22.923019908891682,23.239703009080582,22.584005656857663,0.0422125250066043,-17.700000762939453,0.0,5140.0,2820.0,1.0,0.0,0.0,,,,,
pylon_camera_1771858476261154517.png,1771858476261154517,1771858476.2611547,42.30087548107187,-83.69829685593886,237.4066162109375,-0.005071491409684048,-0.9996689850633786,-0.015721817509909995,-0.019723709879757256,0.040040000000000006,0.04224000000000001,-0.025690000000000004,-2.351,-1.6592,-9.870700000000001,10.360595751562776,23.17603106050084,24.939998626708984,24.439998626708984,26.099998474121094,27.599998474121094,20.251508831675036,19.845504221675036,21.19343940297226,22.41145323297226,20.925476422323648,0.09710699093827316,-19.600000381469727,0.0,5324.0,2596.0,1.0,0.0,0.0,,,,,
pylon_camera_1771858476302669273.png,1771858476302669273,1771858476.3026693,42.30087543846517,-83.69830184524044,237.40126037597656,-0.004610640135666311,-0.9996847935152845,-0.015521478837815407,-0.019186956677117468,0.0021000000000000003,0.04735000000000001,-0.027420000000000007,-3.6316,-0.5693,-8.4748,10.240404681244168,22.907170847662332,26.920000076293945,27.28999900817871,23.60999870300293,27.68000030517578,21.859288264351388,22.15973080843197,19.17153663102642,22.47641545740555,21.416742790303832,0.06506382072540387,-20.80000114440918,0.0,5324.0,2556.0,1.0,0.0,0.0,,,,,
pylon_camera_1771858476352149143.png,1771858476352149143,1771858476.3521492,42.30087538336816,-83.6983067731105,237.39505004882812,-0.004221732374373066,-0.9996787612336453,-0.017153073372724034,-0.01817480090656062,-0.06396,0.05882000000000001,-0.0061400000000000005,-3.6322,2.3518000000000003,-10.7719,10.10193899959799,22.597431425760732,26.43000030517578,24.850000381469727,26.849998474121094,27.219999313354492,21.46140393240555,20.178429426756935,21.80244631797226,22.102890410837517,21.386292521993063,0.05359630840109503,-22.600000381469727,0.0,5324.0,2628.0,1.0,0.0,0.0,,,,,
pylon_camera_1771858476403031712.png,1771858476403031712,1771858476.4030318,42.30087529641866,-83.6983140753892,237.38873291015625,-0.0038668247218395235,-0.9996626216515545,-0.018156396691806576,-0.018166887418627178,-0.026180000000000002,-0.03291000000000001,-0.012990000000000002,-4.2038,1.4737,-11.4594,9.967895301398048,22.29758371550935,24.59000015258789,22.90999984741211,26.760000228881836,26.119998931884766,19.967306843702776,18.603131106297226,21.72936691305416,21.20967995908058,20.377371205533684,0.08611751544361462,-24.899999618530273,0.0,5324.0,2612.0,1.0,0.0,0.0,,,,,
pylon_camera_1771858476452789796.png,1771858476452789796,1771858476.4527898,42.3008752433993,-83.69831888252408,237.38861083984375,-0.0035457594147476623,-0.999641038622509,-0.01837345324253213,-0.019173880875521486,-0.0031000000000000003,-0.06133,-0.009370000000000002,-1.9769,2.6517,-10.8491,9.831212957528745,21.991833513214353,25.0,25.170000076293945,26.34000015258789,25.979999542236328,20.3002305,20.43827212935139,21.388322978702774,21.09599916389168,20.80570619298646,0.053934899039462914,-26.100000381469727,0.0,5324.0,2808.0,1.0,0.0,0.0,,,,,
pylon_camera_1771858476504279148.png,1771858476504279148,1771858476.5042791,42.30087518143445,-83.69832597533566,237.3927001953125,-0.003040068448283806,-0.9996306729196471,-0.016483954204981367,-0.02139053519225323,0.07087,-0.07451,-0.01017,-5.457400000000001,0.5604,-8.692400000000001,9.615988054816839,21.51038831934198,24.3799991607666,23.260000228881836,25.719999313354492,23.549999237060547,19.796784102134744,18.88733464305416,20.884876580837517,19.122816511486132,19.67295295937814,0.08542083632733087,-27.200000762939453,0.0,5324.0,2660.0,1.0,0.0,0.0,,,,,
pylon_camera_1771858476554144786.png,1771858476554144786,1771858476.5541449,42.30087512706072,-83.6983306166475,237.3928985595703,-0.003193261595181629,-0.9996218635544929,-0.01692914189590118,-0.021432151989371786,-0.10785000000000002,-0.07227000000000001,-0.01058,-2.2312000000000003,1.5412000000000001,-5.5440000000000005,9.490743764862367,21.230224357371224,22.239999771118164,24.059999465942383,25.35999870300293,23.869998931884766,18.059084866945838,19.53694139954029,20.59255276602642,19.382659214080583,19.392809561648285,0.08654712097213334,-27.200000762939453,0.0,5324.0,2832.0,1.0,0.0,0.0,,,,,
pylon_camera_1771858476604237218.png,1771858476604237218,1771858476.6042373,42.30087503152658,-83.69833746704181,237.38880920410156,-0.0036774113389581586,-0.9996095261072568,-0.017384275082113328,-0.021565225279112126,-0.08723000000000002,0.030900000000000004,-0.0035300000000000006,-2.1654,-2.1837,-8.9216,9.285400626267329,20.77088407692244,23.43000030517578,24.03999900817871,24.76999855041504,22.299999237060547,19.02537627240555,19.52070084343197,20.113467202323648,18.107804986486133,19.191837326161824,0.07602212524574338,-26.600000381469727,0.0,5332.0,2816.0,1.0,0.0,0.0,,,,,
pylon_camera_1771858476655052654.png,1771858476655052654,1771858476.6550527,42.30087497095413,-83.69834195190401,237.3866424560547,-0.004448256588171051,-0.9995971310451766,-0.01753988353834162,-0.021866437868096885,-0.024700000000000003,-0.028990000000000002,0.01973,-5.008100000000001,-1.5914000000000001,-10.451500000000001,9.14577018274084,20.458539152580297,23.350000381469727,22.51999855041504,24.53999900817871,21.520000457763672,18.960415596756935,18.28644645732365,19.92670545343197,17.474438786108323,18.66200157340522,0.0878135807144613,-25.600000381469727,0.0,5348.0,2844.0,1.0,0.0,0.0,,,,,
pylon_camera_1771858476706088812.png,1771858476706088812,1771858476.7060888,42.300874872792,-83.69834858161096,237.380859375,-0.005548197314523051,-0.999595108682628,-0.01758218514727015,-0.021672631814601523,0.02731,-0.02391,0.029840000000000002,-1.9605000000000001,0.7633000000000001,-7.587000000000001,9.027389218654148,20.19372803877621,23.549999237060547,20.739999771118164,22.279998779296875,21.94999885559082,19.122816511486132,16.84107103694584,18.091564430377808,17.823601449729196,17.969763357134745,0.11013145652803608,-24.30000114440918,0.0,5348.0,3072.0,1.0,0.0,0.0,,,,,
pylon_camera_1771858476756057812.png,1771858476756057812,1771858476.7560577,42.30087480285253,-83.69835292248588,237.37734985351562,-0.006791804588817951,-0.9995870113737182,-0.01729009210599769,-0.021925574071193377,-0.0035700000000000007,0.028480000000000002,0.05874000000000001,-2.5346,0.25680000000000003,-8.8424,8.830079589487156,19.752358236907398,22.399999618530273,22.94999885559082,21.579999923706055,19.959999084472656,18.18900621824307,18.635610669729196,17.523158905648614,16.207703287783357,17.63886977035106,0.10699929806899063,-24.399999618530273,0.0,5348.0,2880.0,1.0,0.0,0.0,,,,,
pylon_camera_1771858476807669543.png,1771858476807669543,1771858476.8076694,42.30087468879167,-83.69835931018429,237.3698272705078,-0.008084357984776025,-0.9995782029266045,-0.01794062208422337,-0.021358686036950403,-0.08558000000000002,-0.025810000000000003,0.027910000000000004,-4.1635,0.3593,-8.2026,8.693188593182008,19.44614129163256,19.329999923706055,23.010000228881836,23.549999237060547,19.09000015258789,15.696138160648614,18.684332338054162,19.122816511486132,15.501256133702775,17.25113578597292,0.1128761471358909,-23.0,0.0,5348.0,2792.0,1.0,0.0,0.0,,,,,
pylon_camera_1771858476856986349.png,1771858476856986349,1771858476.8569863,42.3008746072509,-83.69836350079159,237.36370849609375,-0.009299435773154174,-0.9995180050233752,-0.020008587741410566,-0.02183883112685787,-0.12704000000000001,-0.07590000000000001,0.06373000000000001,-6.8066,1.6255000000000002,-12.615,8.495512826988165,19.003952463202907,22.369998931884766,23.84000015258789,22.029998779296875,21.10999870300293,18.164645384080583,19.358299928702774,17.88856212537781,17.141513581026423,18.138255254796896,0.04555353472296088,-21.30000114440918,0.0,5348.0,2456.0,1.0,0.0,0.0,,,,,
pylon_camera_1771858476916062290.png,1771858476916062290,1771858476.916062,42.30087450707383,-83.69836965702146,237.361083984375,-0.010956710748134812,-0.9994469435827518,-0.022661284058052986,-0.021730707708621903,-0.11385000000000002,-0.08372000000000002,0.057380000000000014,-7.7678,3.8902,-11.524600000000001,8.33397322846553,18.642598073683683,23.15999984741211,19.6299991607666,23.15999984741211,17.75,18.80613341129723,15.939740307134743,18.80613341129723,14.413163655,16.991292696182303,0.08857699827967651,-16.30000114440918,0.0,5488.0,2796.0,1.0,0.0,0.0,,,,,
pylon_camera_1771858476966358265.png,1771858476966358265,1771858476.9663582,42.300874457251275,-83.69837568214488,237.35877990722656,-0.012078395316716117,-0.9994932578546843,-0.020157797652177407,-0.021470981892228107,0.03830000000000001,-0.025710000000000004,0.07130000000000002,-4.8815,-0.38230000000000003,-8.5731,8.207276301468744,18.359184649807492,22.03999900817871,22.489999771118164,21.850000381469727,20.6299991607666,17.896682403431967,18.262087171945836,17.742401766756934,16.75174952713474,17.66323021731737,0.03790769828644977,-12.199999809265137,0.0,5520.0,2364.0,1.0,0.0,0.0,,,,,
pylon_camera_1771858477008751488.png,1771858477008751488,1771858477.0087516,42.30087443444958,-83.6983796508736,237.35618591308594,-0.013332995365451517,-0.999468441679148,-0.0205735827295698,-0.02148936983045303,-0.023560000000000005,-0.10999000000000002,0.021800000000000003,-1.7610000000000001,8.851600000000001,-7.5502,8.138952515799403,18.206348440692317,20.56999969482422,19.329999923706055,21.260000228881836,22.489999771118164,16.703029407594453,15.696138160648614,17.263316203054163,18.262087171945836,16.981142735810767,0.06729552105809086,-8.5,0.0,5520.0,2656.0,1.0,0.0,0.0,,,,,
pylon_camera_1771858477071118775.png,1771858477071118775,1771858477.0711188,42.30087442120068,-83.6983854852008,237.35325622558594,-0.013710859273288412,-0.9995546482755917,-0.01664983198413342,-0.020622816091560275,0.03941000000000001,0.12974000000000002,0.00858,0.5017,-0.10350000000000001,-1.9486,7.918471637498011,17.713145944784802,19.10999870300293,19.619998931884766,18.850000381469727,19.219999313354492,15.517495141026421,15.931620029080582,15.306374106756934,15.606816650837517,15.590576481925364,0.11983017977020487,-4.800000190734863,0.0,5592.0,3008.0,1.0,0.0,0.0,,,,,
pylon_camera_1771858477113355226.png,1771858477113355226,1771858477.1133552,42.30087440943609,-83.69838929784606,237.3504180908203,-0.013940768659898906,-0.9994998765515319,-0.017055219472461167,-0.022688570501241324,0.06314,-0.15994000000000003,-0.022830000000000003,-12.779,5.0811,-15.7104,7.739218305297979,17.31216699585326,19.850000381469727,18.799999237060547,21.60999870300293,21.529998779296875,16.118383326756934,15.26577271648613,17.54751819102642,17.48255751537781,16.60355793741182,0.04093127443902145,-2.5,0.0,5592.0,2288.0,1.0,0.0,0.0,,,,,
pylon_camera_1771858477162915164.png,1771858477162915164,1771858477.162915,42.30087440511472,-83.69839490463809,237.34695434570312,-0.014265732789235652,-0.9995037666926929,-0.01767935615827718,-0.021820852433709202,0.00974,-0.10971000000000002,0.05949000000000001,-5.0879,3.1544000000000003,-7.448600000000001,7.667282538845,17.151251002443935,20.229999542236328,20.93000030517578,19.68000030517578,20.75,16.426946148891677,16.995353222405548,15.980341697405548,16.849191315,16.562958095925694,0.034300291356846986,-0.699999988079071,0.0,5612.0,2824.0,1.0,0.0,0.0,,,,,
pylon_camera_1771858477212249885.png,1771858477212249885,1771858477.2122498,42.30087441527626,-83.69839856378233,237.34361267089844,-0.013925586311192617,-0.999496562318867,-0.01906159794514243,-0.02119800562398439,-0.034960000000000005,0.050440000000000006,-0.0028300000000000005,-3.3649,6.032100000000001,-7.7435,7.4413458457340775,16.645844176156388,18.3799991607666,20.84000015258789,17.440000534057617,20.600000381469727,14.924728782134743,16.922272268702773,14.161441230459708,16.727390241756936,15.68395813076354,0.05778535682621973,0.800000011920929,0.0,5676.0,2976.0,1.0,0.0,0.0,,,,,
pylon_camera_1771858477263346288.png,1771858477263346288,1771858477.2633462,42.30087442819332,-83.69840395219738,237.34234619140625,-0.013775075757451016,-0.9994762706116108,-0.019986001288951134,-0.021400736544815238,0.06703,0.10691,0.005890000000000001,-1.8536000000000001,6.425000000000001,-8.9936,7.299220516714893,16.327918342660215,20.079999923706055,20.0,20.229999542236328,20.09000015258789,16.305145075648614,16.2401844,16.426946148891677,16.313265353702775,16.321385244560766,0.0004001182491451126,2.6000001430511475,0.0,5708.0,3020.0,1.0,0.0,0.0,,,,,
pylon_camera_1771858477311469651.png,1771858477311469651,1771858477.3114696,42.30087446224248,-83.6984074508433,237.3415069580078,-0.013182739026657952,-0.9994966421115012,-0.01918895642447736,-0.02155137468766366,0.033940000000000005,0.03381000000000001,0.006840000000000001,-4.3438,7.738300000000001,-8.817400000000001,7.139432901863642,15.970483035494857,19.170000076293945,17.6299991607666,19.579999923706055,19.529998779296875,15.566216809351387,14.315721867134743,15.899140465648614,15.85853907537781,15.409904554378137,0.0351009095886967,4.200000286102295,0.0,5724.0,3232.0,1.0,0.0,0.0,,,,,
pylon_camera_1771858477362231885.png,1771858477362231885,1771858477.3622317,42.30087451719446,-83.69841261316495,237.33888244628906,-0.011620149246486466,-0.9995731063421001,-0.016466933203125488,-0.021152241488255917,0.00018,0.09856000000000001,-0.022150000000000003,-3.1534,2.1579,-9.385100000000001,6.995151195297878,15.647733514809637,16.190000534057617,18.549999237060547,17.959999084472656,19.3799991607666,13.14642970545971,15.06277041148613,14.583684847783356,15.736738002134743,14.632405741715985,0.06488657108920635,3.799999952316284,0.0,5724.0,3180.0,1.0,0.0,0.0,,,,,
pylon_camera_1771858477413098240.png,1771858477413098240,1771858477.4130983,42.30087455623514,-83.6984159817662,237.3351593017578,-0.010879207047590767,-0.9996287360749152,-0.014500459307980197,-0.020341326091017322,0.049400000000000006,0.08389,-0.05623,-3.4328000000000003,-0.7382000000000001,-6.2494000000000005,6.880957958492129,15.392290095669384,14.139999389648438,19.079999923706055,19.420000076293945,18.139999389648438,11.481809875188905,15.493135855648614,15.769219114351388,14.729846755188905,14.368502900094452,0.06651298729504682,3.700000047683716,0.0,5724.0,2556.0,1.0,0.0,0.0,,,,,
pylon_camera_1771858477462533770.png,1771858477462533770,1771858477.462534,42.3008745945487,-83.6984209194612,237.32655334472656,-0.009812000560963263,-0.999626832443859,-0.015805286165662034,-0.020002835610743706,-0.05291000000000001,-0.034640000000000004,0.0374,-2.4376,11.4135,-15.8704,6.705456222460918,14.999703242271726,16.84000015258789,18.34000015258789,18.43000030517578,18.010000228881836,13.674235388702774,14.892249218702775,14.965330172405547,14.624286238054161,14.539025254466315,0.03071247346461775,4.800000190734863,0.0,5732.0,2716.0,1.0,0.0,0.0,,,,,
pylon_camera_1771858477513573109.png,1771858477513573109,1771858477.5135732,42.30087462264682,-83.69842415484274,237.32484436035156,-0.009524614728258385,-0.9996381846853581,-0.015252854224170487,-0.020003296509740254,-0.06015000000000001,-0.07899,0.00204,-5.7499,-0.2227,-7.8708,6.580181208357417,14.719470552223042,17.829999923706055,16.420000076293945,18.09000015258789,16.889999389648438,14.478124330648614,13.333191454351388,14.689246913702775,13.714835230188905,14.05384948222292,0.045220449175707216,6.0,0.0,5732.0,2620.0,1.0,0.0,0.0,,,,,
pylon_camera_1771858477563271928.png,1771858477563271928,1771858477.563272,42.30087463419486,-83.6984288850563,237.32327270507812,-0.008861703950063138,-0.9996363242780888,-0.014759983629965695,-0.02075649946730244,0.03875,-0.07571000000000001,-0.057460000000000004,-1.1754,1.7336,-9.0714,6.483337204499839,14.50283632623387,14.299999237060547,17.649999618530273,16.619998931884766,17.969999313354492,11.61173122648613,14.331962423243066,13.495592369080581,14.591805125837517,13.507772786161825,0.06861165069291285,6.300000190734863,0.0,5732.0,2860.0,1.0,0.0,0.0,,,,,
pylon_camera_1771858477614268450.png,1771858477614268450,1771858477.6142683,42.30087463319613,-83.69843196440661,237.32261657714844,-0.008040302944367639,-0.9996064603889854,-0.015728856394090673,-0.021791763437153756,-0.08084000000000001,-0.05600000000000001,-0.038290000000000005,-1.4278,1.3628,-9.227500000000001,6.280627368691689,14.049386586121187,17.139999389648438,17.18000030517578,15.519999504089355,17.709999084472656,13.917837535188903,13.950318647405549,12.602382691715986,14.380682542783356,13.71280535427345,0.02395700550942437,6.900000095367432,0.0,5732.0,2672.0,1.0,0.0,0.0,,,,,
pylon_camera_1771858477664048029.png,1771858477664048029,1771858477.6640482,42.300874626094,-83.69843648626633,237.32174682617188,-0.007277990548175184,-0.999590865237461,-0.015965534062799325,-0.022588375539077176,-0.04526,-0.007040000000000001,-0.026660000000000007,-3.4604000000000004,-1.4805000000000001,-9.2127,6.120760339394912,13.691773633606056,16.579999923706055,16.69999885559082,15.819999694824219,17.239999771118164,13.463112805648613,13.560553044729195,12.845985612594452,13.999038766945839,13.467172557479525,0.016404089209834286,6.900000095367432,0.0,5732.0,3048.0,1.0,0.0,0.0,,,,,
pylon_camera_1771858477715298115.png,1771858477715298115,1771858477.715298,42.30087462489923,-83.69843943371505,237.32131958007812,-0.006419726492572442,-0.9995771361653853,-0.016423405964104548,-0.023121585233397572,-0.007060000000000001,-0.020020000000000003,-0.03912000000000001,-3.6602,-0.7077,-10.1102,5.954383157218007,13.31959785970725,16.0,15.84999942779541,14.789999961853027,16.60999870300293,12.99214752,12.870345672364598,12.009616332824306,13.487472091026422,12.83989540405383,0.036014785183909596,6.300000190734863,0.0,5604.0,3216.0,1.0,0.0,0.0,,,,,
pylon_camera_1771858477765356281.png,1771858477765356281,1771858477.7653563,42.300874612890496,-83.6984437169046,237.31983947753906,-0.005577441608118738,-0.9995760414736479,-0.016328165753276922,-0.0234525150061489,0.026070000000000003,-0.025700000000000004,-0.04028,-3.6700000000000004,0.8550000000000001,-10.098,5.775810340096244,12.920141182174893,13.710000038146973,14.549999237060547,14.1899995803833,15.34999942779541,11.132646437175694,11.81473353148613,11.522410491067372,12.464341062364598,11.733532880523448,0.09184174421317731,6.099999904632568,0.0,5544.0,3572.0,1.0,0.0,0.0,,,,,
pylon_camera_1771858477825067505.png,1771858477825067505,1771858477.8250675,42.30087458938986,-83.69844784723507,237.31759643554688,-0.00469645645008171,-0.9995916983036064,-0.015098904501264152,-0.023799223982859167,0.02142,-0.0202,-0.030370000000000005,-4.3607000000000005,-0.6778000000000001,-8.5465,5.569778880193378,12.459261168259776,15.229999542236328,12.90999984741211,13.50999927520752,14.289999961853027,12.36690004889168,10.483038906297226,10.970243973661823,11.603611722824308,11.35594866291876,0.08855360606387538,6.0,0.0,5544.0,3312.0,1.0,0.0,0.0,,,,,
pylon_camera_1771858477875168442.png,1771858477875168442,1771858477.8751686,42.300874555416556,-83.69845051405115,237.3147735595703,-0.004137182830358521,-0.9995975787402878,-0.015055834128296842,-0.023683035140869873,0.011020000000000002,0.012230000000000001,-0.02059,-3.6163000000000003,1.3925,-9.3612,5.393346693041235,12.064592951531662,14.359999656677246,10.760000228881836,11.239999771118164,13.949999809265137,11.66045212041876,8.737219393054161,9.12698344694584,11.327528464121533,10.213045856135073,0.15346950393063408,5.400000095367432,0.0,5496.0,3096.0,1.0,0.0,0.0,,,,,
pylon_camera_1771858477925942828.png,1771858477925942828,1771858477.925943,42.30087450630815,-83.69845439073798,237.31126403808594,-0.0036418180683748806,-0.9995937654844473,-0.015345002239162086,-0.02373967295606398,-0.03413000000000001,-0.006220000000000002,-0.016510000000000004,-3.3948,0.2106,-9.868,5.2108906599520735,11.656449752873192,12.420000076293945,14.809999465942383,14.109999656677246,14.319999694824219,10.085154574351387,12.025856114540291,11.457449815418759,11.627971782594452,11.299108071726222,0.030656133618976816,2.700000047683716,0.0,5356.0,2920.0,1.0,0.0,0.0,,,,,
pylon_camera_1771858477967646328.png,1771858477967646328,1771858477.9676461,42.300874473909225,-83.69845689529106,237.30950927734375,-0.003123749774805396,-0.9995884718415178,-0.015699667156707828,-0.023804402955177422,-0.01617,-0.0009300000000000002,-0.027780000000000006,-4.3665,0.8021,-9.015600000000001,5.110087164016136,11.430958380674255,9.609999656677246,13.519999504089355,13.319999694824219,10.300000190734863,7.803408325418759,10.978364251715986,10.815962562594452,8.363695120878468,9.490357565151916,0.16976711408583336,0.4000000059604645,0.0,5316.0,2836.0,1.0,0.0,0.0,,,,,
pylon_camera_1771858478027291040.png,1771858478027291040,1771858478.027291,42.30087442777039,-83.69846053742343,237.30580139160156,-0.0023485600429696833,-0.9996127652745428,-0.014946861728898288,-0.023353695432709123,0.0024200000000000003,0.041400000000000006,-0.02364,-3.0405,-1.1853,-11.4161,4.903182962643004,10.968126096454641,13.979999542236328,12.5,13.380000114440918,13.34999942779541,11.351888523891677,10.15011525,10.86468345652708,10.840322622364598,10.80175246319584,0.01516882936936519,-2.1000001430511475,0.0,5224.0,2556.0,1.0,0.0,0.0,,,,,
pylon_camera_1771858478077176908.png,1771858478077176908,1771858478.0771768,42.30087440351252,-83.69846289044779,237.30242919921875,-0.0018913071396707284,-0.9996210065247266,-0.014710724459617248,-0.023191827389603004,0.0018800000000000004,-0.05693000000000001,-0.023570000000000004,-3.8834000000000004,-1.8923,-10.2302,4.766139817626475,10.661568803641368,11.989999771118164,10.880000114440918,12.069999694824219,12.789999961853027,9.73599036194584,8.83466040652708,9.800951037594453,10.385597892824308,9.68929992472292,0.09119379116011303,-4.099999904632568,0.0,5184.0,3084.0,1.0,0.0,0.0,,,,,
pylon_camera_1771858478119571903.png,1771858478119571903,1771858478.119572,42.30087436888042,-83.69846517699567,237.2983856201172,-0.0016710994007007043,-0.9996226742118701,-0.015382070120043972,-0.02269600288870723,-0.02619,0.010290000000000002,-0.01623,-1.4541000000000002,1.1127,-9.5479,4.635824930463744,10.370062219951567,11.309999465942383,8.550000190734863,9.5,12.779999732971191,9.18382384454029,6.9426789858784685,7.714087590000001,10.377477614770147,8.554517008797227,0.17507563336132229,-5.900000095367432,0.0,5140.0,2748.0,1.0,0.0,0.0,,,,,
pylon_camera_1771858478181533061.png,1771858478181533061,1771858478.181533,42.30087430946182,-83.69846958979616,237.2901153564453,-0.0013541545882845842,-0.9996167293872265,-0.015286514249133965,-0.02304090008325307,0.02959,0.0038300000000000005,-0.011630000000000001,-4.1952,0.3912,-9.881400000000001,4.454051949602057,9.963446968142826,11.15999984741211,9.819999694824219,12.529999732971191,11.989999771118164,9.062022771297226,7.973930292594452,10.174475309770145,9.73599036194584,9.236604683901916,0.07295088603019804,-8.699999809265137,0.0,4960.0,2896.0,1.0,0.0,0.0,,,,,
