image_filename,timestamp_ns,timestamp_sec,latitude,longitude,altitude,orientation_x,orientation_y,orientation_z,orientation_w,angular_velocity_x,angular_velocity_y,angular_velocity_z,linear_acceleration_x,linear_acceleration_y,linear_acceleration_z,vehicle_speed_mps,vehicle_speed_mph,wheel_speed_fl_rads,wheel_speed_fr_rads,wheel_speed_rl_rads,wheel_speed_rr_rads,wheel_speed_fl_mph,wheel_speed_fr_mph,wheel_speed_rl_mph,wheel_speed_rr_mph,avg_wheel_speed_mph,wheel_slip,steering_angle_deg,throttle_pedal,brake_pedal,brake_torque_actual,abs_active,esc_active,trac_active,marwis_road_condition,marwis_friction,marwis_surface_temp_c,marwis_ice_percent,marwis_water_film_height
pylon_camera_1771860527294390223.png,1771860527294390223,1771860527.2943902,42.30096854964997,-83.69730766290546,238.88844299316406,-0.03837939838188542,-0.9991702951563342,-0.009821115785176485,-0.009449272023969875,0.0027700000000000003,0.004570000000000001,-0.0008800000000000001,1.8445,-0.13040000000000002,-10.2402,1.2711267153285997,2.8434341945871577,3.3499999046325684,3.319999933242798,8.720000267028809,3.2899999618530273,2.7202308095607663,2.6958705561925367,7.080720615229854,2.6715103028243066,3.7920830709518656,0.333627863859337,-1.3000000715255737,28.225000381469727,0.0,200.0,0.0,0.0,0.0,,,,,
pylon_camera_1771860527332021411.png,1771860527332021411,1771860527.3320215,42.30096857696382,-83.69730830767287,238.88809204101562,-0.0383573009976263,-0.9991730085101096,-0.00970473556985851,-0.009372013260393148,0.013480000000000002,-0.00131,-0.005180000000000001,2.7896,0.1375,-9.967500000000001,1.3488596253379659,3.0173180503035097,3.68999981880188,3.609999895095825,7.279999732971191,3.4700000286102295,2.9963138746654563,2.931353199016843,5.911426904770146,2.81767201663177,3.664191498771054,0.21438689514434042,-0.699999988079071,28.30000114440918,0.0,144.0,0.0,0.0,0.0,,,,,
pylon_camera_1771860527380939969.png,1771860527380939969,1771860527.38094,42.3009686087063,-83.69730900352197,238.88821411132812,-0.038302368421103294,-0.999173908130454,-0.00964856182743186,-0.00955694194348997,0.006970000000000001,-0.0122,-0.005730000000000001,2.5544000000000002,0.4459,-10.3681,1.476877274881014,3.3036858512723355,3.859999895095825,3.759999990463257,5.21999979019165,3.9700000286102295,3.1343555040168427,3.0531546594560766,4.238687958033686,3.2236766266317702,3.4124686870345937,0.032927717906459875,0.0,28.149999618530273,0.0,60.0,0.0,0.0,0.0,,,,,
pylon_camera_1771860527430904265.png,1771860527430904265,1771860527.4309044,42.30096865612601,-83.6973101312625,238.88937377929688,-0.03823259484887048,-0.9991702425423328,-0.009757057285325983,-0.010094302459748697,-0.00253,-0.018670000000000003,0.0013200000000000002,1.6743000000000001,1.3051000000000001,-10.2649,1.5927023828029547,3.562779668187242,4.210000038146973,4.210000038146973,4.130000114440918,4.019999980926514,3.4185588471756936,3.4185588471756936,3.3535981715270804,3.2642770489121533,3.3637482286976548,0.0558640887245366,0.10000000149011612,28.200000762939453,0.0,0.0,0.0,0.0,0.0,,,,,
pylon_camera_1771860527481695326.png,1771860527481695326,1771860527.4816952,42.30096868596561,-83.69731093503788,238.89047241210938,-0.03816103052211012,-0.9991671635936921,-0.00980129174687565,-0.010613652798129793,-0.00591,-0.025310000000000003,0.0005400000000000001,1.9367,0.8697,-9.8558,1.7107782330725207,3.826908260689245,4.549999713897705,4.509999752044678,4.519999980926514,4.619999885559082,3.694641718682299,3.6621613808579925,3.6702816589121534,3.7514825034729196,3.6946418154813414,0.034562219995334195,0.6000000238418579,28.125,0.0,0.0,0.0,0.0,0.0,,,,,
pylon_camera_1771860527532063073.png,1771860527532063073,1771860527.532063,42.30096873494655,-83.69731223203569,238.8922119140625,-0.03814545797738211,-0.9991655589477084,-0.009589717590707609,-0.01100668728272578,0.0032700000000000003,-0.019500000000000003,0.0024600000000000004,2.5749,0.1278,-9.7591,1.832272813266036,4.098684346907326,4.849999904632568,4.849999904632568,4.900000095367432,4.949999809265137,3.9382446395607666,3.9382446395607666,3.978845255439234,4.019445484121532,3.9686950046705753,0.03171489464291996,1.2000000476837158,28.200000762939453,0.0,0.0,0.0,0.0,0.0,,,,,
pylon_camera_1771860527583542600.png,1771860527583542600,1771860527.5835426,42.30096877186719,-83.69731315931269,238.8928680419922,-0.038213723378011266,-0.9991624904393515,-0.00941193942997103,-0.011200198247723735,0.006120000000000001,-0.007790000000000001,-0.0014600000000000004,2.5985,0.048,-9.5135,1.951134760908396,4.364571392066428,5.539999961853027,5.329999923706055,5.339999675750732,5.269999980926514,4.498531047824307,4.328009080648613,4.336128971506605,4.279288573912154,4.36048941847292,0.000935251878552874,2.0,28.075000762939453,0.0,0.0,0.0,0.0,0.0,,,,,
pylon_camera_1771860527635132119.png,1771860527635132119,1771860527.635132,42.30096883428668,-83.69731463145804,238.89320373535156,-0.038098389375593456,-0.9991648425262372,-0.009408601239676875,-0.01138456890788812,-0.018400000000000003,-0.010650000000000001,-0.005280000000000001,2.1270000000000002,0.26030000000000003,-9.918800000000001,2.0960478675259253,4.688733316783444,6.639999866485596,5.639999866485596,5.679999828338623,5.62999963760376,5.391741112385073,4.579731892385073,4.612212230209379,4.571611614330912,4.78882421232761,0.02134710779687293,3.5,27.975000381469727,0.0,0.0,0.0,0.0,0.0,,,,,
pylon_camera_1771860527683821841.png,1771860527683821841,1771860527.683822,42.30096887935907,-83.69731567435065,238.89358520507812,-0.03784542519585843,-0.9991707545084192,-0.009507775026608952,-0.01162451465069535,-0.0055000000000000005,-0.010220000000000002,-0.010510000000000002,2.1574,-0.4435,-9.782300000000001,2.187401058479129,4.893084923754303,8.779999732971191,5.920000076293945,5.989999771118164,6.059999942779541,7.129440734770146,4.807094644351388,4.863935041945839,4.92077582673646,5.430311561950958,0.10979303375434954,4.700000286102295,28.25,0.0,0.0,0.0,0.0,0.0,,,,,
pylon_camera_1771860527733770550.png,1771860527733770550,1771860527.7337706,42.3009689480077,-83.69731731183919,238.89437866210938,-0.03738065370978105,-0.9991802589732787,-0.009815159831137616,-0.012048213303655606,-0.011830000000000002,-0.02401,-0.019930000000000003,1.9424000000000001,-0.5858,-10.1681,2.294056919806706,5.131667686192412,12.889999389648438,6.359999656677246,6.259999752044678,6.289999961853027,10.466798350188904,5.164378360418758,5.083177515857992,5.107537962824306,6.4554730473224895,0.25796786582498143,5.400000095367432,28.0,0.0,0.0,0.0,0.0,0.0,,,,,
pylon_camera_1771860527784727462.png,1771860527784727462,1771860527.7847276,42.300968992985815,-83.69731845047328,238.895263671875,-0.03692688331472899,-0.999190332857688,-0.009968469700384053,-0.0124785265250174,0.0024100000000000002,-0.01692,-0.00884,2.1019,0.2452,-10.2133,2.424452463646774,5.423354694030015,16.170000076293945,6.579999923706055,6.609999656677246,6.699999809265137,13.130189149351388,5.343020605648613,5.367380665418758,5.440461619121533,7.320263009885072,0.349766597036915,5.900000095367432,28.149999618530273,0.0,0.0,0.0,0.0,0.0,,,,,
pylon_camera_1771860527834495757.png,1771860527834495757,1771860527.8344958,42.30096906053861,-83.69732025366454,238.89739990234375,-0.03678191669849201,-0.9991904347995777,-0.0096991747882255,-0.013095480802311377,0.014450000000000003,-0.03521,-0.0015900000000000003,1.5171000000000001,0.12610000000000002,-9.3773,2.5205423029528915,5.638301899167441,19.229999542236328,6.809999942779541,7.099999904632568,6.899999618530273,15.614936928891678,5.529782741736461,5.765265384560767,5.602863308243065,8.128212090857993,0.4416063978514905,6.400000095367432,27.92500114440918,0.0,0.0,0.0,0.0,0.0,,,,,
pylon_camera_1771860527885631866.png,1771860527885631866,1771860527.8856318,42.30096910688997,-83.69732151543681,238.89859008789062,-0.03679725320768751,-0.9991818496098283,-0.009272161478820772,-0.013986443013239163,-0.0007400000000000001,-0.015930000000000003,0.008610000000000001,1.374,-0.12940000000000002,-9.6236,2.6555203644933605,5.940239724149778,20.619998931884766,7.179999828338623,7.25,7.839999675750732,16.743629249080584,5.83022606020938,5.887066845,6.366152021506606,8.706768543949142,0.46572679694258207,6.599999904632568,27.42500114440918,0.0,44.0,0.0,0.0,0.0,,,,,
pylon_camera_1771860527935611558.png,1771860527935611558,1771860527.9356117,42.30096917198869,-83.69732348108045,238.8997802734375,-0.036896894151170145,-0.9991679221392138,-0.00920862659711056,-0.01474054836830869,0.0008800000000000001,-0.025030000000000004,0.0019700000000000004,0.9812000000000001,0.1708,-10.1639,2.7513170645781075,6.154531194437352,18.56999969482422,7.519999980926514,7.819999694824219,8.899999618530273,15.079010967594453,6.106309318912153,6.349911852594452,7.226881748243065,8.69052847183603,0.41205368813319004,6.5,27.75,0.0,436.0,0.0,0.0,0.0,,,,,
pylon_camera_1771860527986528163.png,1771860527986528163,1771860527.9865282,42.30096922046659,-83.69732484062438,238.90109252929688,-0.03686625850621761,-0.9991634730192496,-0.008983012888431532,-0.015249217924543335,0.016370000000000003,-0.02355,-0.00825,1.2950000000000002,0.06380000000000001,-9.8985,2.8498486542409336,6.374940448617714,14.869999885559082,7.819999694824219,10.219999313354492,8.609999656677246,12.07457700847292,6.349911852594452,8.298733670837517,6.9913991054187585,8.428655409330911,0.3221543757571111,5.900000095367432,27.75,0.0,412.0,0.0,0.0,0.0,,,,,
pylon_camera_1771860528036563936.png,1771860528036563936,1771860528.0365639,42.30096930053618,-83.6973269475776,238.90419006347656,-0.03666324727604264,-0.9991607181583682,-0.009057278327847335,-0.015862890585324224,0.01208,-0.03465000000000001,-0.013950000000000002,2.1626000000000003,0.6017,-10.1709,2.9625834130431845,6.627121339972821,9.989999771118164,8.929999351501465,12.75999927520752,9.679999351501465,8.11197192194584,7.25124180801321,10.361237058661825,7.8602487230132105,8.396174877908521,0.2669414738591394,5.200000286102295,27.67500114440918,0.0,340.0,0.0,0.0,0.0,,,,,
pylon_camera_1771860528087579563.png,1771860528087579563,1771860528.0875797,42.30096935395478,-83.6973283984919,238.9064483642578,-0.03622563256230471,-0.9991611526111559,-0.00942526512582439,-0.016609004651542678,-0.007100000000000001,-0.031020000000000002,-0.024620000000000003,2.5167,1.5564,-9.9895,3.066911992378407,6.860498112230955,8.420000076293945,11.010000228881836,14.9399995803833,8.460000038146973,6.837117694351387,8.940221698054161,12.131417406067373,6.869598032175693,8.694588707662154,0.26734073319856566,4.5,27.67500114440918,0.0,120.0,0.0,0.0,0.0,,,,,
pylon_camera_1771860528137522668.png,1771860528137522668,1771860528.1375227,42.30096943948709,-83.69733065535783,238.90966796875,-0.035800806884841274,-0.9991609136707377,-0.00960926571038077,-0.017419323510352382,-0.04275000000000001,-0.014310000000000002,-0.015040000000000003,1.7653,-0.7692,-8.696900000000001,3.1392710787853453,7.022361046978091,8.760000228881836,13.649999618530273,15.25,8.75,7.113200953054162,11.083925543243065,12.383140605000001,7.105080675000001,9.421336944074307,0.341619560863872,3.9000000953674316,27.600000381469727,0.0,120.0,0.0,0.0,0.0,,,,,
pylon_camera_1771860528188479673.png,1771860528188479673,1771860528.1884797,42.30096949107175,-83.6973322043121,238.91062927246094,-0.03549631582013807,-0.9991616567893434,-0.009991474328747146,-0.017781046254627397,-0.049300000000000004,0.0028000000000000004,-0.009040000000000001,0.9591000000000001,-1.4913,-9.3038,3.2335483067595274,7.233253549322658,8.949999809265137,16.219999313354492,13.679999351501465,9.09999942779541,7.267482364121533,13.170788990837517,11.108285603013211,7.389283437364598,9.733960098834215,0.34572361281953545,3.799999952316284,27.625,0.0,212.0,0.0,0.0,0.0,,,,,
pylon_camera_1771860528238029752.png,1771860528238029752,1771860528.2380297,42.3009695707191,-83.69733459745517,238.90927124023438,-0.03526386809096366,-0.9991681773578616,-0.010329049613549426,-0.017683995496291686,-0.0077800000000000005,0.014260000000000002,-0.006660000000000001,1.4427,-1.6163,-9.802900000000001,3.35273725504899,7.499872075309288,9.059999465942383,17.399999618530273,10.1899995803833,9.559999465942383,7.356803099540292,14.128960118243066,8.274373611067372,7.762807709540291,9.380736134597756,0.25078615213725536,3.9000000953674316,27.524999618530273,0.0,180.0,0.0,0.0,0.0,,,,,
pylon_camera_1771860528289169488.png,1771860528289169488,1771860528.2891693,42.300969630721,-83.69733625973679,238.90744018554688,-0.034945577335395106,-0.9991692282561538,-0.010934252655080861,-0.017891395964891615,-0.00638,-0.021180000000000004,-0.02161,2.4166000000000003,-2.1550000000000002,-10.352,3.49220335466054,7.811849372174349,9.5,15.59999942779541,9.460000038146973,9.65999984741211,7.714087590000001,12.667343367364598,7.681607252175693,7.844008941297226,8.97676178770938,0.14912120805662565,4.300000190734863,27.399999618530273,0.0,0.0,0.0,0.0,0.0,,,,,
pylon_camera_1771860528339373192.png,1771860528339373192,1771860528.3393734,42.30096971675334,-83.69733883441192,238.90579223632812,-0.034676164620792704,-0.9991610095634695,-0.011451611598235443,-0.018539179245671982,-0.005000000000000001,-0.07173,-0.007630000000000001,2.3358000000000003,1.0722,-12.231200000000001,3.610486797812889,8.076442337499564,9.809999465942383,12.369999885559082,9.90999984741211,9.859999656677246,7.965810014540291,10.04455395847292,8.047011246297227,8.00641063041876,8.5159464624323,0.05441803538819103,4.5,27.524999618530273,0.0,0.0,0.0,0.0,0.0,,,,,
pylon_camera_1771860528390574584.png,1771860528390574584,1771860528.3905747,42.30096981972421,-83.69734150350985,238.90664672851562,-0.03447824228223967,-0.9991447107775656,-0.011271539490196242,-0.019850696004496453,0.024940000000000004,-0.05782000000000001,-0.007170000000000001,2.0553,2.3306,-8.7921,3.7211626051075606,8.324017477869306,10.069999694824219,10.039999961853027,10.149999618530273,10.239999771118164,8.176932597594453,8.152572537824307,8.241893273243065,8.31497422694584,8.221593158901916,0.012304673703497297,4.599999904632568,27.600000381469727,0.0,0.0,0.0,0.0,0.0,,,,,
pylon_camera_1771860528441056458.png,1771860528441056458,1771860528.4410565,42.30096988443868,-83.69734333264928,238.90835571289062,-0.034317127741735176,-0.9991221723297231,-0.010948347204862176,-0.021385817641004355,0.02476,-0.03735,-0.006060000000000001,1.6994,1.7482,-9.5771,3.8050963892984844,8.511772317077352,10.369999885559082,10.329999923706055,10.40999984741211,10.469999313354492,8.42053551847292,8.388055180648614,8.453015856297226,8.501735975837518,8.44083563281407,0.008333949924971601,4.700000286102295,27.67500114440918,0.0,0.0,0.0,0.0,0.0,,,,,
pylon_camera_1771860528491400660.png,1771860528491400660,1771860528.4914007,42.30096999880438,-83.69734614009688,238.90899658203125,-0.03413866611666283,-0.999110722116408,-0.010598101431942765,-0.02236060539974836,0.0004900000000000001,-0.03645000000000001,-0.00783,1.4311,0.4148,-9.277800000000001,3.897431328040097,8.718320034946014,10.65999984741211,10.609999656677246,10.779999732971191,10.699999809265137,8.656018161297226,8.615417545418758,8.753459174770146,8.688498499121533,8.678348345151916,0.004584792670362923,4.700000286102295,27.850000381469727,0.0,28.0,0.0,0.0,0.0,,,,,
pylon_camera_1771860528541422709.png,1771860528541422709,1771860528.5414226,42.300970077405715,-83.69734805463999,238.907470703125,-0.0339380106894408,-0.999114680315488,-0.010613818380195511,-0.02248141160860907,-0.009170000000000001,-0.013830000000000002,-0.00846,1.6166,0.8731,-9.2912,3.988783449861909,8.9226692503341,11.130000114440918,10.859999656677246,11.010000228881836,11.010000228881836,9.037662711527082,8.81841985041876,8.940221698054161,8.940221698054161,8.93413148951354,0.0012846199783782602,4.5,27.475000381469727,0.0,0.0,0.0,0.0,0.0,,,,,
pylon_camera_1771860528592670532.png,1771860528592670532,1771860528.5926704,42.30097018584954,-83.69735098947378,238.9027862548828,-0.03372827353849117,-0.9991235803224274,-0.010838403045620976,-0.022293582646747617,-0.018800000000000004,0.016870000000000003,-0.014240000000000001,1.992,-0.3861,-9.3468,4.075501418129271,9.116652142270091,11.199999809265137,11.5,11.239999771118164,11.449999809265137,9.094503109121534,9.33810603,9.12698344694584,9.297505414121533,9.214274500047226,0.01070813674292797,4.400000095367432,27.75,0.0,0.0,0.0,0.0,0.0,,,,,
pylon_camera_1771860528643283421.png,1771860528643283421,1771860528.6432834,42.30097024968883,-83.69735299699501,238.89906311035156,-0.03347318700466323,-0.9991287728220651,-0.01115661278763067,-0.022288361580243582,-0.029270000000000004,-0.007480000000000001,-0.010360000000000001,1.3574000000000002,-2.2858,-10.4611,4.174773091614615,9.338716919556397,11.5,11.779999732971191,11.559999465942383,11.609999656677246,9.33810603,9.565468394770146,9.38682614954029,9.427426765418758,9.4294568349323,0.009716529171783976,4.099999904632568,27.600000381469727,0.0,0.0,0.0,0.0,0.0,,,,,
pylon_camera_1771860528695834023.png,1771860528695834023,1771860528.6958342,42.30097035030978,-83.6973560767676,238.8942108154297,-0.033444350514682086,-0.9991156353211927,-0.011475201971652756,-0.022753953834229557,0.0007300000000000002,-0.024120000000000006,0.007450000000000001,0.6372,0.7207,-9.562000000000001,4.291083829688169,9.598897061982655,11.989999771118164,11.789999961853027,11.920000076293945,11.929999351501465,9.73599036194584,9.573588672824306,9.679149964351387,9.687269468013211,9.668999616783687,0.007303188517218291,4.200000286102295,27.5,0.0,0.0,0.0,0.0,0.0,,,,,
pylon_camera_1771860528743546075.png,1771860528743546075,1771860528.743546,42.30097042096642,-83.69735818239181,238.8912353515625,-0.03328159955967336,-0.9991139239495108,-0.011051783620025695,-0.023271445588456088,0.021530000000000004,-0.046990000000000004,-0.010750000000000001,1.4677,-0.6158,-10.6204,4.393727772255558,9.82850540286935,12.069999694824219,12.130000114440918,12.09999942779541,12.139999389648438,9.800951037594453,9.84967193152708,9.825311097364597,9.857791435188904,9.833431375418758,0.0005011924344031077,4.400000095367432,27.55000114440918,0.0,0.0,0.0,0.0,0.0,,,,,
pylon_camera_1771860528794767853.png,1771860528794767853,1771860528.7947679,42.30097053236459,-83.69736141445796,238.88780212402344,-0.03311453967327327,-0.9990864359826581,-0.01120353078951479,-0.0245805125159281,-0.00892,-0.03313000000000001,-0.00676,0.8962,0.233,-10.4567,4.495260368347999,10.055627728372373,12.239999771118164,12.399999618530273,12.550000190734863,12.369999885559082,9.93899266694584,10.068914018243065,10.190715865878467,10.04455395847292,10.060794127385073,0.0005137818495529741,4.599999904632568,27.850000381469727,0.0,0.0,0.0,0.0,0.0,,,,,
pylon_camera_1771860528844669715.png,1771860528844669715,1771860528.8446696,42.30097061417972,-83.6973636021905,238.88623046875,-0.03282277873634015,-0.9990704821378844,-0.011747221249374397,-0.025354283853397004,-0.032670000000000005,-0.0020800000000000003,-0.012540000000000003,0.6447,0.11810000000000001,-8.9943,4.5623285916548895,10.20565531981649,12.609999656677246,12.829999923706055,12.619999885559082,12.799999237060547,10.23943598541876,10.418078230648614,10.24755626347292,10.39371739648613,10.324696969006606,0.011664282739293666,4.900000095367432,27.774999618530273,0.0,0.0,0.0,0.0,0.0,,,,,
pylon_camera_1771860528895802218.png,1771860528895802218,1771860528.895802,42.30097072934078,-83.69736693497259,238.8825225830078,-0.032502576531370286,-0.999078600294871,-0.01246532964931538,-0.025102758979793777,-0.046520000000000006,0.02731,-0.01012,0.8356,0.3019,-10.4147,4.635202383935837,10.368669620721432,12.9399995803833,12.859999656677246,12.859999656677246,13.00999927520752,10.507398966067372,10.442438290418758,10.442438290418758,10.564239363661825,10.48912872764168,0.01161760489306302,5.099999904632568,27.975000381469727,0.0,0.0,0.0,0.0,0.0,,,,,
pylon_camera_1771860528945377643.png,1771860528945377643,1771860528.9453776,42.30097080323149,-83.69736920162156,238.88015747070312,-0.032278116838473814,-0.999096874449187,-0.012636931777599841,-0.024573697208101812,-0.017040000000000003,0.027940000000000003,-0.0007300000000000002,1.2117,0.31570000000000004,-9.5924,4.726750635805915,10.573457567259684,13.219999313354492,13.229999542236328,13.279999732971191,13.09000015258789,10.734761330837516,10.742881608891679,10.783482224770147,10.629200813702774,10.722581494550528,0.014103610511721456,5.599999904632568,27.850000381469727,0.0,0.0,0.0,0.0,0.0,,,,,
pylon_camera_1771860528996159841.png,1771860528996159841,1771860528.9961598,42.300970919403994,-83.69737265937908,238.87644958496094,-0.032060537227801555,-0.9991169348351456,-0.012505225585543556,-0.024105845999319385,0.004730000000000001,0.03266000000000001,-0.00415,1.5918,-0.1184,-9.873800000000001,4.820126468455045,10.782333702345829,13.50999927520752,13.420000076293945,13.5,13.460000038146973,10.970243973661823,10.897163794351389,10.962124470000001,10.929644132175694,10.939794092547228,0.01460355378976457,6.599999904632568,27.600000381469727,0.0,0.0,0.0,0.0,0.0,,,,,
pylon_camera_1771860529045962494.png,1771860529045962494,1771860529.0459626,42.30097099574322,-83.69737500811846,238.87359619140625,-0.03181410642942256,-0.9991290936865234,-0.012561360270150757,-0.023898305576072244,0.012900000000000002,0.0035100000000000005,-0.027890000000000005,1.6284,-0.4384,-8.2006,4.912540254803993,10.989057797581244,13.729999542236328,13.670000076293945,13.609999656677246,13.699999809265137,11.148886218891679,11.100166099351387,11.051445205418759,11.124526159121533,11.10625592069584,0.010664983775077784,7.800000190734863,27.5,0.0,0.0,0.0,0.0,0.0,,,,,
pylon_camera_1771860529097580461.png,1771860529097580461,1771860529.0975804,42.30097112087646,-83.69737859740886,238.8671417236328,-0.03143494805629543,-0.9991495516960485,-0.012721052695574853,-0.023456176257007615,0.009670000000000002,0.02142,-0.024620000000000003,0.9173,0.26890000000000003,-9.561,4.995487283881734,11.174605324806407,13.869999885559082,14.25,13.84999942779541,14.0,11.26256778847292,11.571131385000001,11.246327232364598,11.368129080000001,11.362038871459381,0.016773169271302308,8.600000381469727,27.75,0.0,0.0,0.0,0.0,0.0,,,,,
pylon_camera_1771860529147251534.png,1771860529147251534,1771860529.1472514,42.30097121532923,-83.69738103029476,238.86155700683594,-0.030871541023653526,-0.9991834316970915,-0.012446802425724006,-0.022901853336000987,0.02772,0.027660000000000004,-0.028490000000000005,0.5048,-0.1486,-9.7447,5.079586609668149,11.36273047063107,14.09999942779541,14.139999389648438,14.170000076293945,14.069999694824219,11.449329537364598,11.481809875188905,11.506170709351387,11.424969477594452,11.465569899874835,0.009050591273776273,9.0,27.825000762939453,0.0,0.0,0.0,0.0,0.0,,,,,
pylon_camera_1771860529198756412.png,1771860529198756412,1771860529.1987565,42.300971347686136,-83.69738474589656,238.85313415527344,-0.030356806890401267,-0.9992122976171571,-0.01231984780169115,-0.02239352397912844,0.00248,0.029470000000000003,-0.018410000000000003,0.8419000000000001,0.3466,-8.591000000000001,5.166886390895695,11.558014843250218,14.139999389648438,14.4399995803833,14.539999961853027,14.210000038146973,11.481809875188905,11.725412796067372,11.806614027824308,11.538651047175694,11.638121936564069,0.006930869565428241,9.100000381469727,27.850000381469727,0.0,0.0,0.0,0.0,0.0,,,,,
pylon_camera_1771860529248007143.png,1771860529248007143,1771860529.248007,42.300971425264926,-83.69738726453078,238.8474578857422,-0.029971772390497753,-0.9992345103437346,-0.01276484543119297,-0.02165975343828146,-0.012950000000000003,0.03780000000000001,-0.0008000000000000001,2.3077,2.1239,-10.743500000000001,5.25315043605597,11.750982336431042,14.679999351501465,14.719999313354492,14.65999984741211,14.589999198913574,11.92029482301321,11.952775160837517,11.904055041297227,11.847213869310437,11.906084723614597,0.013199099678900783,9.300000190734863,27.850000381469727,0.0,0.0,0.0,0.0,0.0,,,,,
pylon_camera_1771860529299109793.png,1771860529299109793,1771860529.29911,42.300971547226204,-83.69739110236418,238.8402099609375,-0.02963587468326173,-0.9992543264052773,-0.012637148585585602,-0.021279299042014324,0.0027800000000000004,0.0159,-0.00768,2.2884,2.2522,-10.5168,5.3446268875851,11.955609669914615,14.929999351501465,14.9399995803833,14.899999618530273,15.0,12.123297128013212,12.131417406067373,12.098937068243064,12.180138300000001,12.133447475580914,0.014874842067971968,9.40000057220459,27.700000762939453,0.0,0.0,0.0,0.0,0.0,,,,,
pylon_camera_1771860529349283312.png,1771860529349283312,1771860529.3492832,42.30097162806893,-83.6973937009347,238.83570861816406,-0.029209001263798606,-0.9992752894078434,-0.011808877187185133,-0.021360726664146738,0.01666,-0.014920000000000001,-0.006060000000000001,0.9389000000000001,0.8651000000000001,-9.047500000000001,5.4326835030146245,12.152587035233536,15.0,15.019999504089355,15.039999961853027,15.139999389648438,12.180138300000001,12.196378081715984,12.212618637824306,12.293819095188905,12.2207385286823,0.005607982337520049,9.40000057220459,27.649999618530273,0.0,0.0,0.0,0.0,0.0,,,,,
pylon_camera_1771860529400705823.png,1771860529400705823,1771860529.4007058,42.30097175335804,-83.69739766556529,238.8272247314453,-0.028663771761907375,-0.9993053839412183,-0.011204230506450943,-0.021014353029161055,0.00572,0.0035300000000000006,-0.024310000000000002,0.8117000000000001,-1.4354,-11.0478,5.515400688653373,12.337620416476277,15.380000114440918,15.380000114440918,15.34999942779541,15.389999389648438,12.48870189652708,12.48870189652708,12.464341062364598,12.496821400188903,12.484641563901917,0.011916491386726472,9.5,27.55000114440918,0.0,0.0,0.0,0.0,0.0,,,,,
pylon_camera_1771860529450435933.png,1771860529450435933,1771860529.4504359,42.300971872185315,-83.6974016981623,238.8194122314453,-0.02817673083504374,-0.9993194842544657,-0.011552544823296564,-0.020812951182942907,-0.044930000000000005,0.0037400000000000007,-0.012830000000000001,-0.22260000000000002,-1.1648,-12.344700000000001,5.57880435617747,12.479450616507629,15.579999923706055,15.739999771118164,15.479999542236328,15.710000038146973,12.651103585648613,12.781024936945839,12.56990235389168,12.756664877175693,12.689673938415456,0.016845559020823186,9.5,27.55000114440918,0.0,0.0,0.0,0.0,0.0,,,,,
pylon_camera_1771860529501483878.png,1771860529501483878,1771860529.5014837,42.30097194795063,-83.69740442103786,238.8183135986328,-0.027734213836865362,-0.999321900128251,-0.011937591356681793,-0.02107242794539947,-0.01169,-0.017910000000000002,-0.017610000000000004,0.2777,-1.5106000000000002,-10.9687,5.663931096265445,12.669874026480025,15.829999923706055,15.880000114440918,15.809999465942383,15.839999198913574,12.854105890648613,12.894706506527081,12.837865334540291,12.862225394310435,12.862225781506606,0.015181820641986282,9.5,28.100000381469727,0.0,0.0,0.0,0.0,0.0,,,,,
pylon_camera_1771860529551330466.png,1771860529551330466,1771860529.5513306,42.30097205831287,-83.69740856341322,238.81837463378906,-0.02724812870904586,-0.9993205613655116,-0.012204477664300384,-0.021610317880947718,0.01114,-0.045610000000000005,-0.024320000000000005,0.9272,-0.34550000000000003,-10.7414,5.750191743430291,12.862833918548956,16.020000457763672,16.03999900817871,15.889999389648438,16.03999900817871,13.008388076108323,13.02462708343197,12.902826010188903,13.02462708343197,12.990117063290292,0.009895420056523151,9.5,28.100000381469727,0.0,0.0,0.0,0.0,0.0,,,,,
pylon_camera_1771860529603100745.png,1771860529603100745,1771860529.6031008,42.30097212869015,-83.69741136594037,238.81800842285156,-0.02673654004794984,-0.9993286655687461,-0.012234574209325215,-0.021856138560369952,-0.008820000000000001,-0.013310000000000002,-0.018730000000000004,0.8734000000000001,0.3704,-9.0142,5.813345232980424,13.00410448546323,15.979999542236328,16.31999969482422,16.279998779296875,16.350000381469727,12.975906963891678,13.251990222594452,13.219509110377807,13.276351056756935,13.180939338405219,0.013598387581372108,9.600000381469727,27.825000762939453,0.0,0.0,0.0,0.0,0.0,,,,,
pylon_camera_1771860529655122056.png,1771860529655122056,1771860529.6551223,42.30097223136129,-83.69741561310316,238.81594848632812,-0.02615257168879398,-0.9993416381082856,-0.012563499370613771,-0.02178283316456872,-0.019290000000000005,0.0073500000000000015,-0.01821,1.466,-0.3835,-8.924000000000001,5.906235543594085,13.211894536887353,16.279998779296875,16.53999900817871,16.420000076293945,16.510000228881836,13.219509110377807,13.43063169343197,13.333191454351388,13.406272408054162,13.347401166553832,0.010256411696910427,9.600000381469727,27.42500114440918,0.0,0.0,0.0,0.0,0.0,,,,,
pylon_camera_1771860529705516207.png,1771860529705516207,1771860529.7055163,42.30097229920438,-83.69741848629319,238.81301879882812,-0.025683791874984985,-0.999342539107084,-0.01288982102109721,-0.022106218129130186,-0.021530000000000004,-0.022100000000000005,-0.012540000000000003,1.4486,0.32780000000000004,-10.182500000000001,5.996275382999385,13.413308255246646,16.43000030517578,16.600000381469727,16.600000381469727,16.619998931884766,13.341311732405547,13.479353361756935,13.479353361756935,13.495592369080581,13.44890270625,0.0026536668155248432,9.40000057220459,27.075000762939453,0.0,0.0,0.0,0.0,0.0,,,,,
pylon_camera_1771860529753287890.png,1771860529753287890,1771860529.753288,42.30097240451732,-83.69742285331398,238.80709838867188,-0.025259730715008477,-0.999340719946416,-0.013014098636779114,-0.022598776468125584,-0.016180000000000003,-0.025580000000000002,-0.017400000000000002,0.8678,-0.1917,-9.1513,6.0528112355970745,13.539775565356521,16.829999923706055,16.809999465942383,16.729999542236328,16.85999870300293,13.666115110648613,13.649874554540292,13.58491387889168,13.690474396026422,13.647844485026752,0.007981588701273669,8.800000190734863,27.375,0.0,0.0,0.0,0.0,0.0,,,,,
pylon_camera_1771860529804050380.png,1771860529804050380,1771860529.8040504,42.30097247561337,-83.69742579548364,238.8026885986328,-0.02476562504788027,-0.9993345428526859,-0.013197930761363705,-0.023301285394145044,0.00030000000000000003,-0.029070000000000002,-0.021890000000000003,0.9146000000000001,-0.44060000000000005,-9.5286,6.133935303848072,13.721245238589907,16.920000076293945,17.25,17.029998779296875,17.10999870300293,13.739196064351386,14.007159045000002,13.828516025377809,13.89347670102642,13.867086958938904,0.01062889831156352,8.0,27.325000762939453,0.0,0.0,0.0,0.0,0.0,,,,,
pylon_camera_1771860529853188012.png,1771860529853188012,1771860529.853188,42.30097257436076,-83.69743027363214,238.79432678222656,-0.024100914642553373,-0.9993284798999895,-0.013611162489236325,-0.024009819446635758,0.018240000000000003,-0.03602,-0.03579,0.5472,0.5495,-9.174800000000001,6.211915192049436,13.895681569703067,17.239999771118164,17.28999900817871,17.139999389648438,17.34000015258789,13.999038766945839,14.03963860843197,13.917837535188903,14.080239998702774,14.00918872731737,0.00816852034532694,7.5,27.625,0.0,0.0,0.0,0.0,0.0,,,,,
pylon_camera_1771860529904025095.png,1771860529904025095,1771860529.904025,42.30097264647891,-83.69743330157932,238.78805541992188,-0.023511493412301798,-0.9993343538994078,-0.013409227485595029,-0.024459178486121155,0.03567000000000001,-0.018580000000000003,-0.023840000000000004,1.1572,0.3664,-10.900500000000001,6.287857916336128,14.065560887368939,17.34000015258789,17.479999542236328,17.420000076293945,17.469999313354492,14.080239998702774,14.193920793891678,14.145200674351388,14.185800515837517,14.15129049569584,0.00609500104641308,7.400000095367432,27.5,0.0,0.0,0.0,0.0,0.0,,,,,
pylon_camera_1771860529954153835.png,1771860529954153835,1771860529.9541538,42.30097274768273,-83.69743788768467,238.7799072265625,-0.023044182395302204,-0.9993343880531833,-0.013001024387357205,-0.02511413699454961,0.005710000000000001,-0.03927,-0.015380000000000001,0.6868000000000001,0.8215,-11.453000000000001,6.357015153291491,14.22026147700387,17.579999923706055,17.59000015258789,17.69999885559082,17.729999542236328,14.275122025648614,14.283242303702774,14.372562264729195,14.396923098891678,14.331962423243064,0.00785505571890013,7.599999904632568,27.450000762939453,0.0,0.0,0.0,0.0,0.0,,,,,
pylon_camera_1771860530005133528.png,1771860530005133528,1771860530.0051336,42.300972811293065,-83.69744098108106,238.7755584716797,-0.022548156850213052,-0.9993281511094605,-0.01269522829531907,-0.025954926340394303,-0.015540000000000003,-0.031920000000000004,-0.00821,0.994,1.3186,-10.9734,6.438538929085557,14.402625272028647,17.760000228881836,17.85999870300293,18.0,17.760000228881836,14.421283933054161,14.50248361602642,14.61616596,14.421283933054161,14.490304360533687,0.006087715735777768,7.599999904632568,27.649999618530273,0.0,0.0,0.0,0.0,0.0,,,,,
pylon_camera_1771860530055159958.png,1771860530055159958,1771860530.05516,42.3009729066722,-83.69744567332866,238.77197265625,-0.022224992871079596,-0.9993222627775349,-0.012175139649569483,-0.026698891055281223,0.004790000000000001,-0.04084000000000001,-0.0083,1.9218000000000002,0.0161,-9.9404,6.511360434140819,14.565522609546965,18.079999923706055,18.029998779296875,17.979999542236328,17.899999618530273,14.681126635648614,14.640525245377807,14.599925403891678,14.534964728243066,14.614135503290292,0.003337531721070103,7.400000095367432,27.225000381469727,0.0,0.0,0.0,0.0,0.0,,,,,
pylon_camera_1771860530106003229.png,1771860530106003229,1771860530.1060033,42.30097297016171,-83.69744883326888,238.77127075195312,-0.021845577660701332,-0.9992952898066056,-0.011890028867411742,-0.028112661214017554,0.025810000000000003,-0.07170000000000001,-0.027760000000000003,1.361,-0.12380000000000001,-9.030100000000001,6.597453117483473,14.758106776623482,18.139999389648438,17.979999542236328,18.35999870300293,18.229999542236328,14.729846755188905,14.599925403891678,14.90848822602642,14.802927708891678,14.760297023499671,0.00014840974586650293,7.0,13.699999809265137,0.0,0.0,0.0,0.0,0.0,,,,,
pylon_camera_1771860530156173153.png,1771860530156173153,1771860530.156173,42.30097306688827,-83.6974536406015,238.76902770996094,-0.02140097052064177,-0.999260012572674,-0.011796697927876281,-0.029702923291024662,0.007030000000000001,-0.06856000000000001,-0.01811,0.9870000000000001,3.0517000000000003,-8.4981,6.676994737850556,14.936036608887424,18.309999465942383,18.239999771118164,18.529998779296875,18.5,14.86788838454029,14.811047986945841,15.046529855377807,15.02217057,14.936909199215984,5.842181238637589e-05,6.5,0.0,0.0,0.0,0.0,0.0,0.0,,,,,
pylon_camera_1771860530207080588.png,1771860530207080588,1771860530.2070806,42.300973128314446,-83.6974568821019,238.76405334472656,-0.02094119389543142,-0.9992457627545003,-0.0108953807894221,-0.030832818438545736,0.012250000000000002,-0.025980000000000003,-0.013210000000000001,0.7633000000000001,0.19590000000000002,-7.574000000000001,6.729561480547224,15.053625258295307,18.649999618530273,18.56999969482422,18.649999618530273,18.56999969482422,15.143971643243065,15.079010967594453,15.143971643243065,15.079010967594453,15.11149130541876,0.0038439941296908088,6.0,0.0,0.0,0.0,0.0,0.0,0.0,,,,,
pylon_camera_1771860530257057465.png,1771860530257057465,1771860530.2570574,42.30097322274814,-83.69746177087696,238.75253295898438,-0.020476678180632202,-0.9992465469895002,-0.010784767354963155,-0.031156584751006213,-0.01416,-0.00487,-0.024690000000000004,0.5961000000000001,-0.9367000000000001,-7.902,6.770889320035725,15.146073155560716,18.779998779296875,18.799999237060547,18.869998931884766,18.729999542236328,15.249532160377807,15.26577271648613,15.322613114080582,15.20893231889168,15.26171257745905,0.007634944101394295,5.599999904632568,0.0,0.0,0.0,0.0,0.0,0.0,,,,,
pylon_camera_1771860530308175855.png,1771860530308175855,1771860530.3081758,42.30097327861632,-83.69746504144257,238.74200439453125,-0.020149610939464213,-0.9992712722316692,-0.011512125337494872,-0.03030492768022536,-0.015930000000000003,0.04496,-0.022510000000000002,0.1464,-0.1973,-9.197700000000001,6.796694014197125,15.203796708118118,18.93000030517578,19.010000228881836,18.920000076293945,18.989999771118164,15.37133478240555,15.436295458054161,15.363214504351387,15.42005490194584,15.397724911689233,0.012755248395788309,5.400000095367432,0.0,0.0,0.0,0.0,0.0,0.0,,,,,
pylon_camera_1771860530358024740.png,1771860530358024740,1771860530.3580246,42.3009733526388,-83.69746997024717,238.72384643554688,-0.019843946566118986,-0.9993067952431263,-0.012098319955776772,-0.029082252661048136,-0.010940000000000002,0.049670000000000006,-0.013770000000000003,-0.2024,0.3452,-10.3312,6.821201276360998,15.258617983142972,19.100000381469727,19.1299991607666,19.020000457763672,19.189998626708984,15.509376411756936,15.533735697134745,15.444415736108322,15.582455816675035,15.51749591541876,0.01696601439014882,5.400000095367432,0.0,0.0,0.0,0.0,0.0,0.0,,,,,
pylon_camera_1771860530409102660.png,1771860530409102660,1771860530.4091027,42.3009734035243,-83.69747326590173,238.7128143310547,-0.01948560163090529,-0.9993471660250894,-0.01230591120855878,-0.027822969576078972,-0.009060000000000002,0.04531000000000001,-0.01683,0.013800000000000002,0.5875,-11.320500000000001,6.856026403238682,15.33651970246074,19.15999984741211,19.209999084472656,19.09000015258789,19.15999984741211,15.558096531297227,15.598696372783357,15.501256133702775,15.558096531297227,15.554036392270145,0.014182923768193991,5.400000095367432,0.0,0.0,0.0,0.0,0.0,0.0,,,,,
pylon_camera_1771860530459126223.png,1771860530459126223,1771860530.4591262,42.300973479901444,-83.69747824605975,238.70008850097656,-0.019082297595365283,-0.9993728085334856,-0.012298588659827801,-0.027177199991008396,0.0036100000000000004,0.0073100000000000005,-0.01523,0.039900000000000005,1.2155,-11.3187,6.889448145764165,15.411282135185692,19.25,19.229999542236328,19.149999618530273,19.209999084472656,15.631177485000002,15.614936928891678,15.549976253243067,15.598696372783357,15.598696759979527,0.012160871700995349,5.400000095367432,0.0,0.0,0.0,0.0,0.0,0.0,,,,,
pylon_camera_1771860530510202407.png,1771860530510202407,1771860530.5102024,42.30097356150944,-83.69748325049858,238.69256591796875,-0.018602431010637133,-0.9993863726139156,-0.012068498980667128,-0.02711418681148126,0.011830000000000002,-0.0018300000000000002,-0.011680000000000003,-0.3221,1.592,-10.4018,6.902749705644907,15.44103692654532,19.209999084472656,19.28999900817871,19.35999870300293,19.31999969482422,15.598696372783357,15.663657048431968,15.720497446026421,15.688017882594451,15.667717187459049,0.014680378137302061,5.400000095367432,0.0,0.0,0.0,0.0,0.0,0.0,,,,,
pylon_camera_1771860530560134334.png,1771860530560134334,1771860530.5601344,42.30097361973333,-83.69748658940026,238.68673706054688,-0.01801772400303442,-0.9994165466161441,-0.011469605394297366,-0.026652882090129996,0.027140000000000004,0.024930000000000004,-0.034550000000000004,-0.0852,-1.4918,-8.7432,6.906766956308224,15.450023275244119,19.270000457763672,19.35999870300293,19.35999870300293,19.479999542236328,15.647418041108322,15.720497446026421,15.720497446026421,15.817939233891678,15.726588041763211,0.017900605170105957,5.400000095367432,0.0,0.0,0.0,0.0,0.0,0.0,,,,,
pylon_camera_1771860530611427168.png,1771860530611427168,1771860530.611427,42.30097371133423,-83.6974915904848,238.6744842529297,-0.017561990081639,-0.9994685261387197,-0.010580181541122606,-0.0253436682629893,0.06845000000000001,0.07275000000000001,-0.03506000000000001,-0.25830000000000003,-1.3447,-7.502000000000001,6.907224833647868,15.451047519380264,19.270000457763672,19.439998626708984,19.43000030517578,19.549999237060547,15.647418041108322,15.785458121675035,15.77733939240555,15.874779631486131,15.771248796668761,0.020723596693807862,5.400000095367432,0.0,0.0,0.0,0.0,0.0,0.0,,,,,
pylon_camera_1771860530661354877.png,1771860530661354877,1771860530.6613548,42.30097377605792,-83.69749492682493,238.6645965576172,-0.01702715715437575,-0.9995224995592403,-0.010042544580819168,-0.023748601904760983,0.05708000000000001,0.05639000000000001,-0.03774,0.0317,-0.5404,-10.392900000000001,6.910045483818848,15.457357144573736,19.34000015258789,19.549999237060547,19.44999885559082,19.479999542236328,15.704258438702775,15.874779631486131,15.793578399729196,15.817939233891678,15.797638925952445,0.022014227800783104,5.400000095367432,0.0,0.0,0.0,0.0,0.0,0.0,,,,,
pylon_camera_1771860530712863621.png,1771860530712863621,1771860530.7128637,42.30097385974622,-83.69749993842228,238.6495819091797,-0.016567816116577094,-0.9995627494198174,-0.010077061069694943,-0.022321968587474112,0.0054,0.03875,-0.03418000000000001,0.766,-0.032600000000000004,-10.947700000000001,6.9319249318951455,15.506300157153527,19.35999870300293,19.329999923706055,19.279998779296875,19.469999313354492,15.720497446026421,15.696138160648614,15.65553677037781,15.809818955837516,15.72049783322259,0.013813590211604835,5.400000095367432,0.0,0.0,0.0,0.0,0.0,0.0,,,,,
pylon_camera_1771860530765152203.png,1771860530765152203,1771860530.7651522,42.30097390848653,-83.697503289108,238.64105224609375,-0.016118217997240558,-0.9995760770867967,-0.010165188648649024,-0.022012226241365427,0.0025400000000000006,-0.00859,-0.015550000000000001,0.2926,0.8217,-10.7201,6.958130506686354,15.564920455626973,19.34000015258789,19.399999618530273,19.309999465942383,19.350000381469727,15.704258438702775,15.752978558243067,15.679897604540292,15.712378716756936,15.712378329560767,0.009473731289162195,5.099999904632568,0.0,0.0,0.0,0.0,0.0,0.0,,,,,
pylon_camera_1771860530815465277.png,1771860530815465277,1771860530.8154652,42.30097397355935,-83.69750833820908,238.6320037841797,-0.015801463358102896,-0.9995603330372254,-0.010368688540958022,-0.022846108469364235,-0.0013900000000000002,-0.045380000000000004,-0.012650000000000002,0.2025,0.34790000000000004,-10.352,6.97134020616975,15.594469760789362,19.28999900817871,19.35999870300293,19.28999900817871,19.299999237060547,15.663657048431968,15.720497446026421,15.663657048431968,15.671777326486131,15.679897217344122,0.005478060996312792,4.700000286102295,0.0,0.0,0.0,0.0,0.0,0.0,,,,,
pylon_camera_1771860530863167820.png,1771860530863167820,1771860530.8631678,42.300974007657665,-83.69751171309811,238.62852478027344,-0.015468990598467514,-0.9995398400000769,-0.010590815679806225,-0.023846450589592207,-0.012930000000000002,-0.04965,-0.014330000000000002,-0.34340000000000004,0.07980000000000001,-11.086400000000001,6.972453907228433,15.596961043235572,19.309999465942383,19.369998931884766,19.35999870300293,19.369998931884766,15.679897604540292,15.728617724080582,15.720497446026421,15.728617724080582,15.714407624681968,0.007530093915143352,4.300000190734863,0.0,0.0,0.0,0.0,0.0,0.0,,,,,
pylon_camera_1771860530913899731.png,1771860530913899731,1771860530.9138997,42.300974059992576,-83.69751677337743,238.62474060058594,-0.015100363713678788,-0.9995125041869382,-0.010800378422688776,-0.02510149030630003,-0.008520000000000002,-0.051100000000000007,-0.013490000000000002,-0.8532000000000001,0.0843,-10.2896,6.9693924618324194,15.590112773571413,19.31999969482422,19.369998931884766,19.34000015258789,19.399999618530273,15.688017882594451,15.728617724080582,15.704258438702775,15.752978558243067,15.718468150905219,0.008233126931024893,4.099999904632568,0.0,0.0,0.0,0.0,0.0,0.0,,,,,
pylon_camera_1771860530963685541.png,1771860530963685541,1771860530.9636858,42.300974092443845,-83.69752014921457,238.62294006347656,-0.014725470914251249,-0.9994906584994667,-0.010869416613420996,-0.02614268274565484,-0.004370000000000001,-0.04252,-0.014760000000000002,-1.2510000000000001,-0.0877,-9.9238,6.9622219813016635,15.574072838852944,19.44999885559082,19.40999984741211,19.329999923706055,19.399999618530273,15.793578399729196,15.761098836297226,15.696138160648614,15.752978558243067,15.750948488729525,0.011357058086650695,4.099999904632568,0.0,0.0,0.0,0.0,0.0,0.0,,,,,
pylon_camera_1771860531015221356.png,1771860531015221356,1771860531.0152214,42.3009741409472,-83.69752520348983,238.62091064453125,-0.014316961038394804,-0.9994715057304002,-0.0111008763244238,-0.026990820744494097,-0.012770000000000002,-0.027000000000000003,-0.014870000000000001,-0.9503,-0.3929,-9.9694,6.955105164365844,15.558152946376532,19.260000228881836,19.35999870300293,19.399999618530273,19.44999885559082,15.639297763054161,15.720497446026421,15.752978558243067,15.793578399729196,15.726588041763211,0.010826162717850573,4.099999904632568,0.0,0.0,0.0,0.0,0.0,0.0,,,,,
pylon_camera_1771860531064840416.png,1771860531064840416,1771860531.0648406,42.30097417553331,-83.69752856397483,238.61956787109375,-0.013987196124522594,-0.9994601563744774,-0.011298447665621384,-0.027497258860227868,-0.0028000000000000004,-0.018890000000000004,-0.015500000000000002,-1.061,0.4137,-9.5272,6.9540599771231,15.555814925225748,19.35999870300293,19.389999389648438,19.35999870300293,19.420000076293945,15.720497446026421,15.744858280188904,15.720497446026421,15.769219114351388,15.738768071648284,0.01176107759715332,4.099999904632568,0.0,0.0,0.0,0.0,0.0,0.0,,,,,
pylon_camera_1771860531115808438.png,1771860531115808438,1771860531.1158085,42.300974220126115,-83.69753361234423,238.61585998535156,-0.013648251215127749,-0.9994481318472794,-0.011466230172020267,-0.028030029457598523,-0.0016700000000000003,-0.02705,-0.016290000000000002,-0.7108,0.528,-8.880600000000001,6.954969405464595,15.557849261859973,19.350000381469727,19.44999885559082,19.35999870300293,19.489999771118164,15.712378716756936,15.793578399729196,15.720497446026421,15.82605951194584,15.763128518614597,0.013194578074352818,4.0,0.0,0.0,0.0,0.0,0.0,0.0,,,,,
pylon_camera_1771860531165601599.png,1771860531165601599,1771860531.1656015,42.300974246800244,-83.69753697872918,238.61138916015625,-0.013271463109010506,-0.9994507474356935,-0.011319313891471212,-0.02817702699374362,-0.008480000000000001,0.0032200000000000006,-0.012950000000000003,-1.8107,0.5258,-8.2565,6.937195523490638,15.51809015431715,19.439998626708984,19.459999084472656,19.399999618530273,19.469999313354492,15.785458121675035,15.801698677783357,15.752978558243067,15.809818955837516,15.787488578384743,0.017360282186055315,3.9000000953674316,0.0,0.0,0.0,0.0,0.0,0.0,,,,,
pylon_camera_1771860531216706742.png,1771860531216706742,1771860531.2167068,42.30097429225651,-83.69754201215876,238.60108947753906,-0.012843196328567674,-0.9994819049265213,-0.01108200569188685,-0.027352571768724927,0.0022,0.03653,-0.013730000000000001,-0.3919,-0.2333,-9.2025,6.93958762876539,15.523441150290454,19.35999870300293,19.6299991607666,19.43000030517578,19.549999237060547,15.720497446026421,15.939740307134743,15.77733939240555,15.874779631486131,15.82808919426321,0.019625032943617414,3.9000000953674316,0.0,0.0,0.0,0.0,0.0,0.0,,,,,
pylon_camera_1771860531266498197.png,1771860531266498197,1771860531.2664983,42.300974326943546,-83.69754535902067,238.5923309326172,-0.0123970368433447,-0.9995382307052231,-0.009973270604128183,-0.025887694173755225,0.08099,0.12168000000000002,-0.024680000000000004,-0.6831,-0.7403000000000001,-9.1221,6.874344571970987,15.37749634682478,20.119998931884766,20.0,19.34000015258789,19.3799991607666,16.337624639080584,16.2401844,15.704258438702775,15.736738002134743,16.004701369979525,0.04078720027036482,3.700000047683716,0.0,0.0,0.0,0.0,0.0,0.0,,,,,
pylon_camera_1771860531317658528.png,1771860531317658528,1771860531.3176587,42.30097438712542,-83.69755034495503,238.57688903808594,-0.011965286206758186,-0.9996171938969246,-0.00880980225234784,-0.02333848700973255,0.055400000000000005,0.10873000000000001,-0.022390000000000004,-1.2528000000000001,1.0041,-12.4783,6.879882709628859,15.38988482847718,19.549999237060547,19.65999984741211,19.5,19.459999084472656,15.874779631486131,15.964101141297226,15.83417979,15.801698677783357,15.868689810141678,0.031111667631100456,3.6000001430511475,0.0,0.0,0.0,0.0,0.0,0.0,,,,,
pylon_camera_1771860531367258358.png,1771860531367258358,1771860531.3672583,42.30097442687098,-83.69755366200137,238.56744384765625,-0.011571716524162667,-0.9996832454955852,-0.008054275435307021,-0.02084784639501996,0.019340000000000003,0.09975,-0.02187,-0.4979,-0.4701,-11.1453,6.9029744159989646,15.441539590124725,19.510000228881836,19.520000457763672,19.479999542236328,19.369998931884766,15.842300068054161,15.850420346108324,15.817939233891678,15.728617724080582,15.809819343033688,0.023849937421038487,3.299999952316284,0.0,0.0,0.0,0.0,0.0,0.0,,,,,
pylon_camera_1771860531418541105.png,1771860531418541105,1771860531.418541,42.30097446402384,-83.697558679342,238.55711364746094,-0.011231521933747157,-0.999707549618174,-0.008222853449711394,-0.01977505581844195,-0.011230000000000002,0.02274,-0.016250000000000004,-0.1789,-0.3824,-11.101600000000001,6.9435320282304165,15.532264535229748,19.420000076293945,19.43000030517578,19.469999313354492,19.469999313354492,15.769219114351388,15.77733939240555,15.809818955837516,15.809818955837516,15.791549104607991,0.016693288270370553,2.6000001430511475,0.0,0.0,0.0,0.0,0.0,0.0,,,,,
pylon_camera_1771860531477003781.png,1771860531477003781,1771860531.4770038,42.30097447894163,-83.69756372996125,238.55157470703125,-0.01094121065545528,-0.9996939471186089,-0.009018405145520113,-0.020272404209674147,-0.018120000000000004,-0.03683,-0.012990000000000002,0.19640000000000002,-0.9856,-10.5014,6.985882784712941,15.627000636435767,19.44999885559082,19.420000076293945,19.420000076293945,19.459999084472656,15.793578399729196,15.769219114351388,15.769219114351388,15.801698677783357,15.783428826553832,0.010010122464149571,0.699999988079071,0.0,0.0,0.0,0.0,0.0,0.0,,,,,
pylon_camera_1771860531527881956.png,1771860531527881956,1771860531.527882,42.3009744809302,-83.69756711956008,238.548828125,-0.010839962179369445,-0.9996573371073924,-0.009673319572094498,-0.02177453732604385,-0.016910000000000005,-0.07452000000000002,-0.00384,-0.23090000000000002,0.15560000000000002,-9.4391,7.018029982880619,15.698911989904973,19.399999618530273,19.279998779296875,19.369998931884766,19.479999542236328,15.752978558243067,15.65553677037781,15.728617724080582,15.817939233891678,15.738768071648284,0.002538779870155344,-0.800000011920929,0.0,0.0,0.0,0.0,0.0,0.0,,,,,
pylon_camera_1771860531569312485.png,1771860531569312485,1771860531.5693126,42.3009744804001,-83.69757220662024,238.54397583007812,-0.010876755950945893,-0.9996234173795271,-0.009868615358182908,-0.023180380440605823,-0.011550000000000003,-0.06889,0.0024200000000000003,-0.0313,0.19690000000000002,-8.622,7.023512992388057,15.711177153192542,19.35999870300293,19.420000076293945,19.399999618530273,19.439998626708984,15.720497446026421,15.769219114351388,15.752978558243067,15.785458121675035,15.757038310073977,0.0029190146883497753,-1.5,0.0,0.0,0.0,0.0,0.0,0.0,,,,,
pylon_camera_1771860531628931341.png,1771860531628931341,1771860531.6289313,42.300974480255846,-83.69757560449204,238.53988647460938,-0.010965577777997226,-0.9995768618901175,-0.010204710730061937,-0.024934256692664792,-0.015570000000000002,-0.04157,0.00305,-0.20120000000000002,0.030500000000000003,-8.6141,7.021656320783688,15.707023890213863,19.439998626708984,19.559999465942383,19.510000228881836,19.510000228881836,15.785458121675035,15.882899909540292,15.842300068054161,15.842300068054161,15.838239541830912,0.008353947414494108,-1.399999976158142,0.0,0.0,0.0,0.0,0.0,0.0,,,,,
pylon_camera_1771860531670542819.png,1771860531670542819,1771860531.670543,42.300974491902885,-83.6975806936817,238.53118896484375,-0.011068948044110516,-0.9995586465863655,-0.010373762443099751,-0.025541642006812807,-0.00128,-0.06151000000000001,-0.00253,0.7887000000000001,1.2783,-9.2394,7.0381253968105435,15.743864225141378,19.559999465942383,19.549999237060547,19.389999389648438,19.479999542236328,15.882899909540292,15.874779631486131,15.744858280188904,15.817939233891678,15.830119263776751,0.0054786447216454565,-1.3000000715255737,0.0,0.0,0.0,0.0,0.0,0.0,,,,,
pylon_camera_1771860531730675704.png,1771860531730675704,1771860531.7306757,42.30097452326181,-83.6975858011953,238.52964782714844,-0.011000122135330914,-0.999511039607632,-0.009617402932249539,-0.027643888588931385,0.04089,-0.08539000000000002,0.0038700000000000006,-0.3856,2.6021,-8.3184,7.037585822315122,15.74265722936959,19.420000076293945,19.510000228881836,19.69999885559082,19.479999542236328,15.769219114351388,15.842300068054161,15.996580704729196,15.817939233891678,15.856509780256607,0.007232105052418562,-1.100000023841858,0.0,0.0,0.0,0.0,0.0,0.0,,,,,
pylon_camera_1771860531780270978.png,1771860531780270978,1771860531.780271,42.3009745516226,-83.69758921035306,238.53115844726562,-0.010807662231660908,-0.9994536336327834,-0.009022071962758671,-0.029903693297167012,0.00506,-0.08004000000000001,-0.007170000000000001,0.4142,-0.3123,-10.543000000000001,7.045787546418976,15.761003994086465,19.299999237060547,19.479999542236328,19.6299991607666,19.510000228881836,15.671777326486131,15.817939233891678,15.939740307134743,15.842300068054161,15.817939233891678,0.00361241199016099,-0.9000000357627869,0.0,0.0,0.0,0.0,0.0,0.0,,,,,
pylon_camera_1771860531831063780.png,1771860531831063780,1771860531.8310637,42.30097458367483,-83.69759431929094,238.53179931640625,-0.010844015304729615,-0.9994142779852335,-0.008731474314301836,-0.03126131231448812,0.022150000000000003,-0.031560000000000005,-0.006150000000000001,-1.3867,-0.4965,-7.0857,7.017222674789281,15.697106090143135,19.479999542236328,19.479999542236328,19.75,19.59000015258789,15.817939233891678,15.817939233891678,16.037182095000002,15.907260743702773,15.895080326621533,0.012612148719738495,-0.30000001192092896,0.0,0.0,0.0,0.0,0.0,0.0,,,,,
pylon_camera_1771860531881619456.png,1771860531881619456,1771860531.8816195,42.30097461043933,-83.69759770945709,238.52740478515625,-0.010733675476899684,-0.9994452392665913,-0.007549594593876533,-0.030610546214837123,0.09234,0.06096000000000001,-0.01152,-0.8951,0.891,-7.3127,6.989540252431323,15.635182172273725,20.09000015258789,19.549999237060547,19.78999900817871,19.739999771118164,16.313265353702775,15.874779631486131,16.06966165843197,16.029061816945838,16.07169211514168,0.0279184430381649,-0.6000000238418579,0.0,0.0,0.0,0.0,0.0,0.0,,,,,
pylon_camera_1771860531932202593.png,1771860531932202593,1771860531.9322026,42.30097463326091,-83.69760279196524,238.51556396484375,-0.010765511375914694,-0.9994916957164579,-0.007588222673609878,-0.029032272307043968,-0.03785,0.08101000000000001,-0.00072,-1.1265,1.7442,-7.6176,7.003943666762603,15.667401745927938,19.770000457763672,19.420000076293945,19.809999465942383,19.799999237060547,16.053422651108324,15.769219114351388,16.08590221454029,16.07778193648613,15.996581479121534,0.02101048652046932,-1.399999976158142,0.0,0.0,0.0,0.0,0.0,0.0,,,,,
pylon_camera_1771860531982722244.png,1771860531982722244,1771860531.9827223,42.30097463204903,-83.69760618901424,238.5044708251953,-0.010659855713383515,-0.999538919780983,-0.008450772161509896,-0.027145897832078904,-0.07499,0.06813000000000001,0.00033000000000000005,-0.24000000000000002,-0.46950000000000003,-8.3406,7.028927989993527,15.723290177936121,19.81999969482422,19.719999313354492,19.78999900817871,19.850000381469727,16.094022492594455,16.01282126083752,16.06966165843197,16.118383326756934,16.073722184655217,0.02228744764952844,-2.4000000953674316,0.0,0.0,0.0,0.0,0.0,0.0,,,,,
pylon_camera_1771860532035529719.png,1771860532035529719,1771860532.0355296,42.30097463070407,-83.69761129465377,238.485107421875,-0.01068692765209489,-0.9995727643892016,-0.00953049976608995,-0.02548034228375362,-0.04397000000000001,0.044140000000000006,0.008150000000000001,-0.337,-0.9017000000000001,-10.243,7.054015169366425,15.77940869296253,19.8799991607666,19.779998779296875,19.709999084472656,19.770000457763672,16.142742612134743,16.061541380377808,16.004700982783355,16.053422651108324,16.065601906601056,0.018137131701656595,-2.5,0.0,0.0,0.0,0.0,0.0,0.0,,,,,
pylon_camera_1771860532082902140.png,1771860532082902140,1771860532.082902,42.3009746288556,-83.69761470570762,238.4727325439453,-0.010771420636576323,-0.9995818906617377,-0.010063353645927177,-0.024874671293767765,-0.01037,0.021920000000000002,-0.0022400000000000007,0.3946,-0.6532,-10.7919,7.079913314209279,15.837341289087307,19.869998931884766,19.760000228881836,19.809999465942383,19.779998779296875,16.134622334080582,16.04530237305416,16.08590221454029,16.061541380377808,16.08184207551321,0.015438246986214611,-2.1000001430511475,0.0,0.0,0.0,0.0,0.0,0.0,,,,,
pylon_camera_1771860532133923300.png,1771860532133923300,1771860532.1339233,42.300974622882556,-83.69761984394844,238.456298828125,-0.010935828470221454,-0.9995784680936743,-0.010801489847829575,-0.024629689324886152,-0.025400000000000002,0.007240000000000001,0.0007600000000000002,-0.10070000000000001,-0.5485,-10.123700000000001,7.09271031724107,15.86596741704924,19.90999984741211,19.969999313354492,19.649999618530273,19.809999465942383,16.167103446297226,16.215823565837518,15.955980863243067,16.08590221454029,16.106202522479528,0.015141535282124382,-2.1000001430511475,0.0,0.0,0.0,0.0,0.0,0.0,,,,,
pylon_camera_1771860532174951224.png,1771860532174951224,1771860532.174951,42.30097462264193,-83.69762328176438,238.4474334716797,-0.01107406218965068,-0.9995685928374511,-0.011432383209817872,-0.024683880848060898,-0.01958,0.00642,-0.0017100000000000001,0.0613,-1.3092000000000001,-11.5397,7.103417671203137,15.889919125421146,19.84000015258789,20.0,19.68000030517578,19.779998779296875,16.110263048702777,16.2401844,15.980341697405548,16.061541380377808,16.098082631621534,0.013100350263417096,-2.1000001430511475,0.0,0.0,0.0,0.0,0.0,0.0,,,,,
pylon_camera_1771860532226096205.png,1771860532226096205,1771860532.2260962,42.300974628447165,-83.69762672832059,238.44015502929688,-0.011156581795286669,-0.9995483175340607,-0.011837406142627249,-0.025269891437995195,0.00936,-0.021580000000000005,-0.00302,-0.8709,1.0032,-13.152800000000001,7.120545649469349,15.928233385123967,19.939998626708984,19.889999389648438,19.639999389648438,19.850000381469727,16.191462731675035,16.150862890188904,15.947860585188904,16.118383326756934,16.102142383452446,0.01091828541958076,-2.0,0.0,0.0,0.0,0.0,0.0,0.0,,,,,
pylon_camera_1771860532275866741.png,1771860532275866741,1771860532.2758665,42.30097466164769,-83.69763190761981,238.4359588623047,-0.011083542156324455,-0.9995171288967131,-0.011100822225405935,-0.026822301938135052,0.06606000000000001,-0.07611000000000001,0.00022000000000000003,-1.7704000000000002,3.5811,-12.123000000000001,7.132755149059713,15.955545303137637,19.799999237060547,19.84000015258789,19.899999618530273,19.809999465942383,16.07778193648613,16.110263048702777,16.158983168243065,16.08590221454029,16.108232591993065,0.009569543751375451,-1.8000000715255737,0.0,0.0,0.0,0.0,0.0,0.0,,,,,
pylon_camera_1771860532327085131.png,1771860532327085131,1771860532.327085,42.30097468545748,-83.69763535531374,238.43673706054688,-0.011073219227459519,-0.999493422959885,-0.010192966553032326,-0.02804255175125186,-0.009650000000000002,-0.009840000000000002,0.03513000000000001,0.28150000000000003,2.1751,-5.7424,7.143402809209161,15.979363480032342,19.829999923706055,19.770000457763672,19.939998626708984,19.829999923706055,16.102142770648612,16.053422651108324,16.191462731675035,16.102142770648612,16.112292731020144,0.008318807639234758,-1.2000000476837158,0.0,0.0,0.0,0.0,0.0,0.0,,,,,
pylon_camera_1771860532376830789.png,1771860532376830789,1771860532.3768308,42.30097470470775,-83.697640538601,238.43260192871094,-0.011111371915945079,-0.9994662105050817,-0.010670587857796949,-0.028809200397205362,-0.08211,0.054810000000000005,0.022090000000000005,-1.7369,1.06,-8.4658,7.098979648780684,15.879991535543464,19.889999389648438,19.850000381469727,19.979999542236328,19.979999542236328,16.150862890188904,16.118383326756934,16.22394384389168,16.22394384389168,16.1792834761823,0.01884710958245431,-1.100000023841858,0.0,0.0,0.0,0.0,0.0,0.0,,,,,
pylon_camera_1771860532427899570.png,1771860532427899570,1771860532.4278996,42.30097471530017,-83.69764398912811,238.42665100097656,-0.011269725681188558,-0.9994765013079059,-0.010436917362451708,-0.028474328303708694,-0.012750000000000003,0.050230000000000004,0.024110000000000003,-3.2092,-0.2204,-8.8534,7.095536956000074,15.872290438354806,19.68000030517578,20.0,20.0,19.920000076293945,15.980341697405548,16.2401844,16.2401844,16.175223724351387,16.15898355543923,0.018062491875252103,-1.3000000715255737,0.0,0.0,0.0,0.0,0.0,0.0,,,,,
pylon_camera_1771860532477894446.png,1771860532477894446,1771860532.4778943,42.30097474793871,-83.69764914256073,238.4143524169922,-0.01118482050894215,-0.9995403396747036,-0.00887088769188638,-0.026745401562119363,0.06516000000000001,0.06684000000000001,0.0048000000000000004,0.15660000000000002,-3.0780000000000003,-9.3719,7.113924092233688,15.913421358881228,19.869998931884766,19.959999084472656,20.10999870300293,19.959999084472656,16.134622334080582,16.207703287783357,16.32950436102642,16.207703287783357,16.21988331766843,0.01925808107985313,-2.0,0.0,0.0,0.0,0.0,0.0,0.0,,,,,
pylon_camera_1771860532528781019.png,1771860532528781019,1771860532.528781,42.30097476115413,-83.69765258258312,238.4057159423828,-0.011251428765793603,-0.9995606766470013,-0.010188317601493399,-0.025456968322413582,-0.04216000000000001,0.04744000000000001,-0.01076,1.7818,0.11030000000000001,-9.1248,7.138835288473941,15.969146210198899,20.1299991607666,20.03999900817871,19.969999313354492,19.920000076293945,16.34574491713474,16.27266396343197,16.215823565837518,16.175223724351387,16.252364042688903,0.017735314634988054,-2.1000001430511475,0.0,0.0,0.0,0.0,0.0,0.0,,,,,
pylon_camera_1771860532578744159.png,1771860532578744159,1771860532.5787442,42.3009747614939,-83.69765775590139,238.39210510253906,-0.011321023896268212,-0.9995463605706179,-0.011803554397374731,-0.02528998994782088,-0.05131000000000001,-0.00417,0.0037400000000000007,1.4614,0.8236,-9.5797,7.168795863210853,16.036166218250887,19.959999084472656,19.920000076293945,19.959999084472656,19.920000076293945,16.207703287783357,16.175223724351387,16.207703287783357,16.175223724351387,16.19146350606737,0.009684190454432891,-1.899999976158142,0.0,0.0,0.0,0.0,0.0,0.0,,,,,
pylon_camera_1771860532629919760.png,1771860532629919760,1771860532.6299198,42.300974760043395,-83.69766295473609,238.37982177734375,-0.011389292769139692,-0.9995243433818328,-0.012366311377136488,-0.02585430989716122,0.026740000000000003,-0.027470000000000005,-0.007100000000000001,0.1729,0.3995,-10.498000000000001,7.173783560997098,16.04732339893685,19.959999084472656,19.939998626708984,20.049999237060547,20.0,16.207703287783357,16.191462731675035,16.28078424148613,16.2401844,16.23003366523613,0.01138571597001567,-1.899999976158142,0.0,0.0,0.0,0.0,0.0,0.0,,,,,
pylon_camera_1771860532688637301.png,1771860532688637301,1771860532.6886373,42.3009747638488,-83.69766641727433,238.3714141845703,-0.011585910020962542,-0.9995113612957498,-0.011858661038140084,-0.02649863181535741,0.031310000000000004,-0.00525,0.0008500000000000001,-0.36810000000000004,0.27,-9.8484,7.172840356217258,16.045213506436635,20.049999237060547,19.69999885559082,20.03999900817871,20.020000457763672,16.28078424148613,15.996580704729196,16.27266396343197,16.256424956108322,16.201613466438904,0.00974745271787923,-1.600000023841858,0.0,0.0,0.0,0.0,0.0,0.0,,,,,
pylon_camera_1771860532739855722.png,1771860532739855722,1771860532.7398555,42.30097478041731,-83.69767161997605,238.3587188720703,-0.011626381271252761,-0.999511692395252,-0.011352217858879486,-0.026689533030744277,0.024930000000000004,0.015410000000000002,-0.00202,-1.7484000000000002,0.9836,-9.699,7.161794519187659,16.020504631751642,20.03999900817871,20.020000457763672,20.119998931884766,20.010000228881836,16.27266396343197,16.256424956108322,16.337624639080584,16.24830467805416,16.27875455916876,0.016119962095656033,-0.699999988079071,0.0,0.0,0.0,0.0,0.0,0.0,,,,,
pylon_camera_1771860532780901277.png,1771860532780901277,1771860532.7809014,42.30097480108456,-83.69767509225545,238.350341796875,-0.01162082233729439,-0.9995216475307608,-0.010865487015776968,-0.026521195250374417,0.032220000000000006,-0.0029500000000000004,-0.0012600000000000003,-0.2558,1.0565,-10.8244,7.17770592792474,16.05609749841197,20.189998626708984,20.1299991607666,20.119998931884766,20.0,16.394465036675037,16.34574491713474,16.337624639080584,16.2401844,16.329504748222593,0.017028250472299746,0.0,0.0,0.0,0.0,0.0,0.0,0.0,,,,,
pylon_camera_1771860532840746932.png,1771860532840746932,1771860532.840747,42.30097484554938,-83.6976802995495,238.3414764404297,-0.011383300186340817,-0.9995404962339528,-0.00907280117783976,-0.02658761260508839,0.10586000000000002,-0.027260000000000003,-0.024980000000000006,1.8795000000000002,-0.0804,-10.416400000000001,7.196760085443766,16.09872050553258,20.059999465942383,19.969999313354492,19.6299991607666,19.969999313354492,16.288904519540292,16.215823565837518,15.939740307134743,16.215823565837518,16.165072989587514,0.004121599852120665,0.6000000238418579,0.0,0.0,0.0,0.0,0.0,0.0,,,,,
pylon_camera_1771860532881692018.png,1771860532881692018,1771860532.881692,42.300974879774664,-83.69768377260766,238.33963012695312,-0.011116738831070727,-0.9995332729446448,-0.007373081663815917,-0.02748257741017844,0.06943,-0.029410000000000006,-0.0352,-0.1855,-3.2074000000000003,-12.6493,7.174178275887227,16.048206352463176,19.869998931884766,20.079999923706055,20.43000030517578,19.829999923706055,16.134622334080582,16.305145075648614,16.589348612405548,16.102142770648612,16.28281469819584,0.014618976138517464,1.0,0.0,0.0,0.0,0.0,0.0,0.0,,,,,
pylon_camera_1771860532933372772.png,1771860532933372772,1771860532.9333727,42.300974895317275,-83.69768899299144,238.3376922607422,-0.011096588280555653,-0.9994971494033495,-0.00830483509280324,-0.028519182617870332,-0.04852,-0.03860000000000001,-0.010440000000000001,-2.3281,-0.5652,-7.777900000000001,7.181455953636489,16.064486080927608,19.739999771118164,20.010000228881836,20.1299991607666,20.31999969482422,16.029061816945838,16.24830467805416,16.34574491713474,16.50002710259445,16.280784628682298,0.013464392615179135,0.699999988079071,0.0,0.0,0.0,0.0,0.0,0.0,,,,,
pylon_camera_1771860532982786562.png,1771860532982786562,1771860532.9827867,42.30097488246881,-83.69769246218748,238.3318634033203,-0.011113265166299902,-0.9994737232088093,-0.010615525361157365,-0.02856715900769149,-0.07171000000000001,0.022080000000000002,-0.00202,0.5966,0.2757,-6.0186,7.1912133979485295,16.086312898406984,20.010000228881836,19.939998626708984,20.09000015258789,20.18000030517578,16.24830467805416,16.191462731675035,16.313265353702775,16.38634630740555,16.28484476770938,0.012341664031790453,-0.9000000357627869,0.0,0.0,0.0,0.0,0.0,0.0,,,,,
pylon_camera_1771860533033714693.png,1771860533033714693,1771860533.0337148,42.30097486307586,-83.69769767795938,238.31781005859375,-0.011106641485080393,-0.9994579521442344,-0.011810729088961384,-0.02865224404757968,-0.04173000000000001,0.010660000000000003,-0.0007700000000000001,1.6517000000000002,0.8,-9.4207,7.188533067602702,16.08031716024319,20.079999923706055,20.06999969482422,20.0,20.119998931884766,16.305145075648614,16.297024797594453,16.2401844,16.337624639080584,16.294994728080916,0.013350331694233736,-3.0,0.0,0.0,0.0,0.0,0.0,0.0,,,,,
pylon_camera_1771860533084035338.png,1771860533084035338,1771860533.0840354,42.30097484893648,-83.69770115169604,238.30734252929688,-0.011172404143671377,-0.999446359218733,-0.012360373995307115,-0.028798846934659842,-0.05627000000000001,0.018170000000000006,-0.0019400000000000003,-0.10250000000000001,0.1608,-9.4785,7.17760027553832,16.055861160362692,20.0,20.03999900817871,19.989999771118164,20.06999969482422,16.2401844,16.27266396343197,16.23206412194584,16.297024797594453,16.260484320743068,0.012744452529617733,-2.799999952316284,0.0,0.0,0.0,0.0,0.0,0.0,,,,,
pylon_camera_1771860533134806402.png,1771860533134806402,1771860533.1348066,42.30097484886998,-83.69770636732363,238.29222106933594,-0.01122028983651946,-0.9994348542470504,-0.012880966329785042,-0.028950957127056722,-0.00884,0.011030000000000002,0.004090000000000001,0.5574,0.20980000000000001,-10.4579,7.184072050291573,16.070338132179234,20.139999389648438,20.079999923706055,20.010000228881836,20.189998626708984,16.353865195188906,16.305145075648614,16.24830467805416,16.394465036675037,16.32544499639168,0.01587439306591945,0.10000000149011612,0.0,0.0,0.0,0.0,0.0,0.0,,,,,
pylon_camera_1771860533185153923.png,1771860533185153923,1771860533.185154,42.300974860908596,-83.69770984737129,238.2834930419922,-0.011151052688170182,-0.9994290690609646,-0.012522224308426502,-0.029332300254984883,0.035480000000000005,0.0034900000000000005,-0.00954,-0.7888000000000001,-0.47150000000000003,-10.988900000000001,7.183586178149166,16.069251265348996,20.119998931884766,20.079999923706055,20.100000381469727,20.18000030517578,16.337624639080584,16.305145075648614,16.321385631756936,16.38634630740555,16.33762541347292,0.016701098495026653,2.799999952316284,0.0,0.0,0.0,0.0,0.0,0.0,,,,,
pylon_camera_1771860533235770082.png,1771860533235770082,1771860533.2357702,42.30097489759679,-83.69771507086057,238.2736358642578,-0.010903741035906966,-0.9994216021020543,-0.01178113754413503,-0.029979567731226685,0.07913000000000002,-0.042080000000000006,-0.024850000000000004,-0.44220000000000004,1.7423000000000002,-12.259,7.20394240234457,16.114786917500663,19.989999771118164,20.010000228881836,20.3799991607666,20.09000015258789,16.23206412194584,16.24830467805416,16.548747222134743,16.313265353702775,16.33559534395938,0.013702224397327843,4.0,0.0,0.0,0.0,0.0,0.0,0.0,,,,,
pylon_camera_1771860533285599557.png,1771860533285599557,1771860533.2855995,42.300974939922625,-83.69771856254327,238.2694549560547,-0.010352218506392008,-0.9994102862847513,-0.009904762662264881,-0.03120587952344504,0.11879000000000002,-0.06691000000000001,-0.03373,1.999,0.4471,-9.0221,7.243249225739835,16.20271392302647,19.809999465942383,20.03999900817871,20.309999465942383,19.959999084472656,16.08590221454029,16.27266396343197,16.49190682454029,16.207703287783357,16.26454407257398,0.003816036612214761,3.6000001430511475,0.0,0.0,0.0,0.0,0.0,0.0,,,,,
pylon_camera_1771860533336264956.png,1771860533336264956,1771860533.3362648,42.30097499009016,-83.69772383049977,238.26303100585938,-0.009894854442373757,-0.999373886966255,-0.00816653507823102,-0.032973225658697064,0.053750000000000006,-0.04255000000000001,-0.028180000000000007,1.6041,-2.4282,-8.3826,7.223041428122451,16.157510292224234,19.959999084472656,20.18000030517578,20.049999237060547,19.959999084472656,16.207703287783357,16.38634630740555,16.28078424148613,16.207703287783357,16.2706342811146,0.007001325504016895,3.700000047683716,0.0,0.0,0.0,0.0,0.0,0.0,,,,,
pylon_camera_1771860533386313783.png,1771860533386313783,1771860533.3863137,42.300975015031526,-83.69772732243675,238.25680541992188,-0.009621023422903885,-0.999349853845445,-0.007613243757742187,-0.033901977034811,0.018530000000000005,9e-05,-0.021020000000000004,-0.81,-1.9023,-8.196900000000001,7.189204207983161,16.081818461005852,20.0,20.029998779296875,20.149999618530273,20.18000030517578,16.2401844,16.26454368537781,16.361985473243067,16.38634630740555,16.313264966506605,0.014391811850254923,4.0,0.0,0.0,0.0,0.0,0.0,0.0,,,,,
pylon_camera_1771860533436837089.png,1771860533436837089,1771860533.4368372,42.3009750301926,-83.69773255167352,238.24220275878906,-0.009404659900854484,-0.9993790721580635,-0.00745976437887309,-0.03312664214871384,0.00446,0.03751,-0.02185,-1.1699000000000002,-1.1541000000000001,-8.014100000000001,7.173108862898936,16.04581413977315,20.149999618530273,20.389999389648438,20.149999618530273,20.209999084472656,16.361985473243067,16.556867500188904,16.361985473243067,16.410705592783355,16.422886009864598,0.023499703212739538,3.6000001430511475,0.0,0.0,0.0,0.0,0.0,0.0,,,,,
pylon_camera_1771860533487491261.png,1771860533487491261,1771860533.4874914,42.30097503040307,-83.69773601859066,238.230224609375,-0.009293925412262372,-0.9994474145290875,-0.008139814229193635,-0.03085825604060999,-0.05293000000000001,0.13970000000000002,-0.007880000000000002,0.5594,-0.43310000000000004,-8.6454,7.140550806291519,15.972983720625752,20.34000015258789,20.56999969482422,20.1299991607666,20.15999984741211,16.516267658702777,16.703029407594453,16.34574491713474,16.370105751297224,16.483786933682296,0.03197919825066553,3.0,0.0,0.0,0.0,0.0,0.0,0.0,,,,,
pylon_camera_1771860533538695828.png,1771860533538695828,1771860533.538696,42.30097500887316,-83.69774121704876,238.2121124267578,-0.009045365514242842,-0.9994998819064111,-0.009306394998063206,-0.028836755086590653,-0.047470000000000005,0.13864,-0.009550000000000001,0.0199,-1.5132,-11.7725,7.154289920315297,16.003717294350103,20.25,20.40999984741211,20.189998626708984,20.270000457763672,16.443186705,16.573108056297226,16.394465036675037,16.459427261108324,16.467546764770148,0.02898260834586184,2.799999952316284,0.0,0.0,0.0,0.0,0.0,0.0,,,,,
pylon_camera_1771860533588597975.png,1771860533588597975,1771860533.588598,42.30097499080313,-83.69774470098739,238.20449829101562,-0.008847065693975975,-0.9995083321866205,-0.010334064283998657,-0.028249432445638857,-0.036180000000000004,0.01871,-0.016200000000000003,-0.35960000000000003,-1.4329,-11.8731,7.198462222475146,16.102528083943554,20.189998626708984,20.149999618530273,20.1299991607666,20.299999237060547,16.394465036675037,16.361985473243067,16.34574491713474,16.48378654648613,16.396495493384744,0.018255978682894938,3.299999952316284,0.0,0.0,0.0,0.0,0.0,0.0,,,,,
pylon_camera_1771860533639419605.png,1771860533639419605,1771860533.6394196,42.30097496253201,-83.69774995498292,238.19493103027344,-0.008748366166768329,-0.9994822788918531,-0.01103538756091128,-0.028928541130523178,-0.005330000000000001,-0.03989,-0.007960000000000002,-1.3221,0.8575,-9.6732,7.218258987302987,16.146812259057544,20.18000030517578,20.219999313354492,20.189998626708984,20.329999923706055,16.38634630740555,16.41882587083752,16.394465036675037,16.508147380648612,16.42694614889168,0.0173491761308487,3.6000001430511475,0.0,0.0,0.0,0.0,0.0,0.0,,,,,
pylon_camera_1771860533689647819.png,1771860533689647819,1771860533.689648,42.300974954302795,-83.69775522518464,238.18443298339844,-0.008499019909341488,-0.9994688486294798,-0.010475821349115271,-0.029665543091334037,0.056330000000000005,-0.024180000000000004,-0.02091,0.0371,1.1386,-7.9638,7.240469195309497,16.196495161755628,20.119998931884766,20.100000381469727,20.149999618530273,20.389999389648438,16.337624639080584,16.321385631756936,16.361985473243067,16.556867500188904,16.394465811067374,0.012223054885306823,3.6000001430511475,0.0,0.0,0.0,0.0,0.0,0.0,,,,,
pylon_camera_1771860533740961418.png,1771860533740961418,1771860533.7409616,42.30097496512829,-83.69775873183936,238.1728973388672,-0.007894442598494977,-0.9994910936863095,-0.008795783697571872,-0.02962879692038589,0.037340000000000005,0.01898,-0.03259,-0.40890000000000004,0.2906,-9.3968,7.225897457500895,16.163899058582054,20.260000228881836,20.209999084472656,20.059999465942383,20.299999237060547,16.451306983054163,16.410705592783355,16.288904519540292,16.48378654648613,16.408675910465984,0.015143428636667258,3.799999952316284,0.0,0.0,0.0,0.0,0.0,0.0,,,,,
pylon_camera_1771860533790820979.png,1771860533790820979,1771860533.7908208,42.300974997331,-83.69776399156677,238.1574249267578,-0.007213411380400881,-0.9995085760268382,-0.007347028294746779,-0.029607335582510243,0.009060000000000002,0.024800000000000003,-0.028220000000000002,-1.0050000000000001,0.0038,-10.0219,7.221347491384714,16.153721057378124,20.06999969482422,20.229999542236328,20.0,20.35999870300293,16.297024797594453,16.426946148891677,16.2401844,16.53250666602642,16.37416550312814,0.013646666608083368,4.300000190734863,0.0,0.0,0.0,0.0,0.0,0.0,,,,,
pylon_camera_1771860533841395178.png,1771860533841395178,1771860533.8413951,42.30097501150573,-83.69776750270601,238.14930725097656,-0.006581869618084214,-0.9995071882401766,-0.00659405520487385,-0.02997629204057481,-0.015690000000000003,-0.006630000000000001,-0.009010000000000002,-1.1612,-0.3755,-11.613900000000001,7.2285060633524525,16.169734353355636,20.119998931884766,20.299999237060547,20.119998931884766,20.299999237060547,16.337624639080584,16.48378654648613,16.337624639080584,16.48378654648613,16.41070559278336,0.014902609663325385,4.599999904632568,0.0,0.0,0.0,0.0,0.0,0.0,,,,,
pylon_camera_1771860533891998522.png,1771860533891998522,1771860533.8919985,42.300975010400464,-83.69777277691976,238.1425323486328,-0.006136931647961309,-0.9994782977817134,-0.006646852381343254,-0.031004672014680112,-0.06431,-0.06684000000000001,-0.00515,-1.8952,-2.1802,-15.5089,7.223775529834254,16.159152433707437,20.020000457763672,20.18000030517578,20.229999542236328,20.649999618530273,16.256424956108322,16.38634630740555,16.426946148891677,16.767990083243063,16.459426873912154,0.018582313734373523,4.700000286102295,0.0,0.0,0.0,0.0,0.0,0.0,,,,,
pylon_camera_1771860533943796259.png,1771860533943796259,1771860533.9437962,42.3009749938382,-83.69777629434117,238.1422576904297,-0.005915624072838189,-0.9994487541125199,-0.0062883448668006135,-0.03205698073114702,-0.03730000000000001,-0.05165000000000001,0.00204,-1.3355000000000001,-2.0901,-8.092,7.235377163361798,16.18510459181054,20.1299991607666,20.229999542236328,20.239999771118164,20.189998626708984,16.34574491713474,16.426946148891677,16.43506642694584,16.394465036675037,16.400555632411823,0.013311686642439091,4.700000286102295,0.0,0.0,0.0,0.0,0.0,0.0,,,,,
pylon_camera_1771860533995189913.png,1771860533995189913,1771860533.99519,42.300974963023386,-83.69778156615237,238.13597106933594,-0.005681263692498829,-0.9994333882997565,-0.006405548518835881,-0.03255141383560848,-0.008140000000000001,0.019760000000000003,-0.004940000000000001,-0.7966000000000001,-0.8693000000000001,-7.8481000000000005,7.226928508723672,16.166205458304333,20.209999084472656,20.219999313354492,20.299999237060547,20.260000228881836,16.410705592783355,16.41882587083752,16.48378654648613,16.451306983054163,16.44115624829029,0.01700775056305622,4.599999904632568,0.0,0.0,0.0,0.0,0.0,0.0,,,,,
pylon_camera_1771860534044731304.png,1771860534044731304,1771860534.0447314,42.30097493961925,-83.69778506956823,238.1282196044922,-0.00522071711626937,-0.9994528113156909,-0.006713526669517076,-0.03196483420278687,0.0018900000000000002,0.04855000000000001,-0.021950000000000004,-0.4436,0.4559,-9.2484,7.214375886047997,16.138125994536207,20.270000457763672,20.239999771118164,20.28999900817871,20.34000015258789,16.459427261108324,16.43506642694584,16.47566626843197,16.516267658702777,16.471606903797227,0.020664165676604878,4.599999904632568,0.0,0.0,8.0,0.0,0.0,0.0,,,,,
pylon_camera_1771860534095888475.png,1771860534095888475,1771860534.0958884,42.30097490017531,-83.69779032110691,238.11367797851562,-0.004846741867541805,-0.9994811996189945,-0.007244006021998458,-0.031005887798906718,-0.015370000000000002,0.05688000000000001,-0.019530000000000002,-0.4989,-0.0374,-8.2882,7.211740938337299,16.13223177460424,20.189998626708984,20.34000015258789,20.189998626708984,20.309999465942383,16.394465036675037,16.516267658702777,16.394465036675037,16.49190682454029,16.449276139148285,0.01965285206496629,4.599999904632568,0.0,0.0,0.0,0.0,0.0,0.0,,,,,
pylon_camera_1771860534144256412.png,1771860534144256412,1771860534.1442566,42.30097487172854,-83.69779383061245,238.10289001464844,-0.00450790671398782,-0.9994902503640897,-0.00754472428605016,-0.030691942584904257,-0.0006700000000000001,-0.026120000000000004,-0.00969,-1.5255,0.6279,-11.074,7.243410409477534,16.203074481376674,20.309999465942383,20.479999542236328,20.239999771118164,20.219999313354492,16.49190682454029,16.62994845389168,16.43506642694584,16.41882587083752,16.49393689405383,0.017951063115303555,4.900000095367432,0.0,0.0,0.0,0.0,0.0,0.0,,,,,
pylon_camera_1771860534194267498.png,1771860534194267498,1771860534.1942673,42.300974837263155,-83.69779908363985,238.08554077148438,-0.0039979185027882455,-0.999534523669015,-0.007247022119712723,-0.029363809558646283,0.016290000000000002,0.015430000000000001,-0.007470000000000001,-2.4909000000000003,0.5727,-9.9793,7.209256449981255,16.12667412322107,20.31999969482422,20.489999771118164,20.18000030517578,20.18000030517578,16.50002710259445,16.63806873194584,16.38634630740555,16.38634630740555,16.477697112337847,0.021766607698194527,5.800000190734863,0.0,0.0,0.0,0.0,0.0,0.0,,,,,
pylon_camera_1771860534244791327.png,1771860534244791327,1771860534.2447913,42.30097481406022,-83.69780257962539,238.07347106933594,-0.003549618626680962,-0.9996012886904735,-0.006824855113209453,-0.02716772365571021,0.020120000000000002,0.10519000000000002,-0.0036900000000000006,-2.1783,1.5806,-9.7089,7.178052280228077,16.056872267733397,20.719999313354492,20.469999313354492,20.34000015258789,20.350000381469727,16.824830480837516,16.621828175837518,16.516267658702777,16.524387936756934,16.621828563033688,0.035184703837719516,8.40000057220459,0.0,0.0,0.0,0.0,0.0,0.0,,,,,
pylon_camera_1771860534295011174.png,1771860534295011174,1771860534.295011,42.30097478193105,-83.69780780282119,238.0584716796875,-0.002890966917197369,-0.9996755508271657,-0.00612737518160408,-0.024553831922338686,0.028790000000000007,0.09159,-0.02035,-0.3242,-0.6476000000000001,-11.5562,7.179031757564953,16.05906329976735,20.420000076293945,20.420000076293945,20.279998779296875,20.279998779296875,16.581228334351387,16.581228334351387,16.467545990377808,16.467545990377808,16.524387162364597,0.0289757785937608,10.600000381469727,0.0,0.0,0.0,0.0,0.0,0.0,,,,,
pylon_camera_1771860534346320208.png,1771860534346320208,1771860534.3463202,42.300974752031244,-83.69781128959126,238.0514373779297,-0.0021374390788880264,-0.9997251919299392,-0.0066600924166808125,-0.022374430581164315,0.0021600000000000005,0.04440000000000001,-0.046000000000000006,0.5496,0.3542,-12.378,7.197784467159439,16.101011985967634,20.31999969482422,19.829999923706055,20.260000228881836,20.35999870300293,16.50002710259445,16.102142770648612,16.451306983054163,16.53250666602642,16.39649588058091,0.018351883401540044,13.199999809265137,0.0,0.0,0.0,0.0,0.0,0.0,,,,,
pylon_camera_1771860534396310373.png,1771860534396310373,1771860534.3963103,42.30097469768371,-83.69781653331374,238.0455322265625,-0.0012168090232852484,-0.9997472277418746,-0.007350641747646958,-0.021212450686671998,-0.00024,0.00026000000000000003,-0.06302,0.7014,2.6064000000000003,-9.860800000000001,7.212966174712094,16.13497255486047,20.189998626708984,19.689998626708984,20.18000030517578,20.389999389648438,16.394465036675037,15.988460426675033,16.38634630740555,16.556867500188904,16.33153481773613,0.012182373549587915,15.90000057220459,0.0,0.0,0.0,0.0,0.0,0.0,,,,,
pylon_camera_1771860534447246798.png,1771860534447246798,1771860534.4472468,42.30097465545878,-83.69782001413866,238.0429229736328,-1.251808894231528e-05,-0.9997865158525119,-0.006417493990266797,-0.01964022234286543,-0.009670000000000002,0.07221000000000001,-0.050190000000000005,1.3638000000000001,2.0006,-7.9642,7.1789385400183265,16.058854777708596,20.270000457763672,20.059999465942383,20.170000076293945,20.439998626708984,16.459427261108324,16.288904519540292,16.37822602935139,16.597467341675035,16.43100628791876,0.023174224772662413,17.80000114440918,0.0,0.0,0.0,0.0,0.0,0.0,,,,,
pylon_camera_1771860534497061562.png,1771860534497061562,1771860534.4970617,42.30097460561914,-83.69782523107907,238.0381622314453,0.001527948518672217,-0.9998338374311374,-0.004534276089392197,-0.0175898618924498,0.013570000000000002,0.10508000000000002,-0.07733000000000001,0.5369,-2.4976000000000003,-8.488100000000001,7.148830287690994,15.991504423747493,20.439998626708984,20.270000457763672,20.260000228881836,20.389999389648438,16.597467341675035,16.459427261108324,16.451306983054163,16.556867500188904,16.516267271506607,0.03281510193498975,19.30000114440918,0.0,0.0,0.0,0.0,0.0,0.0,,,,,
pylon_camera_1771860534548216518.png,1771860534548216518,1771860534.5482166,42.300974565074014,-83.69782870980626,238.03334045410156,0.002996481846581633,-0.9998756552309415,-0.00369982017662601,-0.015033512686633266,0.013900000000000003,0.13336,-0.08596000000000001,0.6215,-4.3699,-7.4830000000000005,7.165622507061686,16.02906761094657,20.1299991607666,20.479999542236328,20.34000015258789,20.579999923706055,16.34574491713474,16.62994845389168,16.516267658702777,16.711149685648614,16.550777678844454,0.03254774891220741,20.30000114440918,0.0,0.0,0.0,0.0,0.0,0.0,,,,,
pylon_camera_1771860534598156487.png,1771860534598156487,1771860534.5981565,42.30097447703017,-83.69783393123713,238.02310180664062,0.004485298686416395,-0.9998822589820451,-0.004371098442665575,-0.01400870326122881,0.03725,0.029880000000000004,-0.08576000000000002,-0.7319,-3.1083000000000003,-15.1182,7.174497759719139,16.04892101862613,20.020000457763672,20.479999542236328,19.979999542236328,20.43000030517578,16.256424956108322,16.62994845389168,16.22394384389168,16.589348612405548,16.424916466574306,0.02342808264255271,20.30000114440918,0.0,0.0,0.0,0.0,0.0,0.0,,,,,
pylon_camera_1771860534649057983.png,1771860534649057983,1771860534.649058,42.30097441457143,-83.69783742821022,238.01991271972656,0.006000202010937261,-0.9998691259960915,-0.004784098841759391,-0.014242220820945702,0.01012,-0.07286000000000001,-0.08235000000000002,-1.1197000000000001,-0.8555,-14.6868,7.2077518786763095,16.123308487486185,19.939998626708984,20.239999771118164,19.829999923706055,20.31999969482422,16.191462731675035,16.43506642694584,16.102142770648612,16.50002710259445,16.307174757965985,0.011403755663578905,19.399999618530273,0.0,0.0,28.0,0.0,0.0,0.0,,,,,
pylon_camera_1771860534699349500.png,1771860534699349500,1771860534.6993494,42.30097429486888,-83.69784267790251,238.02320861816406,0.007486064956489125,-0.9998357744385232,-0.004675399712367836,-0.01582793801842632,-0.006440000000000001,-0.07013,-0.05645000000000001,-0.1452,0.3674,-8.4597,7.216326528257588,16.14248946412053,19.81999969482422,20.10999870300293,19.979999542236328,19.850000381469727,16.094022492594455,16.32950436102642,16.22394384389168,16.118383326756934,16.19146350606737,0.0030338593099716814,18.5,0.0,0.0,0.0,0.0,0.0,0.0,,,,,
pylon_camera_1771860534750540360.png,1771860534750540360,1771860534.7505403,42.300974153424725,-83.69784793632331,238.02940368652344,0.008698327805585993,-0.999780338188125,-0.005790944212573944,-0.018168088258046066,-0.016860000000000003,-0.08413000000000001,-0.03878000000000001,0.8535,2.1705,-7.9442,7.20684192352389,16.12127297240753,19.889999389648438,20.149999618530273,20.079999923706055,19.779998779296875,16.150862890188904,16.361985473243067,16.305145075648614,16.061541380377808,16.219883704864596,0.006116808060122949,17.200000762939453,0.0,0.0,0.0,0.0,0.0,0.0,,,,,
pylon_camera_1771860534800596183.png,1771860534800596183,1771860534.8005962,42.30097403527314,-83.69785142971259,238.03187561035156,0.009874366123008849,-0.9997261724031878,-0.00798886387655453,-0.019653375275057252,-0.11335000000000002,-0.031520000000000006,-0.016360000000000003,0.1767,4.2253,-8.0672,7.175673338726859,16.05155071833166,19.850000381469727,20.010000228881836,19.889999389648438,19.959999084472656,16.118383326756934,16.24830467805416,16.150862890188904,16.207703287783357,16.18131354569584,0.008084130290040008,16.100000381469727,0.0,0.0,0.0,0.0,0.0,0.0,,,,,
pylon_camera_1771860534851867491.png,1771860534851867491,1771860534.8518674,42.3009738601189,-83.6978566632149,238.0330352783203,0.011023755731462581,-0.999681783715965,-0.008675480961936863,-0.020965308157012814,-0.04214000000000001,-0.015170000000000001,-0.00661,-0.8220000000000001,5.474600000000001,-10.5403,7.155468143931261,16.006352909885596,19.920000076293945,20.0,19.59000015258789,19.889999389648438,16.175223724351387,16.2401844,15.907260743702773,16.150862890188904,16.118382939560767,0.006999097814842084,14.800000190734863,0.0,0.0,0.0,0.0,0.0,0.0,,,,,
pylon_camera_1771860534901375902.png,1771860534901375902,1771860534.901376,42.30097375654099,-83.69786015852547,238.03619384765625,0.012342463280177518,-0.9996342177099541,-0.008043997207630875,-0.022680134314177088,-0.021790000000000004,-0.10163000000000001,-0.032060000000000005,-0.6938000000000001,-0.44420000000000004,-11.267800000000001,7.179663227566217,16.060475860271975,19.779998779296875,19.93000030517578,19.75,19.809999465942383,16.061541380377808,16.183344002405548,16.037182095000002,16.08590221454029,16.09199242308091,0.0019623679325029425,14.0,0.0,0.0,0.0,0.0,0.0,0.0,,,,,
pylon_camera_1771860534952261527.png,1771860534952261527,1771860534.9522617,42.30097360197524,-83.6978653668941,238.03939819335938,0.013465491661880657,-0.9995978194636487,-0.0079607809378866,-0.02365387546855025,-0.03964000000000001,-0.06863000000000001,-0.015680000000000003,-1.701,1.3462,-6.152900000000001,7.15175078649547,15.998037404343178,19.850000381469727,20.0,19.869998931884766,20.029998779296875,16.118383326756934,16.2401844,16.134622334080582,16.26454368537781,16.18943343655383,0.011963719509662627,14.100000381469727,0.0,0.0,0.0,0.0,0.0,0.0,,,,,
pylon_camera_1771860535002846890.png,1771860535002846890,1771860535.002847,42.300973488536236,-83.69786882605763,238.03807067871094,0.01481605668266045,-0.9995824778403412,-0.008074487525070149,-0.023455428159550835,-0.013840000000000002,0.04488000000000001,-0.035070000000000004,-0.2644,0.886,-9.6472,7.107335265362499,15.89868254849999,19.850000381469727,20.059999465942383,19.969999313354492,20.09000015258789,16.118383326756934,16.288904519540292,16.215823565837518,16.313265353702775,16.234094191459377,0.02109681993688421,13.100000381469727,0.0,0.0,0.0,0.0,0.0,0.0,,,,,
pylon_camera_1771860535055862366.png,1771860535055862366,1771860535.0558622,42.3009733088814,-83.69787402579945,238.03378295898438,0.01614172485091181,-0.999560124664798,-0.008422821408622796,-0.023410638146991253,-0.019850000000000003,-0.0049700000000000005,-0.04587,1.0091,-1.1359000000000001,-9.6593,7.13763388857173,15.966458750701648,19.90999984741211,20.03999900817871,19.889999389648438,20.029998779296875,16.167103446297226,16.27266396343197,16.150862890188904,16.26454368537781,16.21379349632398,0.015490895600845937,11.5,0.0,0.0,0.0,0.0,0.0,0.0,,,,,
pylon_camera_1771860535103287206.png,1771860535103287206,1771860535.1032872,42.30097318168301,-83.69787749104356,238.02989196777344,0.01682597321317697,-0.9995398876741576,-0.00857015656403659,-0.023737143683044765,-0.009580000000000002,-0.00859,-0.03783,-1.0088000000000001,-1.6812,-8.980500000000001,7.13822382603902,15.967778405419727,19.829999923706055,19.989999771118164,19.889999389648438,20.049999237060547,16.102142770648612,16.23206412194584,16.150862890188904,16.28078424148613,16.19146350606737,0.014008529863598443,10.199999809265137,0.0,0.0,0.0,0.0,0.0,0.0,,,,,
pylon_camera_1771860535154478341.png,1771860535154478341,1771860535.1544783,42.30097297421942,-83.69788268910413,238.021484375,0.017777754016192915,-0.9995168160405243,-0.009000625544997073,-0.023855285664840988,-0.02111,0.007480000000000001,-0.031150000000000004,-1.7183000000000002,-1.3989,-9.6452,7.122549463983432,15.9327157979631,19.889999389648438,20.020000457763672,19.889999389648438,20.03999900817871,16.150862890188904,16.256424956108322,16.150862890188904,16.27266396343197,16.207703674979523,0.017259322296552786,9.300000190734863,0.0,0.0,0.0,0.0,0.0,0.0,,,,,
pylon_camera_1771860535204150510.png,1771860535204150510,1771860535.2041504,42.30097282928412,-83.69788615082946,238.01463317871094,0.018430618454708503,-0.9995129964766989,-0.009545058313834301,-0.023301803349371108,-0.017490000000000002,0.023840000000000004,-0.026880000000000005,-1.1747,-0.5281,-10.164100000000001,7.118472672521694,15.92359626007068,19.979999542236328,20.03999900817871,19.850000381469727,20.029998779296875,16.22394384389168,16.27266396343197,16.118383326756934,16.26454368537781,16.2198837048646,0.018606817201016198,8.699999809265137,0.0,0.0,0.0,0.0,0.0,0.0,,,,,
pylon_camera_1771860535254910195.png,1771860535254910195,1771860535.2549102,42.300972604708726,-83.69789132937261,238.00439453125,0.019056374212935878,-0.9995100296910565,-0.010113869779250636,-0.02267740697099676,-0.017450000000000004,0.005330000000000001,-0.02355,-0.5899,0.2914,-10.4342,7.1160620125506755,15.918203758355109,19.939998626708984,20.0,19.84000015258789,19.94999885559082,16.191462731675035,16.2401844,16.110263048702777,16.199583009729196,16.185373297526752,0.01678389994420143,8.600000381469727,0.0,0.0,0.0,0.0,0.0,0.0,,,,,
pylon_camera_1771860535305152974.png,1771860535305152974,1771860535.3051531,42.300972450515474,-83.69789477580653,237.9986114501953,0.01969964825705317,-0.9995033984351251,-0.010725822727808032,-0.022132263824455312,-0.025700000000000004,0.020970000000000003,-0.024890000000000006,-0.2555,0.7543000000000001,-10.679400000000001,7.09850482691554,15.878929387520449,19.85999870300293,20.0,19.809999465942383,19.979999542236328,16.12650205602642,16.2401844,16.08590221454029,16.22394384389168,16.169133128614597,0.018276026929260385,8.5,0.0,0.0,0.0,0.0,0.0,0.0,,,,,
pylon_camera_1771860535356068508.png,1771860535356068508,1771860535.3560686,42.30097222174291,-83.69789994858772,237.99319458007812,0.020339832300670713,-0.9994852460165629,-0.011091109078308552,-0.022192825791337287,-0.00572,-0.029510000000000005,-0.024840000000000004,-1.2781,0.5314,-11.8842,7.097070291904796,15.875720418773515,19.739999771118164,19.979999542236328,19.69999885559082,19.8799991607666,16.029061816945838,16.22394384389168,15.996580704729196,16.142742612134743,16.098082244425363,0.014006408514784562,8.40000057220459,0.0,0.0,0.0,0.0,0.0,0.0,,,,,
pylon_camera_1771860535406045111.png,1771860535406045111,1771860535.4060452,42.30097207184922,-83.69790339510388,237.99217224121094,0.020989754457795384,-0.9994596095063619,-0.010673519902334252,-0.02293458406177596,0.022080000000000002,-0.06521000000000002,-0.026730000000000004,-0.6027,-0.8272,-10.6492,7.104562641976608,15.892480356343155,19.729999542236328,19.760000228881836,19.889999389648438,19.920000076293945,16.020941538891677,16.04530237305416,16.150862890188904,16.175223724351387,16.09808263162153,0.012937079088243967,8.300000190734863,0.0,0.0,0.0,0.0,0.0,0.0,,,,,
pylon_camera_1771860535456942303.png,1771860535456942303,1771860535.4569423,42.30097184511158,-83.69790857519892,237.9920654296875,0.02158790176223474,-0.999427168624301,-0.010698259793053055,-0.02376645431100514,-0.021140000000000003,-0.05108000000000001,-0.013670000000000002,-0.5973,0.47390000000000004,-7.021100000000001,7.109353147696118,15.903196430207355,19.65999984741211,19.809999465942383,19.869998931884766,19.889999389648438,15.964101141297226,16.08590221454029,16.134622334080582,16.150862890188904,16.083872145026753,0.011360968570834764,8.199999809265137,0.0,0.0,0.0,0.0,0.0,0.0,,,,,
pylon_camera_1771860535507161086.png,1771860535507161086,1771860535.5071611,42.30097168914014,-83.69791202889115,237.9879913330078,0.022339014342328767,-0.9993863367529228,-0.011390750049419088,-0.024457497073475776,-0.021030000000000004,-0.010390000000000002,-0.024,-0.5384,1.3411,-8.7786,7.092728370148135,15.86600780031917,19.8799991607666,19.93000030517578,19.78999900817871,19.850000381469727,16.142742612134743,16.183344002405548,16.06966165843197,16.118383326756934,16.128532899932296,0.01654638664729787,7.900000095367432,0.0,0.0,0.0,0.0,0.0,0.0,,,,,
pylon_camera_1771860535557730021.png,1771860535557730021,1771860535.55773,42.30097145757118,-83.69791719074546,237.97845458984375,0.02304328891728158,-0.999351885543454,-0.011550479595120813,-0.0251277161266301,-0.014060000000000001,-0.030780000000000005,-0.0273,-0.6307,0.24580000000000002,-10.116200000000001,7.090606481917495,15.861261263660523,19.729999542236328,19.829999923706055,19.670000076293945,19.75,16.020941538891677,16.102142770648612,15.972221419351389,16.037182095000002,16.03312195597292,0.01083524755412381,7.400000095367432,0.0,0.0,0.0,0.0,0.0,0.0,,,,,
pylon_camera_1771860535608281723.png,1771860535608281723,1771860535.6082816,42.300971293825484,-83.69792063184684,237.9720001220703,0.023675651735739933,-0.9993128871996148,-0.011522487755640604,-0.02608542251103283,-0.008820000000000001,-0.046270000000000006,-0.021650000000000003,-1.0179,-0.2615,-10.4176,7.094341820838582,15.869616992706659,19.69999885559082,19.779998779296875,19.549999237060547,19.739999771118164,15.996580704729196,16.061541380377808,15.874779631486131,16.029061816945838,15.990490883384744,0.007616686069590502,7.099999904632568,0.0,0.0,0.0,0.0,0.0,0.0,,,,,
pylon_camera_1771860535659183175.png,1771860535659183175,1771860535.659183,42.30097104654119,-83.69792579607987,237.96316528320312,0.024236246755851454,-0.9992654043887972,-0.011398909959104414,-0.027410231422360643,0.00267,-0.05539000000000001,-0.02355,-1.5031,-0.4197,-10.1251,7.096353680025003,15.874117400995132,19.65999984741211,19.739999771118164,19.600000381469727,19.649999618530273,15.964101141297226,16.029061816945838,15.915381021756936,15.955980863243067,15.966131210810765,0.005796467765185147,7.200000286102295,0.0,0.0,0.0,0.0,0.0,0.0,,,,,
pylon_camera_1771860535709190614.png,1771860535709190614,1771860535.7091906,42.300970878716036,-83.69792923936615,237.95816040039062,0.02479039573142028,-0.9992145589403557,-0.011498960598804904,-0.028696260841040017,-0.0005200000000000001,-0.06004000000000001,-0.02365,-0.7369,-0.49610000000000004,-10.9689,7.097641411905032,15.876997979946843,19.60999870300293,19.719999313354492,19.579999923706055,19.619998931884766,15.923499751026421,16.01282126083752,15.899140465648614,15.931620029080582,15.941770376648284,0.004079637522361009,7.300000190734863,0.0,0.0,0.0,0.0,0.0,0.0,,,,,
pylon_camera_1771860535760565934.png,1771860535760565934,1771860535.760566,42.300970622528965,-83.69793439841665,237.95306396484375,0.025288266301935647,-0.9991634541649879,-0.011663261169347103,-0.02994768417470989,0.00923,-0.049190000000000005,-0.024900000000000002,-0.6496000000000001,0.6549,-9.3536,7.087244295892663,15.853740255254136,19.649999618530273,19.68000030517578,19.69999885559082,19.65999984741211,15.955980863243067,15.980341697405548,15.996580704729196,15.964101141297226,15.97425110166876,0.00760141420726786,7.200000286102295,0.0,0.0,0.0,0.0,0.0,0.0,,,,,
pylon_camera_1771860535809948038.png,1771860535809948038,1771860535.8099482,42.30097036509652,-83.69793954693884,237.9491424560547,0.02583444857756395,-0.9991209162448302,-0.011422701795541678,-0.030975762661702228,0.033710000000000004,-0.041010000000000005,-0.024390000000000002,0.35350000000000004,0.6297,-10.506,7.080336149555105,15.838287146385799,19.559999465942383,19.739999771118164,19.709999084472656,19.719999313354492,15.882899909540292,16.029061816945838,16.004700982783355,16.01282126083752,15.982370992526752,0.009097186129361981,7.200000286102295,0.0,0.0,0.0,0.0,0.0,0.0,,,,,
pylon_camera_1771860535861086574.png,1771860535861086574,1771860535.8610864,42.30097019412359,-83.69794297398126,237.94509887695312,0.026429389931609648,-0.9990865101817763,-0.010838169243535995,-0.031783118287712644,0.028950000000000004,-0.033670000000000005,-0.030410000000000003,-0.46330000000000005,0.37460000000000004,-7.8139,7.06958224320424,15.814231303113294,19.559999465942383,19.75,19.779998779296875,19.78999900817871,15.882899909540292,16.037182095000002,16.061541380377808,16.06966165843197,16.01282126083752,0.012557673776096196,7.200000286102295,0.0,0.0,0.0,0.0,0.0,0.0,,,,,
pylon_camera_1771860535911128437.png,1771860535911128437,1771860535.9111283,42.30096993143638,-83.6979480998534,237.93551635742188,0.0270014749386166,-0.9990732678803905,-0.010419047181009104,-0.031858581477783914,0.023810000000000005,0.018830000000000003,-0.02467,-0.7579,0.5138,-8.0063,7.053535813881965,15.778336403505122,19.739999771118164,19.779998779296875,19.69999885559082,19.84000015258789,16.029061816945838,16.061541380377808,15.996580704729196,16.110263048702777,16.049361737688905,0.017177053857438042,7.200000286102295,0.0,0.0,0.0,0.0,0.0,0.0,,,,,
pylon_camera_1771860535962082731.png,1771860535962082731,1771860535.9620829,42.30096975500144,-83.69795150919849,237.9267578125,0.02760324100253103,-0.9990828073599428,-0.0099306666425934,-0.031192739282808826,0.007180000000000001,0.0476,-0.025340000000000005,-0.42800000000000005,-0.43270000000000003,-8.347800000000001,7.044552505749421,15.758241282211111,19.719999313354492,19.8799991607666,19.719999313354492,19.850000381469727,16.01282126083752,16.142742612134743,16.01282126083752,16.118383326756934,16.07169211514168,0.01989123197932065,7.200000286102295,0.0,0.0,0.0,0.0,0.0,0.0,,,,,
pylon_camera_1771860536012675567.png,1771860536012675567,1771860536.0126755,42.300969488702115,-83.69795661069078,237.90965270996094,0.028203418206315445,-0.9991142575475466,-0.009369670772755242,-0.029790549446172144,9e-05,0.06940000000000002,-0.020700000000000003,-0.9640000000000001,-0.7254,-9.242700000000001,7.028212325689498,15.721689279827867,19.770000457763672,19.84000015258789,19.69999885559082,19.809999465942383,16.053422651108324,16.110263048702777,15.996580704729196,16.08590221454029,16.061542154770144,0.021616816672387403,7.200000286102295,0.0,0.0,0.0,0.0,0.0,0.0,,,,,
pylon_camera_1771860536073914896.png,1771860536073914896,1771860536.0739148,42.300969215605555,-83.69796170072031,237.89004516601562,0.028916767031551993,-0.9991698741202957,-0.009013923525197916,-0.027242107436049625,0.005560000000000001,0.09925000000000002,-0.023250000000000003,-0.4132,-0.6683,-9.501800000000001,7.016860716222808,15.696296410547449,19.829999923706055,19.959999084472656,19.75,19.8799991607666,16.102142770648612,16.207703287783357,16.037182095000002,16.142742612134743,16.12244269139168,0.027149479705153436,7.200000286102295,0.0,0.0,0.0,0.0,0.0,0.0,,,,,
pylon_camera_1771860536113188464.png,1771860536113188464,1771860536.1131883,42.300969028676114,-83.69796509255256,237.87771606445312,0.02938371789867611,-0.9991957868347154,-0.008663050883225113,-0.025871378849996247,0.022850000000000006,0.05868,-0.019180000000000003,-1.7983,-1.4284000000000001,-11.3222,7.0222410674319855,15.708331933381306,19.68000030517578,20.28999900817871,19.69999885559082,19.779998779296875,15.980341697405548,16.47566626843197,15.996580704729196,16.061541380377808,16.12853251273613,0.02675017189201786,7.300000190734863,0.0,0.0,0.0,0.0,0.0,0.0,,,,,
pylon_camera_1771860536164187938.png,1771860536164187938,1771860536.164188,42.300968837358795,-83.69796848564371,237.8667449951172,0.029968959071497214,-0.9992147508058141,-0.008611433495354353,-0.024445581960771758,0.04612000000000001,0.009620000000000002,-0.023840000000000004,-0.3518,-1.2139,-12.350000000000001,7.041248565182192,15.750850565398654,19.809999465942383,20.010000228881836,19.65999984741211,19.779998779296875,16.08590221454029,16.24830467805416,15.964101141297226,16.061541380377808,16.089962353567373,0.021529744489715168,7.700000286102295,0.0,0.0,0.0,0.0,0.0,0.0,,,,,
pylon_camera_1771860536213966761.png,1771860536213966761,1771860536.2139668,42.3009685400711,-83.6979735927055,237.85520935058594,0.030564752044289434,-0.9992037127516405,-0.0086085441925912,-0.02415842136175533,0.030910000000000003,-0.03393000000000001,-0.028000000000000004,0.0417,0.4894,-11.4235,7.061762720143632,15.796739499198097,19.639999389648438,19.779998779296875,19.619998931884766,19.799999237060547,15.947860585188904,16.061541380377808,15.931620029080582,16.07778193648613,16.004700982783355,0.01316483592046416,7.800000190734863,0.0,0.0,0.0,0.0,0.0,0.0,,,,,
pylon_camera_1771860536264972538.png,1771860536264972538,1771860536.2649724,42.30096834295431,-83.69797701013759,237.84970092773438,0.03139413478925518,-0.9991519208091256,-0.00853817856538054,-0.02523780796849071,0.013010000000000002,-0.05743000000000001,-0.025900000000000006,-0.4484,0.6471,-10.3781,7.070426329635038,15.816119473813803,19.510000228881836,19.68000030517578,19.529998779296875,19.739999771118164,15.842300068054161,15.980341697405548,15.85853907537781,16.029061816945838,15.927560664445839,0.007046051391843929,7.800000190734863,0.0,0.0,0.0,0.0,0.0,0.0,,,,,
pylon_camera_1771860536314806898.png,1771860536314806898,1771860536.3148067,42.300968043887806,-83.69798213122299,237.84283447265625,0.032040938651250406,-0.9990978265455206,-0.007897131231832165,-0.026731003734817186,0.03984000000000001,-0.05881000000000001,-0.028460000000000003,-0.5132,0.30960000000000004,-9.970600000000001,7.067871697027037,15.810404913947663,19.510000228881836,19.600000381469727,19.5,19.6299991607666,15.842300068054161,15.915381021756936,15.83417979,15.939740307134743,15.882900296736459,0.0045852957709414536,7.900000095367432,0.0,0.0,0.0,0.0,0.0,0.0,,,,,
pylon_camera_1771860536365945786.png,1771860536365945786,1771860536.3659458,42.300967845236336,-83.69798554698423,237.83847045898438,0.0326830817843638,-0.9990402444440822,-0.007038077018267905,-0.02829967522904967,0.03898000000000001,-0.07209,-0.023480000000000004,-0.7917000000000001,0.32020000000000004,-9.783900000000001,7.063373756034912,15.800343289824738,19.43000030517578,19.510000228881836,19.549999237060547,19.69999885559082,15.77733939240555,15.842300068054161,15.874779631486131,15.996580704729196,15.87274994916876,0.004582600391388406,8.100000381469727,0.0,0.0,0.0,0.0,0.0,0.0,,,,,
pylon_camera_1771860536416293932.png,1771860536416293932,1771860536.4162939,42.300967549428954,-83.6979906676589,237.83111572265625,0.033342548537487304,-0.998984189638009,-0.0059595600601367645,-0.02972115331217567,0.035870000000000006,-0.06583000000000001,-0.026240000000000003,0.1087,-1.0677,-10.2744,7.066103816393291,15.80645027104281,19.34000015258789,19.520000457763672,19.520000457763672,19.56999969482422,15.704258438702775,15.850420346108324,15.850420346108324,15.891020187594453,15.824029829628468,0.0011121762498354593,8.199999809265137,0.0,0.0,0.0,0.0,0.0,0.0,,,,,
pylon_camera_1771860536466703752.png,1771860536466703752,1771860536.466704,42.3009673469442,-83.69799407743821,237.82627868652344,0.03390971845962021,-0.9989207227974861,-0.00550910075676163,-0.03125972438440418,-0.009200000000000002,-0.07046000000000001,-0.021150000000000002,-0.13570000000000002,-0.4204,-9.959200000000001,7.055851459369806,15.783516363522695,19.489999771118164,19.719999313354492,19.479999542236328,19.420000076293945,15.82605951194584,16.01282126083752,15.817939233891678,15.769219114351388,15.856509780256605,0.004624661263861651,8.0,0.0,0.0,0.0,0.0,0.0,0.0,,,,,
pylon_camera_1771860536517207851.png,1771860536517207851,1771860536.5172079,42.300967036764135,-83.69799919171416,237.8199005126953,0.034531137501028486,-0.9988555787297837,-0.005114702824896299,-0.0326951555782605,0.015930000000000003,-0.05647000000000001,-0.02806,-0.4178,-1.6706,-8.1839,7.041254487652937,15.750863813610362,19.44999885559082,19.670000076293945,19.6299991607666,19.28999900817871,15.793578399729196,15.972221419351389,15.939740307134743,15.663657048431968,15.842299293661824,0.005805108921864505,7.400000095367432,0.0,0.0,0.0,0.0,0.0,0.0,,,,,
pylon_camera_1771860536567861409.png,1771860536567861409,1771860536.5678616,42.300966827353285,-83.69800259202012,237.81585693359375,0.03515751197990896,-0.9987921635497009,-0.005004497156567245,-0.03395759696003322,0.07978,-0.04610000000000001,-0.05745000000000001,-0.2378,-3.7633,-10.8368,7.03897023504398,15.745754077579281,19.420000076293945,19.59000015258789,19.520000457763672,19.469999313354492,15.769219114351388,15.907260743702773,15.850420346108324,15.809818955837516,15.83417979,0.00561584488015281,6.5,0.0,0.0,0.0,0.0,0.0,0.0,,,,,
pylon_camera_1771860536618005124.png,1771860536618005124,1771860536.6180053,42.300966478632844,-83.69800768395116,237.80801391601562,0.0356115522213033,-0.9987379358152317,-0.005738661501023114,-0.034948829395217276,0.04429000000000001,-0.038720000000000004,-0.035690000000000006,-0.9563,0.7009000000000001,-7.8929,7.028505829081671,15.722345829305954,19.579999923706055,19.469999313354492,19.639999389648438,19.69999885559082,15.899140465648614,15.809818955837516,15.947860585188904,15.996580704729196,15.913350177851058,0.012148590968472234,5.599999904632568,0.0,0.0,0.0,0.0,0.0,0.0,,,,,
pylon_camera_1771860536669406364.png,1771860536669406364,1771860536.6694064,42.300966115095264,-83.69801276351751,237.79681396484375,0.03598822754226455,-0.9987116191904839,-0.006749767495520604,-0.03513388408708474,-0.031130000000000005,0.00136,-0.012280000000000001,0.09730000000000001,1.7169,-7.3559,7.021931914103296,15.707640375934227,19.479999542236328,19.439998626708984,19.579999923706055,19.75,15.817939233891678,15.785458121675035,15.899140465648614,16.037182095000002,15.884929979053833,0.011286838689739315,5.099999904632568,0.0,0.0,0.0,0.0,0.0,0.0,,,,,
pylon_camera_1771860536719164220.png,1771860536719164220,1771860536.7191641,42.30096587206951,-83.69801613762544,237.7869873046875,0.036344484031071767,-0.9987133483413256,-0.007125732867272319,-0.034640298158032046,-0.04131,0.029880000000000004,-0.012530000000000001,-0.6194000000000001,0.547,-7.7084,6.9956429897783465,15.648833629554776,19.579999923706055,19.65999984741211,19.559999465942383,19.809999465942383,15.899140465648614,15.964101141297226,15.882899909540292,16.08590221454029,15.958010932756606,0.019757210698304693,4.900000095367432,0.0,0.0,0.0,0.0,0.0,0.0,,,,,
pylon_camera_1771860536769882381.png,1771860536769882381,1771860536.7698824,42.30096552310295,-83.69802119140944,237.76771545410156,0.036728166236305815,-0.9987394303524395,-0.006841946411536893,-0.03352282555967464,0.015190000000000002,0.04911000000000001,-0.010650000000000001,-1.6996,1.0344,-9.181700000000001,6.983384730574523,15.621412639211373,19.729999542236328,19.68000030517578,19.6299991607666,19.78999900817871,16.020941538891677,15.980341697405548,15.939740307134743,16.06966165843197,16.002671300465984,0.024406157756668687,4.800000190734863,0.0,0.0,0.0,0.0,0.0,0.0,,,,,
pylon_camera_1771860536819862635.png,1771860536819862635,1771860536.8198626,42.300965303326436,-83.69802454766669,237.7532196044922,0.037246558119118534,-0.9987798361456203,-0.005635069052756665,-0.03193397585609527,0.06619000000000001,0.06589,-0.027540000000000005,-0.27940000000000004,-0.2184,-9.7728,6.983024058912458,15.620605838343636,19.68000030517578,19.799999237060547,19.719999313354492,19.689998626708984,15.980341697405548,16.07778193648613,16.01282126083752,15.988460426675033,16.014851330351057,0.025238809306593828,4.700000286102295,0.0,0.0,0.0,0.0,0.0,0.0,,,,,
pylon_camera_1771860536870990724.png,1771860536870990724,1771860536.8709908,42.300964982119226,-83.69802959276817,237.73178100585938,0.037862072165639915,-0.9988184276876345,-0.004171505531682707,-0.03017963791242026,0.07687000000000002,0.09008000000000001,-0.027460000000000002,-0.2137,-0.6910000000000001,-11.021,6.980223192868143,15.614340469054465,19.779998779296875,19.670000076293945,19.709999084472656,19.549999237060547,16.061541380377808,15.972221419351389,16.004700982783355,15.874779631486131,15.978310853499671,0.02331000692386253,4.5,0.0,0.0,0.0,0.0,0.0,0.0,,,,,
pylon_camera_1771860536921071335.png,1771860536921071335,1771860536.9210713,42.30096477287028,-83.69803296270685,237.719482421875,0.038436454834268774,-0.9988347847584977,-0.0030374169477252848,-0.029025605842156185,0.07997000000000001,0.029370000000000004,-0.04410000000000001,0.7065,-1.4677,-11.178600000000001,7.001579742863594,15.662113790001289,19.25,19.619998931884766,19.59000015258789,19.559999465942383,15.631177485000002,15.931620029080582,15.907260743702773,15.882899909540292,15.838239541830912,0.01124533726361139,4.099999904632568,0.0,0.0,0.0,0.0,0.0,0.0,,,,,
pylon_camera_1771860536972603751.png,1771860536972603751,1771860536.9726036,42.30096443764212,-83.69803802081391,237.7045440673828,0.03891591918301812,-0.9988307550005755,-0.001862290793397706,-0.028621774440480106,0.05041,-0.0035100000000000005,-0.023740000000000004,0.7685000000000001,-2.3957,-10.7802,7.01812553722159,15.699125739232466,18.94999885559082,19.529998779296875,19.600000381469727,19.6299991607666,15.387573789729194,15.85853907537781,15.915381021756936,15.939740307134743,15.77530854849967,0.004852678456916943,3.5,0.0,0.0,0.0,0.0,0.0,0.0,,,,,
pylon_camera_1771860537024225022.png,1771860537024225022,1771860537.024225,42.30096421369433,-83.69804139639355,237.69607543945312,0.03916390904741157,-0.9988129018746129,-0.0017044850713577395,-0.028914875195697454,-0.036910000000000005,-0.05854000000000001,0.0119,-0.2134,-1.9585000000000001,-10.8329,7.014775077984165,15.691630962945899,19.28999900817871,19.479999542236328,19.510000228881836,19.510000228881836,15.663657048431968,15.817939233891678,15.842300068054161,15.842300068054161,15.791549104607991,0.006367607159385689,2.0,0.0,0.0,0.0,0.0,0.0,0.0,,,,,
pylon_camera_1771860537081130329.png,1771860537081130329,1771860537.0811303,42.30096384761462,-83.69804644265436,237.68382263183594,0.03940762831100458,-0.9988054892538678,-0.0018800800468823722,-0.028828783641713204,0.01668,-0.004130000000000001,-0.015860000000000003,0.0689,0.0641,-8.713000000000001,6.975587711596524,15.60397117557873,20.0,19.439998626708984,19.5,19.369998931884766,16.2401844,15.785458121675035,15.83417979,15.728617724080582,15.897110008938906,0.01878616860167996,-0.30000001192092896,0.0,0.0,0.0,0.0,0.0,0.0,,,,,
pylon_camera_1771860537123206123.png,1771860537123206123,1771860537.1232061,42.30096359312033,-83.69804978928114,237.6749267578125,0.03942713298240519,-0.998813933602565,-0.002423615068570164,-0.02846670539696833,-0.08092,0.0036100000000000004,-0.00151,-1.8577000000000001,0.741,-10.9425,6.952144487796849,15.551530090532284,19.68000030517578,19.59000015258789,19.489999771118164,19.439998626708984,15.980341697405548,15.907260743702773,15.82605951194584,15.785458121675035,15.874780018682298,0.020785731453319033,-1.0,0.0,0.0,0.0,0.0,0.0,0.0,,,,,
pylon_camera_1771860537175644716.png,1771860537175644716,1771860537.1756446,42.300963214010224,-83.69805479650378,237.66285705566406,0.0394388779655494,-0.9988531181145469,-0.0032365798303169574,-0.02695455228096953,-0.033460000000000004,0.08045000000000001,0.00538,-1.9551,0.2731,-9.610800000000001,6.915764947707229,15.47015124212421,19.59000015258789,19.529998779296875,19.510000228881836,19.549999237060547,15.907260743702773,15.85853907537781,15.842300068054161,15.874779631486131,15.87071987965522,0.02589300073811088,-1.399999976158142,0.0,0.0,0.0,0.0,0.0,0.0,,,,,
pylon_camera_1771860537223544637.png,1771860537223544637,1771860537.2235446,42.30096296042108,-83.69805813474862,237.65553283691406,0.03943212080124747,-0.9988811197116632,-0.003519639566332994,-0.02586945438181833,0.018760000000000002,0.043100000000000006,0.0032700000000000003,-1.1543,0.4001,-11.328700000000001,6.924509072070951,15.489711323678392,19.600000381469727,19.44999885559082,19.59000015258789,19.559999465942383,15.915381021756936,15.793578399729196,15.907260743702773,15.882899909540292,15.8747800186823,0.024859643085489328,-1.2000000476837158,0.0,0.0,0.0,0.0,0.0,0.0,,,,,
pylon_camera_1771860537274194533.png,1771860537274194533,1771860537.2741945,42.300962588075215,-83.69806312909287,237.64601135253906,0.03940295272452521,-0.9989207056853155,-0.0031145179676311825,-0.024395303801539453,0.03588,0.05041,-0.006010000000000001,-1.6414,0.462,-10.2265,6.920744321738003,15.481289803068611,19.53999900817871,19.389999389648438,19.520000457763672,19.510000228881836,15.866659353431968,15.744858280188904,15.850420346108324,15.842300068054161,15.82605951194584,0.022270089460433077,-0.6000000238418579,0.0,0.0,0.0,0.0,0.0,0.0,,,,,
pylon_camera_1771860537324285868.png,1771860537324285868,1771860537.324286,42.30096234643236,-83.6980664602726,237.6407012939453,0.03932363405983064,-0.998946071607093,-0.002385542477475463,-0.023552218837576796,0.036570000000000005,0.023460000000000005,0.007700000000000001,-0.8376,3.083,-9.221400000000001,6.913419054873947,15.464903620609729,19.389999389648438,19.299999237060547,19.600000381469727,19.459999084472656,15.744858280188904,15.671777326486131,15.915381021756936,15.801698677783357,15.783428826553832,0.02059664992154315,-0.30000001192092896,0.0,0.0,0.0,0.0,0.0,0.0,,,,,
pylon_camera_1771860537375166529.png,1771860537375166529,1771860537.3751664,42.300962007142964,-83.69807144543802,237.6322784423828,0.039418153521217636,-0.9989659523496777,-0.0007239727563217481,-0.02264312439853002,0.09056000000000002,0.06932,0.005510000000000001,0.043300000000000005,2.8413,-9.3122,6.886707682366435,15.405151882992774,19.420000076293945,19.34000015258789,19.81999969482422,19.229999542236328,15.769219114351388,15.704258438702775,16.094022492594455,15.614936928891678,15.795609243635074,0.025345894906324357,-0.4000000059604645,0.0,0.0,0.0,0.0,0.0,0.0,,,,,
pylon_camera_1771860537425029014.png,1771860537425029014,1771860537.425029,42.30096179219305,-83.69807475263693,237.62513732910156,0.03961935378645748,-0.9989787194226167,0.0009525046288042498,-0.021700637806847955,0.09194000000000001,0.05038000000000001,-0.018080000000000002,0.459,-0.3126,-8.306700000000001,6.875863075191315,15.380893147418462,19.40999984741211,19.389999389648438,19.619998931884766,19.170000076293945,15.761098836297226,15.744858280188904,15.931620029080582,15.566216809351387,15.750948488729525,0.024059418251219954,-0.5,0.0,0.0,0.0,0.0,0.0,0.0,,,,,
pylon_camera_1771860537475937174.png,1771860537475937174,1771860537.4759374,42.300961453903206,-83.69807972368763,237.61221313476562,0.03969848502153833,-0.9989984784692694,0.0018429420453728914,-0.020559033724789077,0.04408000000000001,0.016010000000000003,-0.01352,0.3804,-1.4435,-10.1587,6.881713892707287,15.39398107515264,19.28999900817871,19.399999618530273,19.139999389648438,19.239999771118164,15.663657048431968,15.752978558243067,15.541855975188904,15.62305720694584,15.645387197202444,0.016331455834748158,-0.9000000357627869,0.0,0.0,0.0,0.0,0.0,0.0,,,,,
pylon_camera_1771860537525719321.png,1771860537525719321,1771860537.5257194,42.30096122794745,-83.69808303038533,237.60507202148438,0.03978858956707054,-0.9990092696174286,0.0024311876928468003,-0.01978475890975962,-0.011670000000000002,-0.010740000000000001,-0.00477,-0.6029,-1.7736,-9.8644,6.875083230720674,15.379148682128305,19.309999465942383,19.209999084472656,19.189998626708984,19.299999237060547,15.679897604540292,15.598696372783357,15.582455816675035,15.671777326486131,15.633206780121203,0.0165196463890184,-1.2000000476837158,0.0,0.0,0.0,0.0,0.0,0.0,,,,,
pylon_camera_1771860537576708830.png,1771860537576708830,1771860537.5767088,42.30096087425591,-83.69808797949223,237.59669494628906,0.03963661813292346,-0.9990228926914236,0.0024858854648715564,-0.01939120302871195,-0.03669000000000001,0.008530000000000001,0.00613,-1.5142,-1.7701,-12.532900000000001,6.853292292804023,15.330403661465033,19.209999084472656,19.15999984741211,19.09000015258789,19.260000228881836,15.598696372783357,15.558096531297227,15.501256133702775,15.639297763054161,15.574336700209379,0.015911716620841763,-1.399999976158142,0.0,0.0,0.0,0.0,0.0,0.0,,,,,
pylon_camera_1771860537626985028.png,1771860537626985028,1771860537.626985,42.30096063291435,-83.69809128704391,237.59274291992188,0.03933747214983485,-0.9990319552524092,0.00145423657638377,-0.019636722368791288,-0.05274000000000001,-0.008990000000000001,0.012700000000000001,-1.4008,-0.8041,-11.1624,6.850229589043604,15.3235525769152,19.15999984741211,19.139999389648438,19.139999389648438,19.209999084472656,15.558096531297227,15.541855975188904,15.541855975188904,15.598696372783357,15.560126213614598,0.015438563316955303,-1.7000000476837158,0.0,0.0,0.0,0.0,0.0,0.0,,,,,
