image_filename,timestamp_ns,timestamp_sec,latitude,longitude,altitude,orientation_x,orientation_y,orientation_z,orientation_w,angular_velocity_x,angular_velocity_y,angular_velocity_z,linear_acceleration_x,linear_acceleration_y,linear_acceleration_z,vehicle_speed_mps,vehicle_speed_mph,wheel_speed_fl_rads,wheel_speed_fr_rads,wheel_speed_rl_rads,wheel_speed_rr_rads,wheel_speed_fl_mph,wheel_speed_fr_mph,wheel_speed_rl_mph,wheel_speed_rr_mph,avg_wheel_speed_mph,wheel_slip,steering_angle_deg,throttle_pedal,brake_pedal,brake_torque_actual,abs_active,esc_active,trac_active,marwis_road_condition,marwis_friction,marwis_surface_temp_c,marwis_ice_percent,marwis_water_film_height
frame_00000.png,1771858398791695487,1771858398.7916954,42.30086453235112,-83.69725463586508,238.57083129882812,-0.029209658595021337,-0.9994226984930681,-0.013128336493580417,-0.011345147090588497,-0.00017,-0.0027700000000000003,-0.0015300000000000003,1.9355,0.7663000000000001,-9.433,1.0939298291104793,2.447055391930396,2.8499999046325684,14.0,2.8899998664855957,3.009999990463257,2.3142261995607667,11.368129080000001,2.3467065373850726,2.444147744456077,4.61830239035048,0.8872896811327444,0.20000000298023224,21.149999618530273,0.0,0.0,0.0,0.0,0.0,,,,,
frame_00001.png,1771858398829137629,1771858398.8291376,42.30086453235112,-83.69725463586508,238.57083129882812,-0.029209658595021337,-0.9994226984930681,-0.013128336493580417,-0.011345147090588497,-0.00017,-0.0027700000000000003,-0.0015300000000000003,1.9355,0.7663000000000001,-9.433,1.0939298291104793,2.447055391930396,3.129999876022339,17.18000030517578,3.2200000286102295,3.1599998474121094,2.541588757928996,13.950318647405549,2.6146697116317705,2.565949011297226,5.418131532065885,1.2141433945194482,-0.10000000149011612,21.200000762939453,0.0,0.0,0.0,0.0,0.0,,,,,
frame_00002.png,1771858398886615985,1771858398.886616,42.30086453235112,-83.69725463586508,238.57083129882812,-0.028759962261910577,-0.9994501871533656,-0.012664207234512684,-0.01057382735423939,0.01635,0.021220000000000006,-0.013120000000000001,2.392,0.4995,-9.5733,1.3511396939655838,3.0224184270193732,3.629999876022339,15.579999923706055,3.6499998569488525,3.5199999809265137,2.947593367928996,12.651103585648613,2.9638335368411495,2.858272438912153,5.355200732332728,0.771826390568258,0.20000000298023224,21.375,0.0,496.0,0.0,0.0,0.0,,,,,
frame_00003.png,1771858398929265865,1771858398.929266,42.30086453235112,-83.69725463586508,238.57083129882812,-0.02856629475285649,-0.9994648605082127,-0.012252216309104322,-0.010190319372159641,0.014570000000000001,0.015430000000000001,-0.007290000000000001,2.6263,-0.25,-9.2798,1.4656864081404948,3.2786525538257987,3.929999828338623,8.569999694824219,3.929999828338623,3.929999828338623,3.1911960952093796,6.958918767594452,3.1911960952093796,3.1911960952093796,4.133126763305648,0.26061749314753685,1.899999976158142,21.17500114440918,0.0,600.0,0.0,0.0,0.0,,,,,
frame_00004.png,1771858398980759064,1771858398.9807591,42.30086466517443,-83.69725819338457,238.56741333007812,-0.02858652940887174,-0.9994718359670344,-0.011996389204777086,-0.009744028483574071,0.004320000000000001,0.021960000000000004,0.00863,1.3113000000000001,-0.0708,-10.4539,1.5722965363700814,3.51713301406769,4.079999923706055,4.170000076293945,4.210000038146973,4.25,3.312997555648613,3.386078509351387,3.4185588471756936,3.451039185,3.3921685242939237,0.03553021431772362,3.4000000953674316,21.55000114440918,0.0,324.0,0.0,0.0,0.0,,,,,
frame_00005.png,1771858399018841590,1771858399.0188415,42.30086467912611,-83.69725859303637,238.56704711914062,-0.028671166603819298,-0.9994716796646141,-0.01178688135125748,-0.009767045714141156,0.020630000000000003,-0.013160000000000002,0.00768,1.2256,-0.3048,-10.430900000000001,1.666056641696952,3.72686874407758,4.509999752044678,4.579999923706055,4.309999942779541,4.319999694824219,3.6621613808579925,3.719002165648613,3.4997596917364597,3.507879582594452,3.5972007052093793,0.034792757076368225,3.4000000953674316,22.05000114440918,0.0,120.0,0.0,0.0,0.0,,,,,
frame_00006.png,1771858399070148712,1771858399.0701487,42.30086471574303,-83.69725983237065,238.56707763671875,-0.02873320814092456,-0.9994692257927487,-0.011681651442843097,-0.009960344509197748,0.00801,-0.019530000000000002,0.0023600000000000006,1.7122000000000002,0.5717,-10.526,1.7763804553888636,3.973656495877565,4.75,4.730000019073486,4.730000019073486,4.630000114440918,3.8570437950000005,3.8408036260878466,3.8408036260878466,3.7596027815270805,3.8245634571756937,0.037520364142332494,2.700000047683716,22.17500114440918,0.0,28.0,0.0,0.0,0.0,,,,,
frame_00007.png,1771858399120571718,1771858399.1205716,42.30086476003395,-83.69726115887869,238.56866455078125,-0.02850246679298074,-0.9994739783559403,-0.011556414702654588,-0.010287140287000182,0.0034500000000000004,-0.023190000000000002,-0.011120000000000001,2.1871,0.3773,-10.947000000000001,1.8724420635208399,4.188540549572307,4.96999979019165,5.069999694824219,5.009999752044678,5.029999732971191,4.035685653033686,4.116886497594452,4.068165990857993,4.084406159770146,4.076286075314069,0.02680037901738839,1.899999976158142,22.375,0.0,0.0,0.0,0.0,0.0,,,,,
frame_00008.png,1771858399179045743,1771858399.1790457,42.300864810787644,-83.69726256884391,238.5711669921875,-0.02819217750232611,-0.9994808096397928,-0.011370810741649286,-0.010677872097897652,0.0026800000000000005,-0.007500000000000001,-0.006620000000000001,1.8432000000000002,1.0211000000000001,-9.456800000000001,1.9840664619959743,4.438237631497275,5.269999980926514,5.339999675750732,5.339999675750732,5.369999885559082,4.279288573912154,4.336128971506605,4.336128971506605,4.36048941847292,4.328008983849571,0.02483613019398359,1.8000000715255737,22.30000114440918,0.0,0.0,0.0,0.0,0.0,,,,,
frame_00009.png,1771858399229682012,1771858399.229682,42.30086484248089,-83.69726355239783,238.57286071777344,-0.028009953505896856,-0.9994878490546686,-0.011170762571621914,-0.010709629323093958,0.007770000000000002,0.007370000000000001,0.00024,2.3312,0.7515000000000001,-9.196200000000001,2.082634155535955,4.658727647884599,5.639999866485596,5.730000019073486,5.779999732971191,5.679999828338623,4.579731892385073,4.652812846087847,4.693413074770145,4.612212230209379,4.6345425108631115,0.0051913610001368985,2.200000047683716,22.075000762939453,0.0,0.0,0.0,0.0,0.0,,,,,
frame_00010.png,1771858399280265757,1771858399.2802658,42.30086489085613,-83.69726511133985,238.57350158691406,-0.028017607399654088,-0.9994903804600377,-0.01096642997616975,-0.01066444827573532,0.004480000000000001,0.011040000000000001,0.008510000000000002,1.8879000000000001,0.7805000000000001,-9.015500000000001,2.187354012680999,4.892979685126634,5.940000057220459,5.900000095367432,6.019999980926514,5.920000076293945,4.82333481326354,4.790854475439234,4.888295488912154,4.807094644351388,4.827394855491579,0.013403863055964802,2.4000000953674316,21.975000381469727,0.0,0.0,0.0,0.0,0.0,,,,,
frame_00011.png,1771858399330505132,1771858399.3305051,42.30086492005201,-83.69726620002575,238.57257080078125,-0.028131564208281057,-0.9994911429268252,-0.010752107547500417,-0.01051011366784564,-0.009520000000000002,0.00868,0.009500000000000001,1.6164,-0.1165,-9.504000000000001,2.2850726783974515,5.1115704772143955,6.369999885559082,6.12999963760376,6.239999771118164,6.21999979019165,5.17249863847292,4.977616224330911,5.0669373469458385,5.050697178033686,5.066937346945839,0.008731784187954577,2.4000000953674316,22.024999618530273,0.0,0.0,0.0,0.0,0.0,,,,,
frame_00012.png,1771858399381593133,1771858399.381593,42.30086495817554,-83.69726790111152,238.57040405273438,-0.028248169671515833,-0.9994863892038669,-0.011105584929420447,-0.010279333139893564,-0.023320000000000004,0.007430000000000001,0.006450000000000001,1.5542,0.529,-10.0531,2.3794386658837694,5.32266152926204,6.5,6.609999656677246,6.599999904632568,6.549999713897705,5.2780599299999995,5.367380665418758,5.3592607745607665,5.318660158682299,5.330840382165456,0.0015366096187878985,2.200000047683716,22.30000114440918,0.0,0.0,0.0,0.0,0.0,,,,,
frame_00013.png,1771858399431675582,1771858399.4316757,42.30086498423476,-83.69726908607241,238.56947326660156,-0.028118945204156143,-0.9994877095823205,-0.011510260170402712,-0.010057694830451002,-0.018040000000000004,0.013480000000000002,-0.004660000000000001,1.4615,0.5811000000000001,-10.534,2.474816521855668,5.5360160703998185,6.839999675750732,6.799999713897705,6.739999771118164,6.829999923706055,5.554142801506606,5.521662463682299,5.4729419569458395,5.546022910648613,5.523692533195839,0.002226066009792013,2.200000047683716,22.0,0.0,0.0,0.0,0.0,0.0,,,,,
frame_00014.png,1771858399473306634,1771858399.4733067,42.30086501648826,-83.69727029888854,238.56871032714844,-0.027900903525928833,-0.9994975489201456,-0.011346099410346653,-0.00987194576711083,0.011340000000000001,0.0016700000000000003,-0.008740000000000001,1.7729000000000001,0.1061,-10.284600000000001,2.5542958504696327,5.713806559749541,7.069999694824219,7.039999961853027,6.989999771118164,7.119999885559082,5.740904937594452,5.716544877824306,5.675944261945839,5.78150555347292,5.728724907709379,0.0026109298247738396,2.200000047683716,22.149999618530273,0.0,0.0,0.0,0.0,0.0,,,,,
frame_00015.png,1771858399523079188,1771858399.5230792,42.3008650686777,-83.69727219476893,238.56883239746094,-0.027674736087750118,-0.9995052690024896,-0.01133653961263481,-0.009736995858348368,-0.019260000000000003,0.008910000000000001,0.0014900000000000002,1.8235000000000001,0.2252,-9.9834,2.643443178946041,5.913223784711557,7.239999771118164,7.369999885559082,7.299999713897705,7.289999961853027,5.878946566945839,5.98450785847292,5.927667073682299,5.9195471828243065,5.9276671704813415,0.0024425569360535604,2.0,22.125,0.0,0.0,0.0,0.0,0.0,,,,,
frame_00016.png,1771858399574100186,1771858399.5741003,42.30086510085033,-83.69727350521305,238.56930541992188,-0.027511816068404416,-0.9995008045823388,-0.011972293417643276,-0.009894736287405713,-0.015790000000000002,-0.0030900000000000003,-0.0043300000000000005,3.0084,1.6605,-9.9917,2.7373148570968184,6.123209096434158,7.480000019073486,7.569999694824219,7.519999980926514,7.549999713897705,6.073828981087847,6.146909547594452,6.106309318912153,6.130669378682298,6.114429306569188,0.001433854328130395,2.1000001430511475,21.92500114440918,0.0,0.0,0.0,0.0,0.0,,,,,
frame_00017.png,1771858399623953690,1771858399.6239536,42.30086515357215,-83.69727554209375,238.57073974609375,-0.027440394425077175,-0.999497553867164,-0.012095715286894805,-0.010264416157292181,-0.014720000000000002,-0.020470000000000002,9e-05,2.4666,0.9750000000000001,-9.5861,2.851166489283789,6.37788836653848,7.829999923706055,7.819999694824219,7.819999694824219,7.829999923706055,6.358032130648613,6.349911852594452,6.349911852594452,6.358032130648613,6.353971991621533,0.0037498892333117785,2.200000047683716,22.325000762939453,0.0,0.0,0.0,0.0,0.0,,,,,
frame_00018.png,1771858399675128978,1771858399.6751292,42.30086518754073,-83.69727694186683,238.57199096679688,-0.027386092437217735,-0.999499204767851,-0.01175431397222728,-0.010638501421521526,-0.029680000000000005,-0.011430000000000003,0.0017100000000000001,1.4531,-0.4601,-9.890500000000001,2.9281664224512816,6.5501325970381705,8.09999942779541,7.960000038146973,7.96999979019165,8.079999923706055,6.5772742173645975,6.463593422175694,6.471713313033686,6.5610344356486126,6.518403847055647,0.004843985906006003,2.0,22.25,0.0,0.0,0.0,0.0,0.0,,,,,
frame_00019.png,1771858399725035108,1771858399.725035,42.30086524571751,-83.697279099321,238.5730438232422,-0.027344445505861903,-0.9995023778989423,-0.011419414682176767,-0.010810866877988254,-0.029010000000000005,0.009450000000000002,0.006590000000000001,0.39690000000000003,-1.4989000000000001,-9.5197,3.0024107956049657,6.7162128051205725,8.15999984741211,8.34999942779541,8.359999656677246,8.420000076293945,6.625995111297226,6.7802765223645975,6.7883968004187585,6.837117694351387,6.757946532107993,0.006213877999160728,2.0,22.375,0.0,0.0,0.0,0.0,0.0,,,,,
frame_00020.png,1771858399795616890,1771858399.7956169,42.30086530723821,-83.69728132974552,238.5723419189453,-0.027226706854027005,-0.9995001751459208,-0.012141769571628335,-0.010520634430874693,-0.044360000000000004,0.015370000000000002,-0.00412,2.1873,-1.0815000000000001,-10.177200000000001,3.13068085878105,7.0031452402416825,8.75,8.699999809265137,8.639999389648438,8.59000015258789,7.105080675000001,7.064480059121533,7.015759165188904,6.9751593237027745,7.040119805753303,0.005279708508564998,1.7000000476837158,22.25,0.0,0.0,0.0,0.0,0.0,,,,,
frame_00021.png,1771858399827615505,1771858399.8276155,42.30086534457452,-83.69728285656542,238.5716094970703,-0.027225695455319665,-0.9994941125576894,-0.01263077017918464,-0.010523502942054003,-0.008530000000000001,-0.013410000000000002,-0.0073500000000000015,1.2454,0.9650000000000001,-9.3626,3.189883968584397,7.135579044685182,8.670000076293945,8.889999389648438,8.729999542236328,8.819999694824219,7.040119999351387,7.2187614701889045,7.088840118891678,7.161921072594452,7.127410665256606,0.001144739533739753,1.5,22.399999618530273,0.0,0.0,0.0,0.0,0.0,,,,,
frame_00022.png,1771858399896254592,1771858399.8962545,42.30086540129178,-83.69728520867152,238.57080078125,-0.027038400053442768,-0.9994915978109079,-0.013015358133658617,-0.010773638224881846,-0.009940000000000001,-0.005000000000000001,-0.005040000000000001,0.5111,-0.6376000000000001,-10.0538,3.2964898202611717,7.374049938535026,9.019999504089355,9.130000114440918,9.010000228881836,9.09999942779541,7.324322761715985,7.413644271527081,7.316203258054162,7.389283437364598,7.3608634321654565,0.0017882312270032228,0.9000000357627869,23.100000381469727,0.0,0.0,0.0,0.0,0.0,,,,,
frame_00023.png,1771858399946778851,1771858399.9467788,42.30086545623019,-83.6972876323259,238.5718536376953,-0.027053171982737823,-0.9994840922833923,-0.013234121976858138,-0.01115944324854003,-0.023810000000000005,-0.015070000000000002,0.005790000000000001,1.0235,-0.6545000000000001,-10.5595,3.3889240340706346,7.580819728773966,9.260000228881836,9.260000228881836,9.239999771118164,9.359999656677246,7.519205563054161,7.519205563054161,7.502965006945839,7.600406020418759,7.53544553836823,0.005985393668380204,0.5,24.225000381469727,0.0,0.0,0.0,0.0,0.0,,,,,
frame_00024.png,1771858399988748535,1771858399.9887486,42.30086548844337,-83.69728928719165,238.5732421875,-0.02704955083142435,-0.9994676401157332,-0.014158316272411493,-0.011502184211529895,-0.035500000000000004,-0.014310000000000002,-0.0006600000000000001,1.8011000000000001,0.5025000000000001,-9.3922,3.4465521207181675,7.709730300919298,9.510000228881836,9.529999732971191,9.5,9.550000190734863,7.722207868054161,7.738447649770146,7.714087590000001,7.754688205878468,7.732357828425695,0.002934931135489741,0.5,24.700000762939453,0.0,0.0,0.0,0.0,0.0,,,,,
frame_00025.png,1771858400028320935,1771858400.028321,42.30086552322001,-83.69729097596107,238.5744171142578,-0.02698083571234927,-0.9994557300028201,-0.014905264067716546,-0.011752079469817494,-0.02111,0.00042000000000000007,-0.00581,1.7453,1.0591000000000002,-9.169500000000001,3.510879503274243,7.853626796054285,9.65999984741211,9.59999942779541,9.59000015258789,9.889999389648438,7.844008941297226,7.795288047364597,7.787168543702775,8.030770690188904,7.864309055638374,0.0013601689845328855,0.5,24.825000762939453,0.0,0.0,0.0,0.0,0.0,,,,,
frame_00026.png,1771858400079045031,1771858400.079045,42.30086558189978,-83.69729356151682,238.57720947265625,-0.026836873860850152,-0.9994542001891027,-0.014785575661709748,-0.012347901768696235,0.004000000000000001,-0.0061,-0.004240000000000001,0.6873,0.7583000000000001,-9.5243,3.5768564491881896,8.00121326544703,9.929999351501465,10.0,9.84000015258789,9.960000038146973,8.06325102801321,8.1200922,7.990170848702774,8.087611862175693,8.06528148472292,0.008007313034957714,0.5,25.30000114440918,0.0,0.0,0.0,0.0,0.0,,,,,
frame_00027.png,1771858400128821337,1771858400.1288211,42.30086562501987,-83.69729531888153,238.57923889160156,-0.026762387440019242,-0.9994520795410449,-0.014545972838505635,-0.012951061492111587,-1e-05,-0.018070000000000003,0.010990000000000003,-0.06570000000000001,1.6599000000000002,-9.251000000000001,3.66052915759327,8.18838409378669,9.889999389648438,10.260000228881836,10.039999961853027,10.09999942779541,8.030770690188904,8.331214783054161,8.152572537824307,8.201292657364597,8.178962667107992,0.001150584360819899,0.6000000238418579,26.100000381469727,0.0,0.0,0.0,0.0,0.0,,,,,
frame_00028.png,1771858400179934327,1771858400.1799343,42.30086569769528,-83.6972980163549,238.58126831054688,-0.026579104892576255,-0.9994594523671964,-0.014113561897210209,-0.013234864092508453,0.021880000000000004,-0.029480000000000003,2e-05,2.2717,0.3361,-11.289,3.7638224373671876,8.419444963044157,10.420000076293945,10.219999313354492,10.329999923706055,10.269999504089355,8.461136134351387,8.298733670837517,8.388055180648614,8.339334286715985,8.371814818138375,0.005657159719535735,0.699999988079071,26.450000762939453,0.0,0.0,0.0,0.0,0.0,,,,,
frame_00029.png,1771858400229942037,1771858400.229942,42.300865751397495,-83.69729985896397,238.58306884765625,-0.0266019096404167,-0.9994534469301474,-0.013785843919863568,-0.013967688797637132,0.022970000000000004,-0.024190000000000003,-0.008600000000000002,2.6855,0.35000000000000003,-9.9003,3.8471323941329625,8.60580433773179,10.40999984741211,10.239999771118164,10.59000015258789,10.59999942779541,8.453015856297226,8.31497422694584,8.599177763702775,8.607297267364597,8.493616278577608,0.01303632464222988,0.699999988079071,26.375,0.0,0.0,0.0,0.0,0.0,,,,,
frame_00030.png,1771858400280690970,1771858400.280691,42.30086583054774,-83.69730267043597,238.58436584472656,-0.026569895006038347,-0.999447601652266,-0.013698213670610106,-0.014522092588049887,0.0202,-0.009800000000000001,-0.018830000000000003,2.7949,1.1747,-8.9255,3.9150480704351414,8.757727630679186,10.889999389648438,10.9399995803833,10.769999504089355,10.710000038146973,8.842779910188904,8.883380526067372,8.745338896715985,8.696618777175694,8.79202952753699,0.003916757668694826,0.6000000238418579,27.350000381469727,0.0,0.0,0.0,0.0,0.0,,,,,
frame_00031.png,1771858400331250654,1771858400.3312507,42.30086588673048,-83.69730458716415,238.58462524414062,-0.026472015397671744,-0.9994513409471959,-0.013231643762548045,-0.014871889018493793,0.025770000000000005,-0.0004900000000000001,-0.005390000000000001,1.681,1.8896000000000002,-10.0472,3.986536413509318,8.917642764835534,10.920000076293945,11.0,10.859999656677246,11.09999942779541,8.867140744351389,8.93210142,8.81841985041876,9.013301877364597,8.907740973033686,0.0011103597736493163,0.30000001192092896,27.350000381469727,0.0,0.0,0.0,0.0,0.0,,,,,
frame_00032.png,1771858400382300662,1771858400.3823006,42.300865972349946,-83.69730751105955,238.584716796875,-0.026275126901629364,-0.9994709264150599,-0.01185233651311134,-0.01506675401356543,0.058350000000000006,-0.0026800000000000005,-0.0077800000000000005,0.7371000000000001,0.5412,-9.5485,4.0496964022213,9.058927869984915,11.309999465942383,11.279999732971191,11.399999618530273,11.229999542236328,9.18382384454029,9.159463784770146,9.256904798243067,9.118863168891679,9.179763899111297,0.01333888853743386,0.30000001192092896,28.975000381469727,0.0,0.0,0.0,0.0,0.0,,,,,
frame_00033.png,1771858400431689299,1771858400.4316893,42.30086602614209,-83.69730949620477,238.58535766601562,-0.02622819246572372,-0.999477311480532,-0.011408017438870235,-0.015067942584943044,-0.013550000000000001,-0.0016100000000000003,0.0022800000000000003,0.9519000000000001,-0.2838,-9.8712,4.137031727539882,9.254291752603065,11.359999656677246,11.4399995803833,11.539999961853027,11.679999351501465,9.224424460418758,9.289385136067372,9.370586367824306,9.484267163013211,9.34216578183091,0.009495489398540821,0.4000000059604645,28.950000762939453,0.0,0.0,0.0,0.0,0.0,,,,,
frame_00034.png,1771858400483544408,1771858400.4835443,42.300866099180745,-83.69731253382423,238.5862274169922,-0.026175962592641933,-0.9994774767452426,-0.01177216067039728,-0.014866361170843743,0.0016700000000000003,-0.006010000000000001,-0.0011300000000000001,0.7025,0.9441,-10.4174,4.212672025543448,9.42349456081916,11.800000190734863,11.609999656677246,11.739999771118164,12.019999504089355,9.581708950878468,9.427426765418758,9.532988056945838,9.760350421715986,9.575618548739762,0.016143054674547193,0.5,29.024999618530273,0.0,0.0,0.0,0.0,0.0,,,,,
frame_00035.png,1771858400532707603,1771858400.5327077,42.30086615405693,-83.6973145998618,238.58724975585938,-0.026090518814019248,-0.9994909620861463,-0.011252460548313303,-0.014508055270564516,0.05113000000000001,0.014360000000000001,-0.01718,2.1829,-0.3738,-9.6028,4.311666784426802,9.644939896755693,12.130000114440918,12.059999465942383,11.899999618530273,11.9399995803833,9.84967193152708,9.79283075954029,9.662909408243065,9.695389746067372,9.750200461344452,0.01091355319115738,0.4000000059604645,28.80000114440918,0.0,0.0,0.0,0.0,0.0,,,,,
frame_00036.png,1771858400583731827,1771858400.5837317,42.300866222037115,-83.69731777642805,238.590576171875,-0.02611652018913918,-0.9994815222552523,-0.011278345719904753,-0.015080217550016017,-0.0012500000000000002,-0.016550000000000002,-0.014950000000000001,2.0323,0.5617,-8.7216,4.419587336098936,9.886351695613154,12.139999389648438,12.09999942779541,12.380000114440918,12.059999465942383,9.857791435188904,9.825311097364597,10.05267423652708,9.79283075954029,9.882151882155217,0.00042480923066907163,0.4000000059604645,27.950000762939453,0.0,0.0,0.0,0.0,0.0,,,,,
frame_00037.png,1771858400633513927,1771858400.633514,42.30086626976165,-83.69731994404506,238.5921630859375,-0.02618054537376091,-0.99945748521182,-0.01181618045686718,-0.01611496749633604,-0.018850000000000002,-0.020190000000000003,0.007020000000000001,0.7134,3.3037,-8.8201,4.498104469077352,10.061989811057892,12.420000076293945,12.329999923706055,12.6899995803833,12.389999389648438,10.085154574351387,10.012073620648613,10.304396661067372,10.060793740188904,10.11560464906407,0.00532845282224957,0.30000001192092896,28.125,0.0,0.0,0.0,0.0,0.0,,,,,
frame_00038.png,1771858400684619470,1771858400.6846194,42.300866334348626,-83.69732324845079,238.59249877929688,-0.02602890368907368,-0.9994492613459443,-0.012112497202858837,-0.01664204252194558,-0.028180000000000007,0.0037400000000000007,-0.0055000000000000005,1.5239,0.25220000000000004,-9.5854,4.587344472864662,10.261614345129878,12.649999618530273,12.880000114440918,13.0,12.649999618530273,10.271916323243065,10.458678846527082,10.556119859999999,10.271916323243065,10.389657838253303,0.012477909305195592,0.30000001192092896,26.975000381469727,0.0,0.0,0.0,0.0,0.0,,,,,
frame_00039.png,1771858400734759099,1771858400.734759,42.300866369946256,-83.69732548974427,238.59132385253906,-0.026002659896733116,-0.9994307441934286,-0.013475436312010449,-0.016746995416048523,-0.04990000000000001,-0.006360000000000001,0.0013900000000000002,1.6062,0.8734000000000001,-9.8449,4.6845757058305475,10.479114779400586,12.9399995803833,12.869999885559082,13.029999732971191,13.149999618530273,10.507398966067372,10.45055856847292,10.580479919770147,10.677920933243065,10.554089596888376,0.007154689977742478,0.30000001192092896,26.950000762939453,0.0,0.0,0.0,0.0,0.0,,,,,
frame_00040.png,1771858400786356513,1771858400.7863564,42.30086642555679,-83.69732892061987,238.58900451660156,-0.026056239399635084,-0.9994151417408939,-0.01411595793135693,-0.017064189961964935,-0.019700000000000006,-0.015400000000000002,0.01081,1.0837,0.1052,-9.5161,4.779802472959082,10.692131343861089,13.15999984741211,13.00999927520752,13.219999313354492,13.079999923706055,10.686041211297226,10.564239363661825,10.734761330837516,10.621080535648614,10.651530610361295,0.003797253531037548,0.30000001192092896,25.899999618530273,0.0,0.0,0.0,0.0,0.0,,,,,
frame_00041.png,1771858400844630045,1771858400.84463,42.300866480756355,-83.69733242265312,238.5860137939453,-0.02608022320812542,-0.9994000602242803,-0.014742510202802338,-0.017378146450051275,-0.02136,-0.029110000000000004,-0.004950000000000001,1.3031000000000001,-0.1847,-10.157,4.881650898864416,10.919960161705768,13.609999656677246,13.549999237060547,13.279999732971191,13.90999984741211,11.051445205418759,11.00272431148613,10.783482224770147,11.295048126297226,11.033174966993064,0.010367693985214208,0.30000001192092896,25.725000381469727,0.0,0.0,0.0,0.0,0.0,,,,,
frame_00042.png,1771858400896601298,1771858400.8966014,42.300866524674184,-83.69733479981218,238.58358764648438,-0.025981136877927025,-0.9993982338457843,-0.014914305465165572,-0.01748468486845484,-0.03549,-0.013800000000000002,0.00461,0.8517,0.397,-9.1289,4.960151662676746,11.095561660308121,13.779999732971191,13.699999809265137,13.699999809265137,14.039999961853027,11.189486834770145,11.124526159121533,11.124526159121533,11.400609417824308,11.209787142709379,0.010294700340395913,0.4000000059604645,24.950000762939453,0.0,0.0,0.0,0.0,0.0,,,,,
frame_00043.png,1771858400945930331,1771858400.9459302,42.30086660234511,-83.69733842496129,238.57923889160156,-0.025799441746011675,-0.9993879845070602,-0.015513989295253515,-0.017814639054910063,-0.059280000000000006,0.024120000000000006,-0.0006000000000000001,1.0109000000000001,-0.47900000000000004,-11.943900000000001,5.032207239716699,11.256745662811872,13.989999771118164,13.989999771118164,14.00999927520752,14.399999618530273,11.36000880194584,11.36000880194584,11.376248583661823,11.692932458243066,11.447299661449142,0.016927982948641205,0.4000000059604645,24.899999618530273,0.0,0.0,0.0,0.0,0.0,,,,,
frame_00044.png,1771858400989902604,1771858400.9899025,42.300866660973185,-83.69734089240818,238.5764617919922,-0.025600903799484986,-0.9993863679072854,-0.015472645629825928,-0.018223023979218062,-0.006590000000000001,-0.01271,-0.02116,0.7001000000000001,-2.1768,-9.3627,5.124000196508946,11.462080999578722,14.09999942779541,14.109999656677246,14.149999618530273,14.380000114440918,11.449329537364598,11.457449815418759,11.489930153243066,11.67669267652708,11.518350545638377,0.004909191102533899,0.699999988079071,24.950000762939453,0.0,0.0,0.0,0.0,0.0,,,,,
frame_00045.png,1771858401038251157,1771858401.0382512,42.30086672882762,-83.69734338272453,238.57513427734375,-0.02543069798715486,-0.9993915031251067,-0.014555549127514736,-0.018921920378820588,0.03731,-0.04802,-0.015040000000000003,1.0938,-1.3204,-10.8315,5.189634199109301,11.608900325355561,14.359999656677246,14.34000015258789,14.329999923706055,14.299999237060547,11.66045212041876,11.644212338702776,11.636092060648613,11.61173122648613,11.638121936564069,0.0025171730645910696,1.0,25.17500114440918,0.0,0.0,0.0,0.0,0.0,,,,,
frame_00046.png,1771858401089856367,1771858401.0898561,42.30086683685849,-83.69734716852665,238.57591247558594,-0.025443149954056776,-0.9993914109845088,-0.013316042668146327,-0.01980244374989984,0.044300000000000006,-0.029990000000000003,0.00446,0.2293,0.019100000000000002,-12.2841,5.268841604770702,11.786082539375775,14.589999198913574,14.420000076293945,14.4399995803833,14.609999656677246,11.847213869310437,11.709173014351387,11.725412796067372,11.863454425418759,11.786313526286989,1.9598277073197303e-05,1.600000023841858,25.350000381469727,0.0,0.0,0.0,0.0,0.0,,,,,
frame_00047.png,1771858401139893678,1771858401.1398938,42.30086694739561,-83.69735102541021,238.57980346679688,-0.02525749210552508,-0.9993797941764342,-0.012438270965322747,-0.021151252913258926,0.029160000000000005,-0.06449,-0.016630000000000002,0.7644000000000001,-0.23550000000000001,-9.9603,5.351184126683091,11.970277820342474,14.489999771118164,14.739999771118164,14.84999942779541,14.75,11.76601341194584,11.96901571694584,12.058336452364598,11.977135995,11.94262539406407,0.0023100906005215187,2.0,25.25,0.0,0.0,0.0,0.0,0.0,,,,,
frame_00048.png,1771858401190033141,1771858401.1900332,42.300867020970024,-83.69735362599444,238.58096313476562,-0.0250064058075391,-0.9993797722077518,-0.011682264923135312,-0.021869505180413473,0.00817,-0.020420000000000004,0.0046500000000000005,0.4577,0.0094,-7.1116,5.412434002995753,12.107290118661322,14.6899995803833,15.170000076293945,15.059999465942383,14.920000076293945,11.928415101067372,12.318179929351386,12.228858419540291,12.115177624351388,12.14765776857761,0.0033341606189867274,2.0,24.975000381469727,0.0,0.0,0.0,0.0,0.0,,,,,
frame_00049.png,1771858401239544973,1771858401.239545,42.300867123577255,-83.697357582071,238.5772705078125,-0.024734193953678596,-0.9993869968218765,-0.01125972181612208,-0.022069637455918736,0.07034000000000001,0.007140000000000001,-0.00395,1.3632,0.6083000000000001,-9.7577,5.4730464929509814,12.24287662194177,15.34999942779541,15.069999694824219,15.210000038146973,15.149999618530273,12.464341062364598,12.236978697594452,12.350660267175694,12.301939373243066,12.338479850094453,0.00780888602449381,1.600000023841858,24.825000762939453,0.0,0.0,0.0,0.0,0.0,,,,,
frame_00050.png,1771858401290408001,1771858401.290408,42.30086718645496,-83.69736025515554,238.57383728027344,-0.024537766701780983,-0.9993938993569897,-0.010702122405712267,-0.022253011241924355,0.00676,-0.017280000000000004,-0.006280000000000001,1.6746,-0.4621,-9.9707,5.5537645741551485,12.423438126510618,15.40999984741211,15.34999942779541,15.369999885559082,15.420000076293945,12.513061956297227,12.464341062364598,12.480581618472918,12.521182234351388,12.494791717871532,0.0057434657487166465,1.399999976158142,25.0,0.0,0.0,0.0,0.0,0.0,,,,,
frame_00051.png,1771858401341100228,1771858401.3411002,42.30086726733149,-83.69736430849848,238.56658935546875,-0.02444380449243705,-0.9993851119727425,-0.010881319144497659,-0.022660434303875213,-0.024250000000000004,-0.029210000000000003,-0.0027900000000000004,0.0315,-0.29760000000000003,-8.6913,5.625705877845325,12.584366506387322,15.630000114440918,15.34999942779541,15.559999465942383,15.839999198913574,12.691704201527081,12.464341062364598,12.634863029540291,12.862225394310435,12.663283421935601,0.006271028065514735,1.399999976158142,25.024999618530273,0.0,0.0,0.0,0.0,0.0,,,,,
frame_00052.png,1771858401392088227,1771858401.3920884,42.30086732040589,-83.69736704941909,238.56117248535156,-0.024376247315408828,-0.999377253479614,-0.01126785477423881,-0.022889719158343452,-0.005900000000000001,0.013640000000000003,0.0041400000000000005,-0.1557,1.0434,-10.907200000000001,5.6863318827347715,12.719983241764721,15.829999923706055,15.729999542236328,15.809999465942383,15.779999732971191,12.854105890648613,12.772904658891678,12.837865334540291,12.813505274770145,12.819595289712682,0.007831146162275994,1.5,24.950000762939453,0.0,0.0,0.0,0.0,0.0,,,,,
frame_00053.png,1771858401441449511,1771858401.4414494,42.300867400617825,-83.69737119704828,238.5537872314453,-0.024268194957150657,-0.9993815444983717,-0.01146195637502137,-0.022720184542118587,-0.024100000000000003,0.021560000000000003,-0.004890000000000001,1.3177,0.4227,-8.6501,5.746509204995837,12.854596301023388,16.09000015258789,16.010000228881836,16.020000457763672,15.989999771118164,13.065228473702776,13.00026779805416,13.008388076108323,12.98402724194584,13.014477897452775,0.012437698756565203,1.8000000715255737,25.05000114440918,0.0,0.0,0.0,0.0,0.0,,,,,
frame_00054.png,1771858401492219056,1771858401.4922192,42.30086745226354,-83.69737398675807,238.54800415039062,-0.02411597471550292,-0.9993927621718035,-0.012191555483206488,-0.021997560251859522,-0.04095000000000001,0.04264000000000001,-0.00286,0.7476,1.3688,-9.66,5.796795556121211,12.967083851309782,16.170000076293945,16.209999084472656,16.170000076293945,16.31999969482422,13.130189149351388,13.162668712783356,13.130189149351388,13.251990222594452,13.168759308520146,0.015552876770361343,2.0,25.05000114440918,0.0,0.0,0.0,0.0,0.0,,,,,
frame_00055.png,1771858401542610500,1771858401.5426104,42.30086752919051,-83.69737822758837,238.54135131835938,-0.023870480506433756,-0.9994082078854669,-0.012712989761525642,-0.021255918302311428,0.0027100000000000006,0.03814,-0.012880000000000003,1.1701000000000001,1.1351,-10.736500000000001,5.877016586423882,13.14653348283504,16.579999923706055,16.260000228881836,16.369998931884766,16.479999542236328,13.463112805648613,13.203270103054162,13.292590064080583,13.381911573891678,13.335221136668759,0.014352654567082812,2.1000001430511475,25.274999618530273,0.0,0.0,0.0,0.0,0.0,,,,,
frame_00056.png,1771858401594038363,1771858401.5940382,42.300867587538136,-83.69738109640744,238.5386505126953,-0.023598060655709796,-0.9994169309998566,-0.012447572684688935,-0.021306982385519136,0.024630000000000006,-0.023530000000000002,-0.021200000000000004,0.1782,0.3224,-10.6219,5.948374534331623,13.30615693082778,16.520000457763672,16.639999389648438,16.53999900817871,16.6299991607666,13.414392686108322,13.511832925188905,13.43063169343197,13.503712647134742,13.465142487965984,0.011948270110197246,2.200000047683716,24.975000381469727,0.0,0.0,0.0,0.0,0.0,,,,,
frame_00057.png,1771858401643469980,1771858401.64347,42.30086767136176,-83.69738544490505,238.53460693359375,-0.02337519660451004,-0.9994186140534059,-0.012313933902174643,-0.021549967497026343,0.021280000000000004,-0.04055,-0.013390000000000003,0.5077,0.7041000000000001,-9.550600000000001,6.026960804415397,13.48194970182898,16.81999969482422,16.81999969482422,16.729999542236328,16.770000457763672,13.657994832594452,13.657994832594452,13.58491387889168,13.617394991108322,13.629574633797226,0.010949820703471398,2.5,25.17500114440918,0.0,0.0,0.0,0.0,0.0,,,,,
frame_00058.png,1771858401694367603,1771858401.6943674,42.300867732902276,-83.69738837645707,238.53138732910156,-0.02308580247259201,-0.999429436790098,-0.011891159564635736,-0.021597382383804452,0.024740000000000005,0.012280000000000001,-0.01631,1.2235,-2.5373,-9.556600000000001,6.100085723069994,13.645525757364194,16.770000457763672,16.940000534057617,16.84000015258789,16.940000534057617,13.617394991108322,13.75543662045971,13.674235388702774,13.75543662045971,13.70062590518263,0.0040379644433047755,2.6000001430511475,25.024999618530273,0.0,0.0,0.0,0.0,0.0,,,,,
frame_00059.png,1771858401744274205,1771858401.7442741,42.300867829133686,-83.6973928158664,238.5245819091797,-0.02282062615771513,-0.999437273426448,-0.011503462871433072,-0.02172615588738022,0.07407000000000001,-0.013100000000000002,-0.026050000000000004,0.6684,-1.6136000000000001,-8.424800000000001,6.168369463193805,13.798272386996752,17.020000457763672,17.35999870300293,17.18000030517578,17.1299991607666,13.820397296108322,14.09647900602642,13.950318647405549,13.909717257134744,13.944228051668759,0.010577821670599364,2.5,24.825000762939453,0.0,0.0,0.0,0.0,0.0,,,,,
frame_00060.png,1771858401795178454,1771858401.7951784,42.30086790123326,-83.69739580214402,238.5186767578125,-0.02249609441165662,-0.9994525857483672,-0.011370438826551631,-0.02142819866475904,0.10944000000000001,0.0176,-0.02908,0.7204,2.0652,-9.3218,6.22271944807753,13.919850042182551,17.329999923706055,17.520000457763672,17.600000381469727,17.34000015258789,14.072119720648613,14.226401906108324,14.291362581756935,14.080239998702774,14.167531051804161,0.017793367663519404,2.6000001430511475,24.850000381469727,0.0,0.0,0.0,0.0,0.0,,,,,
frame_00061.png,1771858401845143328,1771858401.8451433,42.3008680020727,-83.69740032733237,238.50917053222656,-0.022256967775888536,-0.9994710922278582,-0.011031817424385082,-0.020987191107667478,0.03134000000000001,0.020880000000000003,-0.007540000000000001,1.6363,1.052,-8.1911,6.285856497808292,14.061083834207283,17.600000381469727,17.619998931884766,17.44999885559082,17.479999542236328,14.291362581756935,14.307601589080582,14.169559959729195,14.193920793891678,14.240611231114599,0.012767678439592867,2.6000001430511475,23.80000114440918,0.0,0.0,0.0,0.0,0.0,,,,,
frame_00062.png,1771858401896567543,1771858401.8965676,42.30086806310772,-83.69740338387854,238.50279235839844,-0.021881473331619494,-0.9994774789842262,-0.011114508827425455,-0.02103420599162303,-0.023710000000000005,-0.01093,-0.010540000000000002,-0.1452,-1.0012,-11.7528,6.346774076050578,14.197352801680582,17.850000381469727,17.78999900817871,17.520000457763672,17.65999984741211,14.494364886756935,14.445643218431968,14.226401906108324,14.340082701297225,14.376623178148613,0.01262702836030179,2.5,23.850000381469727,0.0,0.0,0.0,0.0,0.0,,,,,
frame_00063.png,1771858401954937610,1771858401.9549377,42.30086814353408,-83.69740801552034,238.49624633789062,-0.021640481894546815,-0.999460865535839,-0.011680602438321048,-0.021753880858401336,-0.04255000000000001,-0.016130000000000002,0.007140000000000001,-0.9556,1.2456,-11.0579,6.415737276992686,14.351619344396019,17.760000228881836,18.09000015258789,17.729999542236328,17.809999465942383,14.421283933054161,14.689246913702775,14.396923098891678,14.461883774540292,14.492334430047226,0.009804822875695432,2.6000001430511475,24.149999618530273,0.0,0.0,0.0,0.0,0.0,,,,,
frame_00064.png,1771858402007621009,1771858402.007621,42.30086822201975,-83.69741270703,238.49400329589844,-0.021493704731179286,-0.9994418813703916,-0.011543561346547961,-0.02281868995318255,-0.027490000000000004,-0.023110000000000006,0.009980000000000001,-0.6936,-1.0410000000000001,-10.257900000000001,6.489769861847332,14.517225794760773,17.93000030517578,17.969999313354492,17.959999084472656,18.1299991607666,14.559325562405549,14.591805125837517,14.583684847783356,14.721726477134743,14.61413550329029,0.006675497777577608,2.5,24.325000762939453,0.0,0.0,0.0,0.0,0.0,,,,,
frame_00065.png,1771858402047460434,1771858402.0474603,42.30086827714056,-83.69741586775372,238.49278259277344,-0.021261289701517194,-0.9994406474725099,-0.011278106605745795,-0.023219691026101757,-0.004240000000000001,-0.020620000000000003,-0.00795,1.8444,-2.4650000000000003,-9.733,6.554554574336783,14.662145309516925,17.829999923706055,18.18000030517578,18.229999542236328,18.279998779296875,14.478124330648614,14.762327867405547,14.802927708891678,14.843527550377807,14.721726864330911,0.004063631450665895,2.299999952316284,24.375,0.0,0.0,0.0,0.0,0.0,,,,,
frame_00066.png,1771858402098194889,1771858402.0981948,42.300868325493596,-83.69741903413507,238.49127197265625,-0.02115816111500507,-0.999411953972235,-0.012076382771898351,-0.02412963851319081,-0.045520000000000005,-0.055790000000000006,-0.0048000000000000004,1.4165,1.2045000000000001,-7.712400000000001,6.6031569887583865,14.770865994433185,18.149999618530273,18.119998931884766,18.309999465942383,18.35999870300293,14.737967033243065,14.713606199080584,14.86788838454029,14.90848822602642,14.806987460722588,0.002445453523376121,2.1000001430511475,24.200000762939453,0.0,0.0,0.0,0.0,0.0,,,,,
frame_00067.png,1771858402148285749,1771858402.1482856,42.30086840104798,-83.69742383784062,238.4874725341797,-0.02094205644260111,-0.9993816470846983,-0.013115862023851104,-0.025014553875732384,-0.031520000000000006,-0.05396000000000001,0.0016400000000000002,0.7168,3.1813000000000002,-9.4969,6.659498797089572,14.896899239161549,18.19999885559082,18.28999900817871,18.600000381469727,18.44999885559082,14.778566874729195,14.85164782843197,15.103371801756936,14.981569179729195,14.928788921161825,0.0021406926024204738,1.600000023841858,24.475000381469727,0.0,0.0,0.0,0.0,0.0,,,,,
frame_00068.png,1771858402199310599,1771858402.1993105,42.300868470502174,-83.69742868907153,238.48146057128906,-0.02069976777080168,-0.9993726591302715,-0.0133077959434976,-0.02546979317252504,0.007420000000000001,-0.02025,-0.012470000000000002,1.024,1.2877,-8.328800000000001,6.711547207918384,15.013328411280952,18.600000381469727,18.549999237060547,18.719999313354492,18.459999084472656,15.103371801756936,15.06277041148613,15.200812040837517,14.989689457783356,15.089160927965985,0.005051012980442926,1.600000023841858,24.625,0.0,0.0,0.0,0.0,0.0,,,,,
frame_00069.png,1771858402249361585,1771858402.2493618,42.30086852255365,-83.69743194751061,238.47552490234375,-0.02049409037312011,-0.9993775334625066,-0.013556661122062828,-0.025313135115913866,0.025200000000000004,0.029830000000000002,-0.010990000000000003,1.9057000000000002,1.1562000000000001,-8.4212,6.758406948274198,15.118150838872484,18.889999389648438,19.1299991607666,18.84000015258789,18.799999237060547,15.338853670188904,15.533735697134745,15.298253828702775,15.26577271648613,15.359153978128138,0.01594131066849624,1.899999976158142,24.725000381469727,0.0,0.0,0.0,0.0,0.0,,,,,
frame_00070.png,1771858402300125504,1771858402.3001254,42.300868589714355,-83.69743687190397,238.4661407470703,-0.020174274231714806,-0.9993817284312023,-0.01363152771582797,-0.025364167426086846,-0.00442,-0.006050000000000001,-0.014880000000000003,1.2344000000000002,-1.7215,-10.5793,6.82110017173874,15.258391818169258,19.029998779296875,19.219999313354492,19.15999984741211,18.889999389648438,15.45253446537781,15.606816650837517,15.558096531297227,15.338853670188904,15.489075329425363,0.015118468184924549,1.899999976158142,24.600000381469727,0.0,0.0,0.0,0.0,0.0,,,,,
frame_00071.png,1771858402350368623,1771858402.3503685,42.30086864135728,-83.69744018456942,238.45892333984375,-0.01992381500586282,-0.9993773783025697,-0.013961558403136244,-0.02555332110803982,-0.023020000000000002,0.014240000000000001,-0.01631,0.0064,-1.3464,-10.6769,6.885348989017727,15.402112567493315,19.10999870300293,19.189998626708984,19.19999885559082,19.209999084472656,15.517495141026421,15.582455816675035,15.590576094729194,15.598696372783357,15.572305856303503,0.011049996425125884,1.600000023841858,24.475000381469727,0.0,0.0,0.0,0.0,0.0,,,,,
frame_00072.png,1771858402401719940,1771858402.40172,42.30086870996847,-83.69744520355779,238.44837951660156,-0.019779241614949983,-0.9993643600812996,-0.014438385477612647,-0.025907343075503086,-0.010560000000000002,0.022650000000000003,-0.0082,-0.0528,0.8875000000000001,-9.0928,6.9371645191397535,15.518020799444482,19.309999465942383,19.260000228881836,19.25,19.479999542236328,15.679897604540292,15.639297763054161,15.631177485000002,15.817939233891678,15.692078021621533,0.011216457589957752,1.399999976158142,24.475000381469727,0.0,0.0,0.0,0.0,0.0,,,,,
frame_00073.png,1771858402451394153,1771858402.451394,42.30086875847837,-83.69744856790058,238.44166564941406,-0.0195420156405392,-0.9993656924603327,-0.014229113308699267,-0.02615061552684594,-0.025990000000000003,-0.008090000000000002,-0.012690000000000002,0.4858,0.3607,-10.292900000000001,6.989607356570597,15.635332280207033,19.510000228881836,19.469999313354492,19.35999870300293,19.459999084472656,15.842300068054161,15.809818955837516,15.720497446026421,15.801698677783357,15.793578786925364,0.01012108370211343,1.5,24.825000762939453,0.0,0.0,0.0,0.0,0.0,,,,,
frame_00074.png,1771858402502293218,1771858402.5022933,42.300868849980155,-83.69745365097955,238.43313598632812,-0.019366544146171505,-0.9993796681188475,-0.013797091690905774,-0.025977994136753117,-0.02389,0.011840000000000002,0.010950000000000001,-1.0106,1.6746,-8.9793,7.022328198407511,15.708526840145698,19.559999465942383,19.28999900817871,19.799999237060547,19.619998931884766,15.882899909540292,15.663657048431968,16.07778193648613,15.931620029080582,15.888989730884743,0.01148821226684626,1.899999976158142,25.024999618530273,0.0,0.0,0.0,0.0,0.0,,,,,
frame_00075.png,1771858402552292088,1771858402.552292,42.30086888927985,-83.69745706292565,238.4275665283203,-0.01915783752323802,-0.9994059082241203,-0.014345918963891587,-0.024799243481115382,-0.06866000000000001,0.07602,0.006150000000000001,1.9645000000000001,0.9766,-9.9909,7.071804172278531,15.819201625136738,19.78999900817871,19.60999870300293,19.939998626708984,20.0,16.06966165843197,15.923499751026421,16.191462731675035,16.2401844,16.106202135283358,0.018142540751903358,2.1000001430511475,24.825000762939453,0.0,0.0,0.0,0.0,0.0,,,,,
frame_00076.png,1771858402603284504,1771858402.6032846,42.30086894851649,-83.69746222669228,238.41921997070312,-0.018744915620530822,-0.9994214414401863,-0.0150289330458034,-0.024073672331079092,-0.03756000000000001,0.05108000000000001,-0.022760000000000002,2.6503,-1.8151000000000002,-10.4726,7.145063784497261,15.983078982093305,19.78999900817871,19.809999465942383,19.899999618530273,20.09000015258789,16.06966165843197,16.08590221454029,16.158983168243065,16.313265353702775,16.156953098729524,0.010878637140629723,2.0,24.0,0.0,0.0,0.0,0.0,0.0,,,,,
frame_00077.png,1771858402652931049,1771858402.652931,42.300868990968475,-83.69746569792788,238.4144744873047,-0.018490822697620923,-0.9994123967486849,-0.015280217759962536,-0.02448398754742413,-0.007000000000000001,-0.006270000000000001,-0.023360000000000006,1.4159000000000002,-1.9412,-10.130700000000001,7.217705077569313,16.1455731962179,20.049999237060547,20.03999900817871,20.06999969482422,20.119998931884766,16.28078424148613,16.27266396343197,16.297024797594453,16.337624639080584,16.297024410398283,0.009380355366749128,1.8000000715255737,24.0,0.0,0.0,0.0,0.0,0.0,,,,,
frame_00078.png,1771858402704203452,1771858402.7042036,42.30086904372381,-83.69747096027406,238.4075469970703,-0.018333385832350058,-0.9993946733682588,-0.015230819890567238,-0.02534158504385611,0.0036800000000000005,-0.006180000000000001,-0.01076,0.2757,-2.0236,-8.5494,7.281661063243448,16.2886388988118,20.18000030517578,20.229999542236328,20.369998931884766,20.520000457763672,16.38634630740555,16.426946148891677,16.540626944080582,16.662429566108322,16.504087241621534,0.013226908899395462,1.8000000715255737,24.149999618530273,0.0,0.0,0.0,0.0,0.0,,,,,
frame_00079.png,1771858402754221939,1771858402.754222,42.300869080296465,-83.69747448506432,238.39991760253906,-0.018147204313353427,-0.9993926751441737,-0.015351173460665866,-0.025481391586057327,-0.00289,0.018340000000000002,-0.01648,0.8246,-2.3404000000000003,-9.8351,7.329074621180305,16.394700183103073,20.40999984741211,20.399999618530273,20.43000030517578,20.529998779296875,16.573108056297226,16.564987778243065,16.589348612405548,16.670548295377806,16.599498185580913,0.012491719896708577,1.899999976158142,24.274999618530273,0.0,0.0,0.0,0.0,0.0,,,,,
frame_00080.png,1771858402804993052,1771858402.804993,42.300869135379166,-83.69747980932178,238.38534545898438,-0.017899224726087293,-0.9994067659150228,-0.015637844131186334,-0.024923720196006673,-0.0027400000000000002,0.013280000000000002,-0.014960000000000003,0.37470000000000003,-0.3395,-11.1006,7.379955919525121,16.508518594622526,20.60999870300293,20.670000076293945,20.510000228881836,20.619998931884766,16.735508971026423,16.78423063935139,16.65430928805416,16.743629249080584,16.72941953687814,0.01338102755795244,1.899999976158142,24.325000762939453,0.0,0.0,0.0,0.0,0.0,,,,,
frame_00081.png,1771858402855612220,1771858402.8556123,42.30086918294149,-83.69748338657675,238.37570190429688,-0.0176287733747012,-0.9994297342474682,-0.015467522523092766,-0.024293793411817834,0.032510000000000004,0.026460000000000004,-0.013030000000000002,0.38730000000000003,1.9798,-10.727300000000001,7.425538655564993,16.610484440179558,20.760000228881836,20.779998779296875,20.6299991607666,20.75,16.857311593054163,16.873550600377808,16.75174952713474,16.849191315,16.832950758891677,0.01339312646258461,1.899999976158142,24.125,0.0,0.0,0.0,0.0,0.0,,,,,
frame_00082.png,1771858402906145077,1771858402.906145,42.300869260453716,-83.6974887860248,238.36537170410156,-0.01726730718296554,-0.999449494531286,-0.014698241041918143,-0.024217962219813646,0.04043000000000001,-9e-05,-0.01972,0.8428,0.7877000000000001,-11.798,7.487091976649004,16.748175526245223,20.809999465942383,21.139999389648438,20.829999923706055,20.729999542236328,16.89791143454029,17.165874415188906,16.914151990648616,16.83295075889168,16.952722149817376,0.012213069014688674,2.0,24.149999618530273,0.0,0.0,0.0,0.0,0.0,,,,,
frame_00083.png,1771858402965469781,1771858402.9654696,42.30086932737411,-83.69749424820702,238.36221313476562,-0.01708858154956444,-0.9994241418145506,-0.014482057034234013,-0.025487941520057195,0.03986000000000001,-0.05102000000000001,-0.0034200000000000003,0.08310000000000001,1.3898000000000001,-8.4511,7.557496223940625,16.905665603181742,20.959999084472656,20.979999542236328,21.100000381469727,20.959999084472656,17.019712507783357,17.03595306389168,17.133394851756936,17.019712507783357,17.05219323280383,0.00866736826939906,2.1000001430511475,24.475000381469727,0.0,0.0,0.0,0.0,0.0,,,,,
frame_00084.png,1771858403008253014,1771858403.0082529,42.30086935490538,-83.69749791245783,238.36045837402344,-0.01692278325848179,-0.9994097824836073,-0.014957124803853496,-0.025884174710763402,-0.04824000000000001,-0.0067,0.012100000000000001,0.09090000000000001,1.2484,-7.8258,7.58227776613477,16.961100426177513,21.059999465942383,21.170000076293945,21.219999313354492,21.239999771118164,17.100913739540292,17.190235249351385,17.230835090837516,17.247075646945838,17.19226493166876,0.013629098329874334,1.899999976158142,24.5,0.0,0.0,0.0,0.0,0.0,,,,,
frame_00085.png,1771858403066697969,1771858403.066698,42.30086940057649,-83.69750343576356,238.3516387939453,-0.016708000786982646,-0.9994219867883896,-0.014796596235569353,-0.025643630271319284,0.005800000000000001,0.024230000000000005,-0.0035100000000000005,0.5253,-0.4138,-8.7161,7.63279142082804,17.074096440907077,21.35999870300293,21.3799991607666,21.389999389648438,21.420000076293945,17.34451588602642,17.360756442134743,17.368876720188904,17.393237554351387,17.366846650675363,0.017145868349841272,1.3000000715255737,23.774999618530273,0.0,0.0,0.0,0.0,0.0,,,,,
frame_00086.png,1771858403108413859,1771858403.108414,42.300869436705916,-83.69750713286932,238.34408569335938,-0.016511206274234136,-0.9994353405262764,-0.01459825088760729,-0.025362792541799017,0.023100000000000006,0.00272,-0.009760000000000001,0.5469,-0.7564000000000001,-9.8077,7.690245137119078,17.20261695702715,21.44999885559082,21.479999542236328,21.459999084472656,21.489999771118164,17.417596839729196,17.44195767389168,17.425717117783357,17.45007795194584,17.433837395837518,0.013441003737278244,1.3000000715255737,24.25,0.0,0.0,0.0,0.0,0.0,,,,,
frame_00087.png,1771858403158772743,1771858403.1587727,42.30086947594382,-83.69751086342056,238.33544921875,-0.0162681933467535,-0.9994488418947538,-0.014485907916513389,-0.025050285273870446,0.0033900000000000007,0.0005400000000000001,-0.013980000000000001,0.5236000000000001,-0.0507,-9.7226,7.7445407394774834,17.324072961766763,21.520000457763672,21.35999870300293,21.520000457763672,21.559999465942383,17.474438786108323,17.34451588602642,17.474438786108323,17.506918349540292,17.45007795194584,0.007273404496573196,1.399999976158142,24.024999618530273,0.0,0.0,0.0,0.0,0.0,,,,,
frame_00088.png,1771858403209727182,1771858403.2097273,42.300869526885705,-83.69751648041942,238.3220672607422,-0.01595972646583932,-0.9994603042726421,-0.015085156624122027,-0.02443000949650311,-0.04512000000000001,0.029580000000000002,-0.0165,2.0265,0.9072,-9.4274,7.783416352821059,17.411035376279543,21.69999885559082,22.219999313354492,21.649999618530273,21.770000457763672,17.620599144729194,18.042844310837516,17.579999303243067,17.677441091108324,17.730220962479525,0.018332372504097843,1.399999976158142,24.0,0.0,0.0,0.0,0.0,0.0,,,,,
frame_00089.png,1771858403259635553,1771858403.2596354,42.300869587793706,-83.69752214779965,238.3102569580078,-0.015653943319947516,-0.999473031327494,-0.014788697741943711,-0.024288024346643466,0.010190000000000001,0.00502,-0.014510000000000002,2.137,0.7489,-10.2515,7.838478032930294,17.534205050983093,21.85999870300293,21.760000228881836,21.770000457763672,21.770000457763672,17.75052049602642,17.66932081305416,17.677441091108324,17.677441091108324,17.693680872824306,0.00909512700333518,1.7000000476837158,24.17500114440918,0.0,0.0,0.0,0.0,0.0,,,,,
frame_00090.png,1771858403311073474,1771858403.3110735,42.300869630698124,-83.69752595158472,238.30433654785156,-0.015406460821588142,-0.9994869483247977,-0.013309215734267563,-0.02472540939751652,0.030670000000000006,-0.007970000000000001,-0.010260000000000002,0.8838,-0.2861,-10.6242,7.887457688974366,17.64376960277432,21.8799991607666,21.93000030517578,22.029998779296875,22.0,17.766761052134743,17.807362442405548,17.88856212537781,17.86420284,17.831722114979524,0.010652627892831354,2.299999952316284,23.825000762939453,0.0,0.0,0.0,0.0,0.0,,,,,
frame_00091.png,1771858403361009341,1771858403.3610094,42.30086969556818,-83.69753170294946,238.29747009277344,-0.015235468934144791,-0.9994916772048409,-0.012115470606765648,-0.025248426814108365,0.025720000000000003,0.007300000000000002,-0.009600000000000001,0.10200000000000001,-0.5789000000000001,-10.1111,7.927724769167287,17.733844645141073,22.119998931884766,22.09000015258789,22.1299991607666,22.10999870300293,17.961643079080584,17.937283793702772,17.96976335713474,17.953522801026423,17.95555325773613,0.012502004896936154,2.5,24.25,0.0,0.0,0.0,0.0,0.0,,,,,
frame_00092.png,1771858403411864070,1771858403.411864,42.30086973780137,-83.6975355527065,238.29380798339844,-0.014942438102321154,-0.999494230776759,-0.011663194686504532,-0.025533822221467814,0.007530000000000001,0.022170000000000002,-0.018160000000000003,0.36560000000000004,-0.34540000000000004,-9.689300000000001,7.969672514475701,17.827679234531278,22.189998626708984,22.149999618530273,22.260000228881836,22.170000076293945,18.018483476675033,17.986003913243067,18.075325423054164,18.00224446935139,18.020514320580915,0.010816611826632254,2.4000000953674316,24.05000114440918,0.0,0.0,0.0,0.0,0.0,,,,,
frame_00093.png,1771858403462114008,1771858403.462114,42.30086980436583,-83.69754136279256,238.2863311767578,-0.014620599374978727,-0.999504437588875,-0.011350780146253629,-0.02546128638019382,0.01025,0.03479000000000001,-0.009300000000000001,-0.642,1.1615,-8.573400000000001,7.998690967174637,17.892591772111633,22.44999885559082,22.44999885559082,22.489999771118164,22.489999771118164,18.229606059729196,18.229606059729196,18.262087171945836,18.262087171945836,18.245846615837515,0.01974307848885727,2.1000001430511475,24.05000114440918,0.0,0.0,0.0,0.0,0.0,,,,,
frame_00094.png,1771858403512854662,1771858403.5128548,42.30086984030605,-83.69754526307145,238.27993774414062,-0.014188061004910713,-0.9995280717572101,-0.011068512068968389,-0.024896199204162698,0.009320000000000002,0.012560000000000002,-0.014130000000000002,0.8746,0.7174,-10.1302,8.074267488786901,18.061651916366973,22.549999237060547,22.56999969482422,22.559999465942383,22.600000381469727,18.31080729148613,18.327047847594454,18.318927569540293,18.351408681756936,18.327047847594454,0.014693890262993399,1.5,23.875,0.0,0.0,0.0,0.0,0.0,,,,,
frame_00095.png,1771858403562846331,1771858403.5628462,42.300869868561165,-83.69755112500106,238.268798828125,-0.013788163838831968,-0.9995522765119795,-0.01179400879774036,-0.023791477763088178,-0.08898000000000002,0.016200000000000003,-0.008760000000000002,2.9591000000000003,-3.0243,-10.5197,8.101930946915875,18.123533412394,22.600000381469727,22.600000381469727,22.670000076293945,23.049999237060547,18.351408681756936,18.351408681756936,18.40824907935139,18.716811901486132,18.45696958608785,0.018397967223423812,0.9000000357627869,24.375,0.0,0.0,0.0,0.0,0.0,,,,,
frame_00096.png,1771858403613912882,1771858403.6139128,42.3008698843202,-83.69755504587417,238.26124572753906,-0.013630929300253336,-0.9995710212571058,-0.012452041938016689,-0.02273582813560522,-0.014100000000000001,0.03305,-0.023510000000000003,1.3182,-3.6672000000000002,-8.7248,8.13393086529054,18.195115309803025,22.779998779296875,22.75,22.78999900817871,23.0,18.497569040377808,18.473209755000003,18.50568931843197,18.67621206,18.538170043452446,0.018854221465944343,0.10000000149011612,23.975000381469727,0.0,0.0,0.0,0.0,0.0,,,,,
frame_00097.png,1771858403664515870,1771858403.6645157,42.30086991369104,-83.69756097806608,238.2492218017578,-0.013454647638680206,-0.9995803054357271,-0.012903755156615961,-0.022173825668914845,-0.03994,0.012770000000000002,0.009970000000000001,-0.6951,0.2019,-10.0692,8.193518404967653,18.328409060808344,22.829999923706055,22.959999084472656,22.809999465942383,22.979999542236328,18.538170430648613,18.643730947783357,18.52192987454029,18.659971503891676,18.590950689215987,0.014324299918045586,-0.4000000059604645,24.075000762939453,0.0,0.0,0.0,0.0,0.0,,,,,
frame_00098.png,1771858403714851630,1771858403.7148516,42.300869938552125,-83.69756495374945,238.24253845214844,-0.013233918878496231,-0.9995942141005645,-0.012703141687856372,-0.021792216937478345,0.02048,0.007250000000000001,-0.0019900000000000004,-0.0675,0.6785,-11.173,8.243389151945491,18.43996692955295,23.1299991607666,23.03999900817871,23.010000228881836,23.0,18.781772577134742,18.70869162343197,18.684332338054162,18.67621206,18.71275214965522,0.01479315126455515,-0.9000000357627869,24.30000114440918,0.0,0.0,0.0,0.0,0.0,,,,,
frame_00099.png,1771858403764816769,1771858403.764817,42.300869993423014,-83.69757095110606,238.23329162597656,-0.013039102495688903,-0.9996201222034005,-0.011640261136290332,-0.021309561535723963,0.07526000000000001,0.026090000000000002,-0.007660000000000001,0.5114000000000001,0.5369,-10.3046,8.273869463866491,18.50814955850151,23.25,23.26999855041504,23.26999855041504,23.18000030517578,18.879214365000003,18.895453372323647,18.895453372323647,18.822373967405547,18.87312376926321,0.019719648882675644,-1.0,24.350000381469727,0.0,0.0,0.0,0.0,0.0,,,,,
frame_00100.png,1771858403815829537,1771858403.8158295,42.30087002850314,-83.69757496724266,238.22727966308594,-0.012901701795823783,-0.9996439325992821,-0.010783769390791502,-0.020718697496219896,0.033330000000000005,0.029960000000000007,-0.01081,0.8318000000000001,-0.1597,-11.2331,8.323077987893019,18.61822607423741,23.309999465942383,23.26999855041504,23.309999465942383,23.19999885559082,18.92793448454029,18.895453372323647,18.92793448454029,18.838612974729198,18.89748382903336,0.014999160160718363,-1.100000023841858,24.649999618530273,0.0,0.0,0.0,0.0,0.0,,,,,
frame_00101.png,1771858403866057434,1771858403.8660574,42.30087006880005,-83.69758102666557,238.21890258789062,-0.012809778140266348,-0.9996489970524045,-0.010865739454060087,-0.020487263903108337,-0.013290000000000001,0.009110000000000002,-0.010790000000000003,2.4282,-1.155,-6.0265,8.388086253977093,18.76364566497152,23.279998779296875,23.299999237060547,23.389999389648438,23.34000015258789,18.90357365037781,18.91981420648613,18.992895160188905,18.952295318702777,18.942144583938905,0.009513019066471274,-1.899999976158142,24.575000762939453,0.0,0.0,0.0,0.0,0.0,,,,,
frame_00102.png,1771858403926446542,1771858403.9264467,42.300870082533734,-83.69758714070217,238.2161102294922,-0.012939789531273616,-0.9995923425413948,-0.012688295700947733,-0.022061680164907355,-0.016130000000000002,-0.07584,-0.004670000000000001,0.7578,-0.0171,-10.0882,8.444667045527321,18.890213500821886,23.439998626708984,23.369998931884766,23.44999885559082,23.56999969482422,19.033495001675035,18.976654604080583,19.041615279729196,19.13905706759445,19.047705488269816,0.008337226439557057,-3.799999952316284,24.975000381469727,0.0,0.0,0.0,0.0,0.0,,,,,
frame_00103.png,1771858403976071157,1771858403.9760711,42.3008700887397,-83.69759123659169,238.21437072753906,-0.013207821703781986,-0.9995486333700356,-0.013281313185364007,-0.02348807557054126,0.0022600000000000003,-0.07448,0.009830000000000002,-0.1306,1.697,-9.4665,8.481110491896139,18.97173530374215,23.579999923706055,23.389999389648438,23.670000076293945,23.65999984741211,19.14717734564861,18.992895160188905,19.220258299351386,19.212138021297225,19.143117206621532,0.009033538584400199,-4.900000095367432,25.42500114440918,0.0,0.0,0.0,0.0,0.0,,,,,
frame_00104.png,1771858404017979803,1771858404.0179799,42.300870098505825,-83.69759534242614,238.21022033691406,-0.01343365417716913,-0.9995367917625235,-0.013387436739363028,-0.023801583688476034,-0.03384,-0.0003800000000000001,0.017610000000000004,0.2677,0.1908,-7.631200000000001,8.50366328370484,19.022184545850706,23.649999618530273,23.60999870300293,23.760000228881836,23.69999885559082,19.204017743243067,19.17153663102642,19.29333925305416,19.244617584729195,19.22837780301321,0.010839620268928594,-4.900000095367432,26.75,0.0,0.0,0.0,0.0,0.0,,,,,
frame_00105.png,1771858404068449081,1771858404.068449,42.30087011710592,-83.69760152864534,238.2005615234375,-0.013662574897082336,-0.999520653630702,-0.013706426098118679,-0.024164662142317866,-0.00483,-0.011640000000000001,0.00202,-0.2099,-0.0966,-10.4649,8.536777281569693,19.09625857223451,23.829999923706055,23.760000228881836,23.729999542236328,23.84000015258789,19.350179650648617,19.29333925305416,19.26897841889168,19.358299928702774,19.31769931282431,0.011596027554411525,-4.400000095367432,28.850000381469727,0.0,0.0,0.0,0.0,0.0,,,,,
frame_00106.png,1771858404119458885,1771858404.119459,42.30087016290955,-83.69760774505832,238.19171142578125,-0.013788105470177558,-0.9995272884466685,-0.013011438543222583,-0.02420310445024682,0.05451,-0.017830000000000002,-0.00144,-0.2847,0.5093,-11.429400000000001,8.584201096495457,19.20234280079455,23.989999771118164,23.799999237060547,23.969999313354492,24.010000228881836,19.48010100194584,19.32581881648613,19.463860445837515,19.496341558054162,19.44153045558091,0.01245617044064345,-3.9000000953674316,28.75,0.0,0.0,0.0,0.0,0.0,,,,,
frame_00107.png,1771858404169167527,1771858404.1691675,42.3008702022483,-83.69761191846847,238.1865692138672,-0.013879596435869057,-0.9995392808779816,-0.012205818503468933,-0.02407489936355951,0.03926,-0.0075200000000000015,0.00144,1.2231,0.6449,-9.2583,8.634064374267124,19.3138839613731,24.15999984741211,24.10999870300293,24.219999313354492,24.100000381469727,19.618142631297225,19.57754124102642,19.666862750837517,19.569422511756937,19.607992283729523,0.015227818648213143,-3.200000047683716,28.725000381469727,0.0,0.0,0.0,0.0,0.0,,,,,
frame_00108.png,1771858404219694637,1771858404.2196946,42.30087025547722,-83.69761820662322,238.17787170410156,-0.013946715714962366,-0.9995444062409795,-0.012010661403779103,-0.023920975853369324,0.007410000000000001,0.017780000000000004,0.0014800000000000002,1.3513000000000002,0.7912,-7.742500000000001,8.682638005893525,19.422540260903464,24.299999237060547,24.15999984741211,24.369998931884766,24.28999900817871,19.73182342648613,19.618142631297225,19.78866382408058,19.72370314843197,19.715583257573975,0.015087779082141544,-3.0,28.975000381469727,0.0,0.0,0.0,0.0,0.0,,,,,
frame_00109.png,1771858404269882649,1771858404.2698827,42.300870286076055,-83.69762242382052,238.17100524902344,-0.014061686604380008,-0.9995429922203247,-0.012188758511224921,-0.02382246500753485,-0.016100000000000003,0.01806,0.01007,0.2155,1.1409,-9.6821,8.732481345920549,19.534036821943513,24.35999870300293,24.43000030517578,24.420000076293945,24.44999885559082,19.780543546026422,19.83738549240555,19.82926521435139,19.853624499729197,19.82520468812814,0.014905667929198499,-3.1000001430511475,28.700000762939453,0.0,0.0,0.0,0.0,0.0,,,,,
frame_00110.png,1771858404320704824,1771858404.3207047,42.300870329766724,-83.69762879150188,238.1587371826172,-0.014124327531675251,-0.9995489856451614,-0.012227914948095046,-0.02351184304832916,0.00404,0.03336,0.009070000000000002,0.5792,0.7266,-9.766,8.785313475763289,19.652219126473934,24.51999855041504,24.549999237060547,24.549999237060547,24.549999237060547,19.910464897323646,19.93482573148613,19.93482573148613,19.93482573148613,19.92873552294551,0.014070492227469283,-3.1000001430511475,28.649999618530273,0.0,0.0,0.0,0.0,0.0,,,,,
frame_00111.png,1771858404371365576,1771858404.3713655,42.300870361644726,-83.69763305556972,238.1492156982422,-0.01412168475744019,-0.9995682235159922,-0.011793842897354707,-0.022909601183943785,0.02594,0.03726000000000001,0.0036700000000000005,-0.1255,0.7437,-9.6046,8.826647649721256,19.744681193567466,24.889999389648438,24.799999237060547,24.78999900817871,24.869998931884766,20.210908990188905,20.13782803648613,20.12970775843197,20.194668434080583,20.1682783047969,0.021453732631927,-3.0,29.17500114440918,0.0,0.0,0.0,0.0,0.0,,,,,
frame_00112.png,1771858404422186500,1771858404.4221866,42.3008704104211,-83.69763949025725,238.1352081298828,-0.014131345052229183,-0.9996007748753098,-0.011099129797866852,-0.021803790345374455,0.023840000000000004,0.038650000000000004,-0.0037100000000000006,0.0964,-0.2209,-11.894400000000001,8.879873103807462,19.863743340831064,24.989999771118164,24.93000030517578,24.889999389648438,24.93000030517578,20.29211022194584,20.24339010240555,20.210908990188905,20.24339010240555,20.24744985423646,0.019316928678627547,-2.799999952316284,30.25,0.0,0.0,0.0,0.0,0.0,,,,,
frame_00113.png,1771858404471940099,1771858404.47194,42.30087044627403,-83.6976438106763,238.12782287597656,-0.014100699102580216,-0.9996339587327947,-0.01031779077930024,-0.020655798857808487,0.01642,0.030240000000000003,-0.008220000000000002,0.5153,-1.6260000000000001,-11.2796,8.930995657549495,19.97810142619877,25.119998931884766,25.170000076293945,25.03999900817871,25.03999900817871,20.397670739080585,20.43827212935139,20.332710063431968,20.332710063431968,20.375340748823977,0.01988373740581164,-2.4000000953674316,30.350000381469727,0.0,0.0,0.0,0.0,0.0,,,,,
frame_00114.png,1771858404522133225,1771858404.5221334,42.300870500216604,-83.69765032773579,238.1196746826172,-0.01408578509023456,-0.9996490655013517,-0.010656881971489191,-0.01974252687251367,-0.022240000000000003,0.01649,-0.0058400000000000014,1.3228,-0.3183,-10.3812,8.997509727282866,20.126889409348134,25.189998626708984,25.229999542236328,25.26999855041504,25.329999923706055,20.454511136675034,20.486992248891678,20.519471812323648,20.568193480648613,20.507292169634745,0.018900226088087353,-1.8000000715255737,30.05000114440918,0.0,0.0,0.0,0.0,0.0,,,,,
frame_00115.png,1771858404572463650,1771858404.5724635,42.30087053307773,-83.69765471030942,238.11566162109375,-0.014053147884239447,-0.9996479752463872,-0.010565197184427593,-0.01986985729180583,0.027290000000000005,-0.022340000000000006,-0.0006700000000000001,1.5228000000000002,0.4158,-9.6804,9.082803921752914,20.317687404725966,25.28999900817871,25.25,25.329999923706055,25.420000076293945,20.53571236843197,20.503232805,20.568193480648613,20.641274434351388,20.562103272107993,0.012029709017236656,-1.7000000476837158,29.575000762939453,0.0,0.0,0.0,0.0,0.0,,,,,
frame_00116.png,1771858404623360390,1771858404.6233604,42.300870582149365,-83.69766134836999,238.10897827148438,-0.014041234268663993,-0.9996325365533878,-0.00972457875746969,-0.021049184593287557,0.019030000000000002,-0.05816,0.0026600000000000005,1.0827,-0.29250000000000004,-9.538300000000001,9.160339145186814,20.491129047434193,25.3799991607666,25.420000076293945,25.510000228881836,25.529998779296875,20.608793322134744,20.641274434351388,20.714355388054162,20.73059439537781,20.673754384979524,0.008912409712640967,-1.899999976158142,28.950000762939453,0.0,0.0,0.0,0.0,0.0,,,,,
frame_00117.png,1771858404673122467,1771858404.6731226,42.30087061048545,-83.69766580139951,238.10301208496094,-0.014112837253449473,-0.9996084768375579,-0.009240573295652553,-0.022323365882478515,0.018000000000000002,-0.04926000000000001,0.0035700000000000007,0.6281,0.29460000000000003,-9.2102,9.20629944247068,20.593939474840365,25.760000228881836,25.59000015258789,25.599998474121094,25.639999389648438,20.917357693054164,20.779316063702773,20.78743479297226,20.819915905188903,20.826006113729527,0.011268686070126491,-2.0,29.149999618530273,0.0,0.0,0.0,0.0,0.0,,,,,
frame_00118.png,1771858404724401344,1771858404.7244015,42.300870662764574,-83.69767251437091,238.09323120117188,-0.014085828184344285,-0.9995978032652794,-0.008531914538145138,-0.023087390192545357,0.016940000000000004,0.0021400000000000004,-0.0008300000000000001,0.034300000000000004,1.3939000000000001,-9.0835,9.250861389384305,20.693621876369328,25.8799991607666,25.809999465942383,25.78999900817871,25.78999900817871,21.014797932134744,20.95795753454029,20.94171697843197,20.94171697843197,20.964047355884745,0.013068059382307748,-2.0,29.350000381469727,0.0,0.0,0.0,0.0,0.0,,,,,
frame_00119.png,1771858404774127211,1771858404.774127,42.30087069996816,-83.69767701611215,238.08714294433594,-0.013941223578175233,-0.9995979605689435,-0.007976602033508525,-0.02336521627443942,0.007490000000000002,-0.01025,0.00019000000000000004,-0.3839,0.7065,-12.025300000000001,9.302393532233266,20.808896187993884,25.939998626708984,26.01999855041504,25.959999084472656,25.869998931884766,21.063518051675032,21.12847872732365,21.079758607783358,21.006677654080583,21.06960826021566,0.0125288756244648,-2.0,29.450000762939453,0.0,0.0,0.0,0.0,0.0,,,,,
frame_00120.png,1771858404825150382,1771858404.8251505,42.30087075980111,-83.69768379437232,238.08111572265625,-0.013849761760308443,-0.9995912451358581,-0.00802502566251246,-0.02368809215711175,-0.015250000000000001,-0.024500000000000004,0.005370000000000001,0.1698,-0.42960000000000004,-10.6912,9.35900045381489,20.93552247515668,26.079999923706055,26.10999870300293,26.189998626708984,26.170000076293945,21.17720039564861,21.201559681026424,21.266520356675034,21.25028134935139,21.223890445675366,0.01377409954114493,-2.0,29.399999618530273,0.0,0.0,0.0,0.0,0.0,,,,,
frame_00121.png,1771858404874905361,1771858404.8749053,42.30087078836745,-83.69768833437406,238.07774353027344,-0.013856779921396889,-0.9996011856505779,-0.008573989048982038,-0.02306395473367014,-0.010360000000000001,0.023330000000000004,-0.00223,0.9361,0.3766,-5.6399,9.398051573398352,21.02287748659771,26.349998474121094,26.34000015258789,26.549999237060547,26.68000030517578,21.396441707972258,21.388322978702774,21.558844171486133,21.664406237405547,21.502003773891676,0.0227907091976069,-2.299999952316284,29.30000114440918,0.0,0.0,0.0,0.0,0.0,,,,,
frame_00122.png,1771858404926451388,1771858404.9264514,42.30087083757789,-83.6976951702303,238.06422424316406,-0.013800186605426312,-0.9996489149705522,-0.007492771193095135,-0.021341509499126304,0.044160000000000005,0.07821,-0.0036600000000000005,0.9259000000000001,-0.3305,-8.2607,9.433027709895239,21.101117005373055,26.6299991607666,26.68000030517578,26.59000015258789,26.689998626708984,21.623804847134743,21.664406237405547,21.591325283702773,21.672524966675034,21.638015333729527,0.025444071430899096,-2.799999952316284,29.274999618530273,0.0,0.0,0.0,0.0,0.0,,,,,
frame_00123.png,1771858404976326361,1771858404.9763265,42.30087087783178,-83.69769975264795,238.05123901367188,-0.013855706971112658,-0.9996910792771422,-0.006008826011733914,-0.019739792501291088,0.05543000000000001,0.03626000000000001,0.004660000000000001,0.5399,0.45480000000000004,-12.4917,9.512495054258396,21.278880686672778,26.829999923706055,26.69999885559082,26.549999237060547,26.59000015258789,21.786207310648614,21.680645244729195,21.558844171486133,21.591325283702773,21.65425550264168,0.01764072187330803,-3.200000047683716,28.774999618530273,0.0,0.0,0.0,0.0,0.0,,,,,
frame_00124.png,1771858405036650213,1771858405.0366502,42.300870952332964,-83.69770669134842,238.0360565185547,-0.01384714051878072,-0.9996967131542112,-0.004371678375341288,-0.019890370441559873,0.07558000000000001,-0.043620000000000006,0.0017900000000000004,1.6162,1.0350000000000001,-13.4198,9.63208078464689,21.546386790408015,27.010000228881836,26.969999313354492,26.76999855041504,26.619998931884766,21.932369218054163,21.899888105837515,21.737485642323648,21.61568456908058,21.79635688382398,0.011601485476314078,-3.4000000953674316,28.55000114440918,0.0,0.0,0.0,0.0,0.0,,,,,
frame_00125.png,1771858405085810538,1771858405.0858104,42.300871041787815,-83.69771372683593,238.02816772460938,-0.013844829717970075,-0.9996217046723468,-0.002616176091597382,-0.02362041195003867,0.044820000000000006,-0.21583000000000005,-0.006350000000000001,2.4487,-0.6165,-11.9448,9.771479051257828,21.858212348920688,26.849998474121094,26.84000015258789,26.849998474121094,26.729999542236328,21.80244631797226,21.794327588702778,21.80244631797226,21.705006078891678,21.776056575884745,0.00375857694693865,-3.700000047683716,28.125,0.0,0.0,0.0,0.0,0.0,,,,,
frame_00126.png,1771858405129710711,1771858405.1297107,42.30087109356584,-83.69771847849857,238.0262908935547,-0.013970160039420754,-0.9994883606917202,-0.002081068393501853,-0.028697049057211436,0.0337,-0.22467,0.008990000000000001,-0.33580000000000004,0.12480000000000001,-9.3261,9.815071765189277,21.955726634422504,26.899999618530273,26.65999984741211,26.8799991607666,26.649999618530273,21.843047708243066,21.64816568129723,21.82680715213474,21.640045403243068,21.739516486229522,0.009847551474520743,-4.599999904632568,28.42500114440918,0.0,0.0,0.0,0.0,0.0,,,,,
frame_00127.png,1771858405178330813,1771858405.178331,42.30087112683385,-83.6977232561298,238.02496337890625,-0.014233179751803217,-0.9992827244993365,-0.0031533677975135177,-0.034950098467235596,-0.07803,-0.21462,0.021930000000000005,-1.3967,0.6186,-8.145800000000001,9.844301603895952,22.02111202981901,26.989999771118164,26.989999771118164,26.939998626708984,26.989999771118164,21.91612866194584,21.91612866194584,21.875527271675033,21.91612866194584,21.90597831437814,0.005228333395923384,-5.200000286102295,30.30000114440918,0.0,0.0,0.0,0.0,0.0,,,,,
frame_00128.png,1771858405229479104,1771858405.229479,42.300871160876895,-83.69773042372513,238.01864624023438,-0.014576081722109226,-0.999119211478539,-0.004417649472253895,-0.03910017224096533,-0.05136,-0.10654000000000001,0.0187,-1.8463,-0.6647000000000001,-6.818300000000001,9.838743205854726,22.008678226904674,27.28999900817871,27.299999237060547,27.189998626708984,27.260000228881836,22.15973080843197,22.16785108648613,22.078529576675038,22.13537152305416,22.135370748661824,0.005756480259785593,-4.900000095367432,32.04999923706055,0.0,0.0,0.0,0.0,0.0,,,,,
frame_00129.png,1771858405279404559,1771858405.2794046,42.30087119267753,-83.6977375601313,238.00265502929688,-0.014966453045633933,-0.9990980697725429,-0.0054734872507067635,-0.03935852127974658,-0.014130000000000002,0.06198000000000001,0.01923,-2.2266,0.39990000000000003,-5.7342,9.794310253175164,21.909284377737652,27.260000228881836,27.44999885559082,27.559999465942383,27.639999389648438,22.13537152305416,22.289652159729197,22.37897366954029,22.443934345188907,22.31198292437814,0.018380269282080003,-4.700000286102295,33.82500076293945,0.0,0.0,0.0,0.0,0.0,,,,,
frame_00130.png,1771858405330073797,1771858405.3300738,42.30087121601218,-83.69774229365888,237.98422241210938,-0.015098653687216579,-0.9992510381145828,-0.006897062068673267,-0.034954599390967137,-0.0874,0.21242000000000003,-0.0006900000000000001,2.8186,1.7544000000000002,-7.3367,9.814564057819197,21.954590923498078,27.75,27.5,27.979999542236328,28.279998779296875,22.533255855,22.330253550000002,22.72001760389168,22.96361975037781,22.63678668981737,0.0310730347332109,-4.0,35.97500228881836,0.0,0.0,0.0,0.0,0.0,,,,,
frame_00131.png,1771858405380084118,1771858405.3800843,42.30087130180852,-83.69774941167984,237.950439453125,-0.015065175576775502,-0.9994779392983763,-0.004993499086883612,-0.028141682742536183,0.06914000000000001,0.38610000000000005,-0.015750000000000004,0.1051,-0.012700000000000001,-2.7369000000000003,9.824121374454089,21.975970067371332,28.15999984741211,28.18000030517578,28.69999885559082,29.17999839782715,22.866179511297226,22.88242006740555,23.304663684729196,23.694427738620874,23.18692275051321,0.05510349165153958,-3.4000000953674316,33.60000228881836,0.0,0.0,0.0,0.0,0.0,,,,,
frame_00132.png,1771858405431094522,1771858405.4310946,42.30087133615177,-83.69775419699492,237.91429138183594,-0.015137228136768821,-0.999673850997934,-0.003973796531594444,-0.02018080514799644,-0.04456,0.21460000000000004,-0.022550000000000004,3.5964,-5.2274,-7.857200000000001,9.944697684672008,22.245692038750203,28.6299991607666,28.44999885559082,28.649999618530273,28.35999870300293,23.247823287134747,23.101661379729194,23.264063843243065,23.02858042602642,23.160532234033358,0.0411243756179658,-3.200000047683716,29.725000381469727,0.0,0.0,0.0,0.0,0.0,,,,,
frame_00133.png,1771858405480874639,1771858405.4808748,42.300871399587805,-83.69776148381668,237.8739471435547,-0.01527038044633372,-0.9997705708549697,-0.00389359731549236,-0.014507275185131466,0.017200000000000003,0.20230000000000004,-0.011940000000000001,1.7896,-0.5765,-9.8225,10.065599175036567,22.5161414186063,28.849998474121094,28.68000030517578,28.03999900817871,27.649999618530273,23.42646475797226,23.28842467740555,22.768737723431972,22.452054623243065,22.983920445513213,0.02077527486660584,-3.200000047683716,27.274999618530273,0.0,0.0,0.0,0.0,0.0,,,,,
frame_00134.png,1771858405532157742,1771858405.5321577,42.3008714434983,-83.69776640794971,237.86184692382812,-0.015475135587308175,-0.9997617856283447,-0.005482289569762073,-0.014381817578158792,-0.05109000000000001,-0.03873000000000001,0.010530000000000001,1.2479,0.6898000000000001,-20.0438,10.244455037561954,22.91623125172384,28.599998474121094,28.44999885559082,28.349998474121094,28.260000228881836,23.22346245297226,23.101661379729194,23.020460147972262,22.94738074305416,23.073241180931966,0.006851472542908429,-3.0,25.325000762939453,0.0,0.0,0.0,0.0,0.0,,,,,
frame_00135.png,1771858405582061908,1771858405.5820618,42.30087148203701,-83.69777391631648,237.86671447753906,-0.015696914831693554,-0.999658804349729,-0.007937660563554595,-0.01930997917178583,-0.12642,-0.31448000000000004,0.01584,1.7847000000000002,-0.22920000000000001,-19.1762,10.4117667917656,23.290497607172146,28.459999084472656,28.260000228881836,28.69999885559082,28.989999771118164,23.109781657783355,22.94738074305416,23.304663684729196,23.54014710194584,23.225493296878135,0.002791022819280313,-3.0,26.274999618530273,0.0,0.0,0.0,0.0,0.0,,,,,
frame_00136.png,1771858405633127274,1771858405.6331272,42.30087149908184,-83.69777897713065,237.87997436523438,-0.01618778534776144,-0.9994728917207254,-0.009836057370324553,-0.026365627175428324,-0.05743000000000001,-0.23827000000000004,0.013300000000000001,2.0865,-0.6642,-4.9157,10.467944510934732,23.41616379429034,28.43000030517578,28.389999389648438,28.760000228881836,29.1299991607666,23.08542237240555,23.052941260188906,23.35338535305416,23.653827897134743,23.28639422069584,0.005541880161691707,-3.0,27.30000114440918,0.0,0.0,0.0,0.0,0.0,,,,,
frame_00137.png,1771858405682653599,1771858405.6826537,42.300871541613866,-83.69778660397616,237.8876190185547,-0.01658247505186261,-0.9992711890571804,-0.010774075907220152,-0.03265013828069561,-0.0027300000000000007,-0.12411000000000001,0.00727,-1.3227,1.2811000000000001,-5.7498000000000005,10.451866078628658,23.38019730592759,28.739999771118164,28.719999313354492,29.03999900817871,29.299999237060547,23.33714479694584,23.32090424083752,23.58074694343197,23.79186952648613,23.507666376925364,0.005452010063467485,-2.9000000953674316,26.950000762939453,0.0,0.0,0.0,0.0,0.0,,,,,
frame_00138.png,1771858405733665989,1771858405.733666,42.300871585523886,-83.69779167949098,237.880859375,-0.016842057648871755,-0.9992212373753588,-0.009864015778694344,-0.03429234703146471,0.05652000000000001,-0.007980000000000001,0.0175,-1.274,0.3579,-2.388,10.46411069570138,23.40758777964225,29.59000015258789,29.31999969482422,29.479999542236328,29.349998474121094,24.027352943702773,23.808110082594453,23.93803143389168,23.83246936797226,23.901490957040295,0.02110013137823613,-2.6000001430511475,26.17500114440918,0.0,0.0,0.0,0.0,0.0,,,,,
frame_00139.png,1771858405783513962,1771858405.7835138,42.300871647766904,-83.69779926759136,237.8534393310547,-0.017070572026603448,-0.9992829930611515,-0.009190878161014516,-0.03252111787839181,-0.03990000000000001,0.09367,-0.0010600000000000002,-0.4882,-2.8784,-6.1569,10.440569955187481,23.354928555557084,29.969999313354492,29.809999465942383,29.670000076293945,29.599998474121094,24.33591576583752,24.205994414540292,24.092313619351387,24.03547167297226,24.167423868175366,0.034789030104952136,-2.4000000953674316,23.350000381469727,0.0,0.0,0.0,0.0,0.0,,,,,
frame_00140.png,1771858405834700017,1771858405.8347,42.30087169596617,-83.6978043278725,237.8291778564453,-0.01718669199808892,-0.9994198022280218,-0.01017039366601958,-0.027590571312361614,-0.05652000000000001,0.20588,0.00478,-1.7772000000000001,-0.6183000000000001,-10.5493,10.474840404659387,23.43158949479877,30.09000015258789,30.10999870300293,29.60999870300293,29.60999870300293,24.433357553702773,24.44959656102642,24.043591951026425,24.043591951026425,24.24253450419551,0.03460904816451949,-2.299999952316284,23.149999618530273,0.0,0.0,0.0,0.0,0.0,,,,,
frame_00141.png,1771858405884640901,1771858405.884641,42.30087176578117,-83.69781195521652,237.79306030273438,-0.01722826590880272,-0.9995207232373231,-0.011428063775312436,-0.023041485005555133,-0.05830000000000001,0.11293000000000002,0.013720000000000001,-2.2602,-0.31270000000000003,-14.6186,10.561171931449495,23.624707940336634,29.78999900817871,30.25,29.619998931884766,29.78999900817871,24.18975385843197,24.563278905000004,24.051712229080582,24.18975385843197,24.24862471273613,0.026409502033852714,-2.5,22.725000381469727,0.0,0.0,0.0,0.0,0.0,,,,,
frame_00142.png,1771858405936062244,1771858405.936062,42.30087181444718,-83.69781707389708,237.77410888671875,-0.017183354066420242,-0.9995901599407812,-0.01259896846699746,-0.019118328539896978,0.037840000000000006,0.12489000000000001,0.00011000000000000002,-0.8927,0.233,-13.0472,10.603778424573738,23.72001610906598,30.229999542236328,30.42999839782715,29.90999984741211,29.849998474121094,24.54703834889168,24.709439263620872,24.287195646297228,24.23847397797226,24.44553680919551,0.0305868552868406,-2.5,22.899999618530273,0.0,0.0,0.0,0.0,0.0,,,,,
frame_00143.png,1771858405985949861,1771858405.98595,42.30087189055685,-83.69782478984874,237.75555419921875,-0.01723999866669923,-0.9996372683333263,-0.012861512935043118,-0.01620788974786764,0.03391,0.06816000000000001,0.010460000000000002,-0.0234,3.3053000000000003,-13.5614,10.671165309393173,23.870756527193965,30.239999771118164,30.03999900817871,30.09000015258789,30.149999618530273,24.55515862694584,24.39275616343197,24.433357553702773,24.48207767324307,24.465837504330914,0.024929288540102294,-2.0,21.125,0.0,0.0,0.0,0.0,0.0,,,,,
frame_00144.png,1771858406046553125,1771858406.0465531,42.30087198003592,-83.69783256596402,237.74732971191406,-0.01720956596455714,-0.9996873124231604,-0.011990855024976509,-0.013613508557311955,0.00321,0.12819000000000003,0.0018800000000000004,3.7277,-0.16060000000000002,-9.8793,10.75647999539997,24.06160036091001,30.09000015258789,30.329999923706055,30.51999855041504,30.389999389648438,24.433357553702773,24.628239580648614,24.782520217323647,24.676959700188903,24.630269262965985,0.023633876946099704,-1.600000023841858,4.724999904632568,0.0,0.0,0.0,0.0,0.0,,,,,
frame_00145.png,1771858406095489579,1771858406.0954895,42.30087203981079,-83.69783778009707,237.7461395263672,-0.017116138199437247,-0.9996860970399843,-0.012140775122943296,-0.013687467900045222,-0.022860000000000005,0.02099,0.00928,1.8056,0.8821,-12.474,10.799529617088412,24.157899781649753,30.09000015258789,30.209999084472656,30.26999855041504,30.279998779296875,24.433357553702773,24.530797792783357,24.57951791232365,24.58763819037781,24.532827862296898,0.015519895522206718,-1.8000000715255737,0.0,0.0,0.0,0.0,0.0,0.0,,,,,
frame_00146.png,1771858406148162115,1771858406.1481621,42.30087212948998,-83.69784565019762,237.74745178222656,-0.01700096667058193,-0.9996697821273717,-0.012337243281548583,-0.014801562819193172,-0.00338,0.0073100000000000005,0.0014800000000000002,-0.3017,-0.0674,-8.7763,10.836898651624763,24.2414920697655,30.059999465942383,30.15999984741211,30.229999542236328,30.189998626708984,24.408996719540294,24.49019795129723,24.54703834889168,24.514557236675035,24.49019756410106,0.010259496140740898,-2.0,0.0,0.0,0.0,0.0,0.0,0.0,,,,,
frame_00147.png,1771858406187795463,1771858406.1877954,42.30087218150885,-83.69785092647544,237.74798583984375,-0.017153695916591105,-0.999638438218674,-0.013201849042553133,-0.015951637345070855,-0.024310000000000002,-0.11086000000000001,0.028690000000000007,0.8689,3.4476,-10.4221,10.894877503080188,24.371187281740198,30.26999855041504,30.219999313354492,29.76999855041504,30.260000228881836,24.57951791232365,24.538918070837518,24.17351330232365,24.57139918305416,24.46583711713474,0.0038836776518252234,-2.1000001430511475,0.0,0.0,0.0,0.0,0.0,0.0,,,,,
frame_00148.png,1771858406239156268,1771858406.2391562,42.30087226041161,-83.69785885035853,237.7535858154297,-0.01730184923614403,-0.999593091274332,-0.013417959076587277,-0.018282676605286916,0.03286000000000001,-0.12579,0.019100000000000002,1.0678,4.8082,-8.7666,10.905770843656677,24.39555503100937,30.309999465942383,30.17999839782715,30.26999855041504,30.28999900817871,24.611999024540292,24.506436958620874,24.57951791232365,24.595758468431967,24.573428090979196,0.007291207752548799,-2.1000001430511475,0.0,0.0,0.0,0.0,0.0,0.0,,,,,
frame_00149.png,1771858406288874653,1771858406.2888749,42.3008723258693,-83.69786414368612,237.75929260253906,-0.01734772523680872,-0.9995458347654312,-0.012551526708991102,-0.02120471196358963,-0.004070000000000001,-0.13081,0.026350000000000005,-1.5148000000000001,2.5643000000000002,-9.7523,10.903740072223231,24.391012317159035,30.34000015258789,30.119998931884766,30.35999870300293,30.229999542236328,24.63635985870277,24.457716839080582,24.652598866026423,24.54703834889168,24.573428478175362,0.007478826981199047,-2.0,0.0,0.0,0.0,0.0,0.0,0.0,,,,,
frame_00150.png,1771858406340041417,1771858406.3400414,42.300872428110075,-83.69787208616361,237.76332092285156,-0.017327009421648887,-0.9995208670917,-0.011531133896288025,-0.022909472796734123,0.019180000000000003,-0.04920000000000001,0.010570000000000001,-1.4143000000000001,0.32630000000000003,-6.7327,10.895965002445168,24.373619952569694,30.299999237060547,30.349998474121094,30.56999969482422,30.3799991607666,24.60387874648613,24.64447858797226,24.82312160759445,24.66883942213474,24.685079591046893,0.012778554809802157,-1.899999976158142,0.0,0.0,0.0,0.0,0.0,0.0,,,,,
frame_00151.png,1771858406389956711,1771858406.3899567,42.30087249274182,-83.69787736949502,237.7592010498047,-0.017300458925291418,-0.999514178759824,-0.011184797945081003,-0.023388049811322118,0.01004,-0.0031700000000000005,0.0008300000000000001,-1.1482,-0.3115,-6.759,10.885803510976551,24.35088930584389,30.51999855041504,30.299999237060547,30.599998474121094,30.510000228881836,24.782520217323647,24.60387874648613,24.84748089297226,24.774401488054163,24.75207033620905,0.01647500529965795,-2.299999952316284,0.0,0.0,0.0,0.0,0.0,0.0,,,,,
frame_00152.png,1771858406440867278,1771858406.4408674,42.30087259194278,-83.6978852838418,237.74696350097656,-0.017252119399160215,-0.9995261633940514,-0.011116571611860335,-0.022939810430853122,0.01314,0.0108,0.006750000000000001,-0.26990000000000003,0.9972000000000001,-9.2699,10.884662477921497,24.348336883361714,30.60999870300293,30.459999084472656,30.469999313354492,30.28999900817871,24.85560117102642,24.73380009778336,24.741920375837516,24.595758468431967,24.731770028269814,0.015747816647391492,-2.5,0.0,0.0,0.0,0.0,0.0,0.0,,,,,
frame_00153.png,1771858406490607091,1771858406.490607,42.30087265742147,-83.69789055541223,237.73681640625,-0.01723915384377378,-0.9995516329094587,-0.010913990029365307,-0.021914140284851943,0.018650000000000003,0.05356000000000001,-0.00014000000000000004,0.2879,1.6497000000000002,-8.9929,10.874780616257695,24.32623175173149,30.60999870300293,30.420000076293945,30.389999389648438,30.229999542236328,24.85560117102642,24.70132053435139,24.676959700188903,24.54703834889168,24.695229938614595,0.015168735982170337,-2.5,0.0,0.0,0.0,0.0,0.0,0.0,,,,,
frame_00154.png,1771858406541708057,1771858406.541708,42.30087276052446,-83.69789846480917,237.7223358154297,-0.01724186964178326,-0.9995680743711752,-0.010549601714257988,-0.021332804148231105,0.010820000000000001,0.00544,0.007620000000000001,-0.2503,2.0538000000000003,-10.8983,10.886192691921819,24.351759880267593,30.389999389648438,30.489999771118164,30.3799991607666,30.42999839782715,24.676959700188903,24.758160931945838,24.66883942213474,24.709439263620872,24.703349829472586,0.014437968792961383,-2.4000000953674316,0.0,0.0,0.0,0.0,0.0,0.0,,,,,
frame_00155.png,1771858406600696617,1771858406.6006966,42.300872856246094,-83.69790638983348,237.71241760253906,-0.017240522637047895,-0.9995710381436229,-0.010035452042189509,-0.02144280266174568,-0.022750000000000003,-0.025820000000000003,0.00039000000000000005,-0.6446000000000001,0.5242,-9.7691,10.88909450396812,24.35825105970645,30.459999084472656,30.469999313354492,30.51999855041504,30.51999855041504,24.73380009778336,24.741920375837516,24.782520217323647,24.782520217323647,24.760190227067042,0.016501150529049335,-2.299999952316284,0.0,0.0,0.0,0.0,0.0,0.0,,,,,
frame_00156.png,1771858406651785670,1771858406.6517856,42.300872910878844,-83.69791168247428,237.70748901367188,-0.017230447340394583,-0.9995538231983834,-0.010045972770248265,-0.022233862575904276,-0.031200000000000006,-0.06290000000000001,0.007110000000000001,-0.8637,-0.5924,-10.6483,10.906834074232428,24.39793341401349,30.389999389648438,30.439998626708984,30.389999389648438,30.369998931884766,24.676959700188903,24.717559541675033,24.676959700188903,24.660719144080584,24.683049521533356,0.01168607613938739,-2.4000000953674316,0.0,0.0,0.0,0.0,0.0,0.0,,,,,
frame_00157.png,1771858406701796161,1771858406.701796,42.30087299736565,-83.69791962703354,237.70118713378906,-0.017277844070392512,-0.99952266714315,-0.009973558431352034,-0.023589025065471288,-0.004900000000000001,-0.06312000000000001,0.0022800000000000003,-0.2061,-1.3704,-10.421000000000001,10.91579156751087,24.41797078902777,30.260000228881836,30.219999313354492,30.309999465942383,30.349998474121094,24.57139918305416,24.538918070837518,24.611999024540292,24.64447858797226,24.59169871660106,0.007114756958074238,-2.4000000953674316,0.0,0.0,0.0,0.0,0.0,0.0,,,,,
frame_00158.png,1771858406752697081,1771858406.752697,42.30087305575317,-83.6979249155844,237.69717407226562,-0.0173939955386348,-0.999491750956151,-0.010264562800072203,-0.024664294847668543,0.00863,-0.04569000000000001,0.0008500000000000001,0.0077,0.906,-10.233500000000001,10.889231998393,24.35855862648524,30.420000076293945,30.329999923706055,30.389999389648438,30.26999855041504,24.70132053435139,24.628239580648614,24.676959700188903,24.57951791232365,24.64650943187814,0.011821340080435153,-2.4000000953674316,0.0,0.0,0.0,0.0,0.0,0.0,,,,,
frame_00159.png,1771858406802640945,1771858406.802641,42.30087315097559,-83.69793281613079,237.68951416015625,-0.017516683231840025,-0.9995071111104248,-0.009216810533051123,-0.024367007445436295,0.06055000000000001,0.05491000000000001,0.01025,-0.6267,1.6781000000000001,-7.661700000000001,10.83684225891763,24.241365922663203,30.510000228881836,30.439998626708984,30.60999870300293,30.479999542236328,24.774401488054163,24.717559541675033,24.85560117102642,24.750040653891677,24.774400713661823,0.021988645058168402,-2.4000000953674316,4.300000190734863,0.0,0.0,0.0,0.0,0.0,,,,,
frame_00160.png,1771858406853803591,1771858406.8538036,42.30087321117816,-83.69793806830943,237.68353271484375,-0.01750025168239444,-0.9995638228843986,-0.00790013310449886,-0.022438651223069574,0.032650000000000005,0.07720000000000002,0.0037200000000000006,1.3675000000000002,0.8228000000000001,-11.918600000000001,10.837469381693122,24.242768758684615,30.459999084472656,30.42999839782715,30.65999984741211,30.439998626708984,24.73380009778336,24.709439263620872,24.896202561297226,24.717559541675033,24.76425036609412,0.02151081060915092,-2.4000000953674316,11.675000190734863,0.0,0.0,0.0,0.0,0.0,,,,,
frame_00161.png,1771858406894533542,1771858406.8945336,42.30087326808264,-83.69794332267803,237.6779022216797,-0.017545297682717065,-0.9995847590981433,-0.00759171670368226,-0.021560096136674926,-0.004810000000000001,0.032940000000000004,0.00109,-1.2655,-1.2224000000000002,-7.4966,10.831690581182771,24.22984192867099,30.399999618530273,30.28999900817871,30.549999237060547,30.439998626708984,24.685079978243067,24.595758468431967,24.806881051486133,24.717559541675033,24.70131975995905,0.019458559931014772,-2.5,13.725000381469727,0.0,0.0,0.0,0.0,0.0,,,,,
frame_00162.png,1771858406954632574,1771858406.9546325,42.30087334667641,-83.69795121104153,237.6664581298828,-0.01752852309713826,-0.9996029093545591,-0.008461526032682527,-0.020375894216755057,-0.04207,0.03572,0.00151,-0.8209000000000001,-1.5864,-11.0898,10.842361930358576,24.253713096496316,30.349998474121094,30.25,30.439998626708984,30.399999618530273,24.64447858797226,24.563278905000004,24.717559541675033,24.685079978243067,24.65259925322259,0.016446395450430917,-2.9000000953674316,14.175000190734863,0.0,0.0,0.0,0.0,0.0,,,,,
frame_00163.png,1771858406996032014,1771858406.996032,42.30087339977675,-83.69795647260663,237.6573028564453,-0.01764351567702327,-0.9996072465356478,-0.009172323796959685,-0.01974658208751802,-0.04255000000000001,0.028020000000000003,-0.004850000000000001,0.6322,-1.1626,-10.431700000000001,10.860493902774817,24.2942732308731,30.42999839782715,30.34000015258789,30.329999923706055,30.51999855041504,24.709439263620872,24.63635985870277,24.628239580648614,24.782520217323647,24.689139730073975,0.016253480622712403,-3.0,15.100000381469727,0.0,0.0,0.0,0.0,0.0,,,,,
frame_00164.png,1771858407055350141,1771858407.05535,42.30087345851607,-83.69796438607754,237.6475067138672,-0.017780989156000626,-0.9995588441038205,-0.011058396973288318,-0.021063367604673842,-0.056400000000000006,-0.09844000000000001,-0.0037200000000000006,1.1382,-0.396,-12.7341,10.92516964777297,24.43894899188927,29.719999313354492,29.719999313354492,30.15999984741211,30.229999542236328,24.132913460837518,24.132913460837518,24.49019795129723,24.54703834889168,24.325765805465984,0.004631262435256442,-3.200000047683716,15.550000190734863,0.0,0.0,0.0,0.0,0.0,,,,,
frame_00165.png,1771858407097344300,1771858407.0973442,42.30087349473943,-83.6979696712062,237.64532470703125,-0.017828841811705576,-0.9995080267574568,-0.012592254567295288,-0.022522699038540567,-0.04902,-0.07842000000000002,-0.014820000000000002,2.1543,2.9651,-8.5982,10.89487857424282,24.371189677866738,30.44999885559082,30.1299991607666,30.260000228881836,30.309999465942383,24.725679819729198,24.465837117134743,24.57139918305416,24.611999024540292,24.5937287861146,0.009131236972398014,-2.799999952316284,18.55000114440918,0.0,0.0,0.0,0.0,0.0,,,,,
frame_00166.png,1771858407157246491,1771858407.1572464,42.30087356633429,-83.69797759687695,237.64462280273438,-0.01781116888970391,-0.9994869104938366,-0.011733059782932275,-0.023895885051563218,0.04796000000000001,0.029930000000000005,-0.008290000000000002,0.6058,2.0099,-6.0758,10.885107595228302,24.349332584069998,30.34000015258789,30.189998626708984,30.549999237060547,30.469999313354492,24.63635985870277,24.514557236675035,24.806881051486133,24.741920375837516,24.674929630675365,0.01337190846940837,-1.8000000715255737,20.5,0.0,0.0,0.0,0.0,0.0,,,,,
frame_00167.png,1771858407216510269,1771858407.2165103,42.300873657829904,-83.69798550805903,237.63650512695312,-0.017821565794766348,-0.9995222091380498,-0.01017552519250128,-0.023112851824737195,-0.009960000000000002,0.06979000000000002,0.00727,-0.0091,1.0432000000000001,-7.1363,10.862774173833017,24.29937406041403,30.559999465942383,30.51999855041504,30.75,30.689998626708984,24.815001329540294,24.782520217323647,24.969283515,24.92056184667503,24.871841727134743,0.023558947045196354,-1.399999976158142,20.024999618530273,0.0,0.0,0.0,0.0,0.0,,,,,
frame_00168.png,1771858407248514478,1771858407.2485147,42.30087370880957,-83.69799077807389,237.62722778320312,-0.017675022146260988,-0.9995468521208333,-0.010073022567654704,-0.02218599161214307,-0.011540000000000002,0.059390000000000005,-0.014960000000000003,-0.3655,-1.6465,-10.8132,10.886661587863948,24.352808772356383,30.56999969482422,30.619998931884766,30.65999984741211,30.529998779296875,24.82312160759445,24.863721449080582,24.896202561297226,24.790640495377808,24.843421528337515,0.020146043956048385,-1.7000000476837158,19.67500114440918,0.0,0.0,0.0,0.0,0.0,,,,,
frame_00169.png,1771858407298928607,1771858407.2989287,42.300873760824366,-83.69799605763365,237.6175537109375,-0.01753744188707146,-0.9995737337186101,-0.011461620510411354,-0.020332738309678522,-0.09163,0.07392000000000001,-0.0013800000000000002,0.4471,-1.491,-6.999300000000001,10.904795781444497,24.393373875344455,30.689998626708984,30.60999870300293,30.849998474121094,30.760000228881836,24.92056184667503,24.85560117102642,25.050483197972262,24.97740379305416,24.95101250218197,0.022860250069841624,-1.7000000476837158,18.100000381469727,0.0,0.0,0.0,0.0,0.0,,,,,
frame_00170.png,1771858407349917008,1771858407.349917,42.3008738008754,-83.69800399696263,237.60067749023438,-0.017633851895908048,-0.9995458197839298,-0.01494178904506914,-0.019337641012220106,-0.17604000000000003,-0.05743000000000001,0.012940000000000002,-0.9805,0.9801000000000001,-17.8082,10.944414143816704,24.481997774869342,30.78999900817871,30.729999542236328,30.01999855041504,30.119998931884766,25.001763078431967,24.95304295889168,24.376515607323647,24.457716839080582,24.697259620931966,0.008792658509412563,-1.899999976158142,17.975000381469727,0.0,0.0,0.0,0.0,0.0,,,,,
frame_00171.png,1771858407399893014,1771858407.399893,42.30087384782005,-83.6980119802111,237.59036254882812,-0.017876481580670345,-0.9995367326573346,-0.01555330788669984,-0.019100944709032227,-0.04207,-0.044550000000000006,0.004370000000000001,1.9913,-0.4561,-7.4087000000000005,10.994733488984458,24.594559130848896,30.67999839782715,30.56999969482422,30.60999870300293,30.829999923706055,24.912441568620874,24.82312160759445,24.85560117102642,25.034244190648614,24.90635213447259,0.012677316229369351,-1.899999976158142,18.625,0.0,0.0,0.0,0.0,0.0,,,,,
frame_00172.png,1771858407459442464,1771858407.4594424,42.30087392899241,-83.69801999700843,237.58935546875,-0.01804813462780508,-0.9995132229411912,-0.013650025484570534,-0.02147693661674507,0.07582000000000001,-0.04075000000000001,0.00255,0.054900000000000004,2.5089,-9.6059,11.017232108870715,24.644887193617258,30.60999870300293,30.56999969482422,30.849998474121094,30.56999969482422,24.85560117102642,24.82312160759445,25.050483197972262,24.82312160759445,24.8880818960469,0.009867957622164537,-1.600000023841858,18.30000114440918,0.0,0.0,0.0,0.0,0.0,,,,,
frame_00173.png,1771858407509335475,1771858407.5093355,42.30087399009768,-83.69802535179863,237.58905029296875,-0.017973606644503592,-0.9994840202562179,-0.012386010942883868,-0.0235633072716799,0.015850000000000003,-0.08375000000000002,-0.00072,-1.2765,0.3149,-9.977400000000001,11.034394325601733,24.683278042711542,30.67999839782715,30.709999084472656,30.829999923706055,30.849998474121094,24.912441568620874,24.936802402783357,25.034244190648614,25.050483197972262,24.983492840006278,0.012162679396766051,-1.7000000476837158,18.450000762939453,0.0,0.0,0.0,0.0,0.0,,,,,
frame_00174.png,1771858407551612633,1771858407.5516126,42.300874050996036,-83.69803070612612,237.58602905273438,-0.01787327563682589,-0.9994624393865309,-0.01265393518892478,-0.024397872812390364,-0.011910000000000002,-0.03538,-0.007850000000000001,-0.3412,-0.0608,-7.9276,11.04402631449264,24.70482422394117,30.729999542236328,30.76999855041504,30.92999839782715,30.829999923706055,24.95304295889168,24.98552252232365,25.115443873620872,25.034244190648614,25.0220633863712,0.012841182740438124,-2.1000001430511475,18.0,0.0,0.0,0.0,0.0,0.0,,,,,
frame_00175.png,1771858407601120458,1771858407.6011205,42.30087413438094,-83.69803873972378,237.5772705078125,-0.01784972090782927,-0.9994472300200508,-0.01349122996474495,-0.024588789779059674,-0.014180000000000002,0.015550000000000001,-0.0020000000000000005,0.049300000000000004,-0.0814,-8.3694,11.047304359882393,24.71215701479532,30.869998931884766,30.959999084472656,30.920000076293945,30.969999313354492,25.06672375408058,25.13980470778336,25.10732514435139,25.147924985837516,25.115444648013213,0.01631940234826293,-2.299999952316284,13.27500057220459,0.0,0.0,0.0,0.0,0.0,,,,,
frame_00176.png,1771858407651864871,1771858407.6518648,42.30087419205791,-83.69804409715512,237.5682373046875,-0.017886392708058974,-0.9994658626747761,-0.013465662051279848,-0.023806348925847175,0.012880000000000003,0.04887000000000001,0.0028400000000000005,-0.2858,0.7377,-8.390600000000001,11.04794229467361,24.713584036647188,31.010000228881836,31.099998474121094,31.079999923706055,31.03999900817871,25.180406098054164,25.25348550297226,25.237246495648613,25.204765383431972,25.218975870026753,0.020449961148092975,-2.299999952316284,0.0,0.0,0.0,0.0,0.0,0.0,,,,,
frame_00177.png,1771858407702072730,1771858407.7020729,42.30087428467699,-83.6980521355677,237.55218505859375,-0.0178936599852898,-0.9995126789485078,-0.012607331740949248,-0.02225481385860657,0.029350000000000005,0.060520000000000004,0.0023100000000000004,0.15610000000000002,0.6127,-9.6507,11.060613816342135,24.741929470328376,31.099998474121094,31.119998931884766,31.059999465942383,31.099998474121094,25.25348550297226,25.269726059080583,25.22100593954029,25.25348550297226,25.249425751141352,0.02051158869487476,-2.1000001430511475,0.0,0.0,0.0,0.0,0.0,0.0,,,,,
frame_00178.png,1771858407753539859,1771858407.7535398,42.300874351719834,-83.69805750370425,237.54119873046875,-0.017800275697628987,-0.9995538706785652,-0.011807567938030315,-0.020875611032386377,0.029400000000000006,0.04698000000000001,-0.008150000000000001,-0.3881,-0.2056,-10.3213,11.083054525422291,24.79212799009814,31.099998474121094,31.239999771118164,31.079999923706055,31.079999923706055,25.25348550297226,25.36716784694584,25.237246495648613,25.237246495648613,25.27378658530383,0.019427884342887492,-2.1000001430511475,0.0,0.0,0.0,0.0,0.0,0.0,,,,,
frame_00179.png,1771858407803196240,1771858407.8031962,42.30087445955692,-83.69806557211905,237.5266571044922,-0.017644878918533835,-0.9995850562561883,-0.01116258759224617,-0.01984364370543239,0.03926,0.04401000000000001,-0.011260000000000001,-0.0018000000000000002,-1.1306,-10.4184,11.10410555562121,24.83921788159131,31.170000076293945,31.15999984741211,31.059999465942383,31.059999465942383,25.310327449351387,25.302207171297226,25.22100593954029,25.22100593954029,25.2636366249323,0.017086638772774422,-2.1000001430511475,0.0,0.0,0.0,0.0,0.0,0.0,,,,,
frame_00180.png,1771858407854105390,1771858407.8541052,42.3008745307714,-83.69807095930967,237.5191650390625,-0.017552142484085986,-0.9995954633610957,-0.010981267956103116,-0.019499837850884952,0.012420000000000002,-0.009400000000000002,-0.00204,-0.4852,-0.76,-11.395800000000001,11.120956716548912,24.876912917516925,31.15999984741211,31.139999389648438,31.1299991607666,31.059999465942383,25.302207171297226,25.285966615188908,25.277846337134743,25.22100593954029,25.271756515790294,0.015871888910916343,-2.1000001430511475,0.0,0.0,0.0,0.0,0.0,0.0,,,,,
frame_00181.png,1771858407904227840,1771858407.9042277,42.30087462707342,-83.69807905200636,237.5113525390625,-0.017645436488509914,-0.9995865097396723,-0.010880191339161974,-0.019926604176658317,0.01938,-0.03549,0.0019400000000000003,-0.42150000000000004,0.0755,-10.878400000000001,11.135159240551317,24.908683111558865,31.139999389648438,31.010000228881836,31.049999237060547,31.099998474121094,25.285966615188908,25.180406098054164,25.212885661486133,25.25348550297226,25.23318596942537,0.013027700276772972,-2.0,0.0,0.0,0.0,0.0,0.0,0.0,,,,,
frame_00182.png,1771858407955510772,1771858407.9555109,42.300874689801844,-83.6980844548814,237.50892639160156,-0.017726962764543108,-0.9995702382788613,-0.010613712956743859,-0.020795255121221632,0.015270000000000002,-0.027990000000000004,-0.0023100000000000004,-0.4989,-0.27290000000000003,-9.7791,11.135282492307335,24.908958818341972,31.059999465942383,31.0,31.170000076293945,31.099998474121094,25.22100593954029,25.172285820000003,25.310327449351387,25.25348550297226,25.239276177965984,0.013260986219174235,-2.0,0.0,0.0,0.0,0.0,0.0,0.0,,,,,
frame_00183.png,1771858408005143382,1771858408.0051434,42.300874780601724,-83.69809255089429,237.50558471679688,-0.017712140660716136,-0.9995601958482304,-0.01048842551282719,-0.021346847058157137,-0.0035600000000000002,-0.015280000000000002,-0.00505,-0.7639,-0.3693,-9.3904,11.11784441008941,24.869950874705406,31.059999465942383,31.03999900817871,31.079999923706055,31.1299991607666,25.22100593954029,25.204765383431972,25.237246495648613,25.277846337134743,25.23521603893891,0.014687007870409757,-1.8000000715255737,0.0,0.0,0.0,0.0,0.0,0.0,,,,,
frame_00184.png,1771858408055927860,1771858408.0559278,42.30087484594638,-83.6980979428139,237.50350952148438,-0.01762254963722565,-0.9995609659366348,-0.01069841856941445,-0.02128062405613839,-0.01276,0.007480000000000001,-0.00493,-0.5621,-0.08950000000000001,-9.6867,11.099031637091041,24.827867830274435,31.079999923706055,31.059999465942383,31.1299991607666,31.15999984741211,25.237246495648613,25.22100593954029,25.277846337134743,25.302207171297226,25.259576485905217,0.01738806806053511,-1.8000000715255737,0.0,0.0,0.0,0.0,0.0,0.0,,,,,
frame_00185.png,1771858408105914229,1771858408.105914,42.300874944547154,-83.69810602128476,237.49949645996094,-0.017518393946656885,-0.9995694424286208,-0.011041424167416942,-0.020787558510338203,-0.015370000000000002,0.015680000000000003,-0.00445,-0.2728,0.062400000000000004,-8.8119,11.089383606015204,24.806285763639654,31.0,31.119998931884766,31.1299991607666,31.209999084472656,25.172285820000003,25.269726059080583,25.277846337134743,25.342807012783357,25.26566630724967,0.01851871529607886,-1.600000023841858,0.0,0.0,0.0,0.0,0.0,0.0,,,,,
frame_00186.png,1771858408165894373,1771858408.1658945,42.30087504502139,-83.69811408943755,237.4932098388672,-0.01727588857785195,-0.9995860660159892,-0.011348736544691235,-0.020011158871069763,-0.0040100000000000005,0.023330000000000004,-0.007660000000000001,-0.6177,0.3284,-8.7928,11.077665778956746,24.780073687579506,31.0,30.90999984741211,31.119998931884766,31.119998931884766,25.172285820000003,25.099204866297228,25.269726059080583,25.269726059080583,25.202735701114598,0.017056527711091615,-1.100000023841858,0.0,0.0,0.0,0.0,0.0,0.0,,,,,
frame_00187.png,1771858408216285433,1771858408.2162855,42.30087511797212,-83.69811946473183,237.48849487304688,-0.017036138821544033,-0.999602961208578,-0.011302041062142491,-0.019389527712785504,-0.0017800000000000001,0.018780000000000005,-0.007070000000000001,-0.2218,0.0954,-9.272300000000001,11.0755301481156,24.775296409525712,30.969999313354492,30.969999313354492,31.029998779296875,31.01999855041504,25.147924985837516,25.147924985837516,25.196645105377808,25.188524827323647,25.17025497609412,0.01594162830748429,-0.699999988079071,0.0,0.0,0.0,0.0,0.0,0.0,,,,,
frame_00188.png,1771858408260253031,1771858408.260253,42.3008752185995,-83.69812752204906,237.4803924560547,-0.016847032806446227,-0.999617021440258,-0.0110168057425637,-0.018989942700181013,0.008090000000000002,0.013130000000000003,-0.00982,-0.2619,-0.5630000000000001,-10.280100000000001,11.066531910016032,24.755167890791263,31.01999855041504,30.94999885559082,31.03999900817871,30.94999885559082,25.188524827323647,25.131684429729198,25.204765383431972,25.131684429729198,25.1641647675535,0.016521676547157728,-0.699999988079071,0.0,0.0,0.0,0.0,0.0,0.0,,,,,
frame_00189.png,1771858408327122175,1771858408.3271222,42.300875312276936,-83.69813556484239,237.4728546142578,-0.016598640539574105,-0.9996336539176305,-0.010975095185832487,-0.018346399461117466,-0.008650000000000001,0.024470000000000006,-0.01017,-0.1024,0.2853,-10.4125,11.045778262874478,24.708743227354436,30.899999618530273,30.809999465942383,30.979999542236328,30.939998626708984,25.091084588243067,25.018003634540293,25.156045263891677,25.123564151675033,25.097174409587517,0.015720394139798186,-0.6000000238418579,0.0,0.0,0.0,0.0,0.0,0.0,,,,,
frame_00190.png,1771858408368158479,1771858408.3681586,42.30087536355994,-83.69814091851933,237.46914672851562,-0.01645048632705237,-0.9996371256571124,-0.011493519706747475,-0.017969349246448035,-0.038970000000000005,0.027240000000000004,-0.0016300000000000002,-0.341,0.23320000000000002,-10.2307,11.032031350657585,24.67799220953998,30.709999084472656,30.809999465942383,30.969999313354492,30.889999389648438,24.936802402783357,25.018003634540293,25.147924985837516,25.082964310188903,25.046423833337517,0.01492956236752152,-0.5,0.0,0.0,0.0,0.0,0.0,0.0,,,,,
frame_00191.png,1771858408408723398,1771858408.4087234,42.300875413514994,-83.69814627303386,237.46641540527344,-0.016306140791299495,-0.9996357757807479,-0.011893334665680254,-0.017915751233112336,-0.02202,-0.00591,-0.0028000000000000004,-0.7841,-0.441,-10.9654,11.030582356066512,24.674750895579425,30.65999984741211,30.689998626708984,30.889999389648438,30.90999984741211,24.896202561297226,24.92056184667503,25.082964310188903,25.099204866297228,24.999733396114596,0.013170649702218182,-0.5,0.0,0.0,0.0,0.0,0.0,0.0,,,,,
frame_00192.png,1771858408459450245,1771858408.4594505,42.300875486736054,-83.69815429941609,237.46438598632812,-0.016117765365212144,-0.9996287649922415,-0.012139481909745209,-0.01830799876230619,-0.008110000000000001,-0.026850000000000002,-0.00837,-0.38630000000000003,-0.28,-10.3819,11.03029250154773,24.674102508412183,30.53999900817871,30.489999771118164,30.920000076293945,30.829999923706055,24.79876077343197,24.758160931945838,25.10732514435139,25.034244190648614,24.92462276009445,0.010153165716842487,-0.5,0.0,0.0,0.0,0.0,0.0,0.0,,,,,
frame_00193.png,1771858408509324387,1771858408.5093243,42.300875539653816,-83.69815964445787,237.46319580078125,-0.015878694469016963,-0.9996215212532225,-0.011898026663100244,-0.01905566243605568,0.015140000000000002,-0.035370000000000006,-0.011960000000000002,-0.6563,0.21910000000000002,-9.1152,11.01278083429782,24.634929959474167,30.479999542236328,30.489999771118164,30.75,30.809999465942383,24.750040653891677,24.758160931945838,24.969283515,25.018003634540293,24.87387218384445,0.009699326312815063,-0.5,0.0,0.0,0.0,0.0,0.0,0.0,,,,,
frame_00194.png,1771858408561118244,1771858408.5611181,42.30087561631257,-83.6981676465229,237.46075439453125,-0.015488431787257784,-0.9996227857117663,-0.011449150009538833,-0.01957834851764356,0.005330000000000001,-0.019310000000000004,-0.019360000000000002,-1.1124,-0.7272000000000001,-9.303700000000001,10.985493364178279,24.57388952606496,30.399999618530273,30.469999313354492,30.719999313354492,30.719999313354492,24.685079978243067,24.741920375837516,24.944922680837518,24.944922680837518,24.829211428938905,0.010389967066594435,-0.5,0.0,0.0,0.0,0.0,0.0,0.0,,,,,
frame_00195.png,1771858408611252138,1771858408.6112523,42.30087566205956,-83.6981729688325,237.45895385742188,-0.014996976547617391,-0.9996270381532075,-0.011589316702413949,-0.019661206113735608,-0.00854,0.014530000000000003,-0.022010000000000002,-0.787,-0.6773,-9.4665,10.956553699812494,24.509153233258562,30.35999870300293,30.479999542236328,30.639999389648438,30.65999984741211,24.652598866026423,24.750040653891677,24.879962005188904,24.896202561297226,24.794701021601057,0.011650659067038287,-0.5,0.0,0.0,0.0,0.0,0.0,0.0,,,,,
frame_00196.png,1771858408661915635,1771858408.6619155,42.3008757259914,-83.69818093073913,237.45497131347656,-0.014453441182175952,-0.99963900209964,-0.011926414378750024,-0.019254198484892508,-0.00613,0.023850000000000003,-0.0233,-0.8123,-0.1428,-9.6197,10.927595464095408,24.444375397453584,30.349998474121094,30.34000015258789,30.709999084472656,30.729999542236328,24.64447858797226,24.63635985870277,24.936802402783357,24.95304295889168,24.79267095208752,0.014248494754757287,-0.5,0.0,0.0,0.0,0.0,0.0,0.0,,,,,
frame_00197.png,1771858408711545987,1771858408.7115462,42.300875765374016,-83.69818622670275,237.45118713378906,-0.013918800520319352,-0.9996626261879679,-0.011905380327286648,-0.018416370823623098,0.009890000000000001,0.03862000000000001,-0.023960000000000002,-0.8997,0.1436,-9.398100000000001,10.903590286497389,24.39067725547747,30.299999237060547,30.260000228881836,30.619998931884766,30.67999839782715,24.60387874648613,24.57139918305416,24.863721449080582,24.912441568620874,24.737860236810437,0.014234249327988599,-0.699999988079071,0.0,0.0,0.0,0.0,0.0,0.0,,,,,
frame_00198.png,1771858408762331156,1771858408.7623312,42.300875821914445,-83.69819415702263,237.4446563720703,-0.013294466994875853,-0.9996895673369691,-0.011590342481376832,-0.01759801312961368,0.00923,0.03139000000000001,-0.027260000000000003,-0.5348,-0.5877,-9.825700000000001,10.894339831889111,24.36998454354603,30.079999923706055,30.149999618530273,30.479999542236328,30.599998474121094,24.425237275648612,24.48207767324307,24.750040653891677,24.84748089297226,24.626209123938903,0.01051394103000083,-1.3000000715255737,0.0,160.0,0.0,0.0,0.0,0.0,,,,,
frame_00199.png,1771858408812658707,1771858408.8126588,42.30087585920503,-83.69819943272917,237.4398193359375,-0.01260744698101951,-0.9997135552871987,-0.01119559285356555,-0.0169858281018829,0.04053000000000001,0.03296,-0.029390000000000003,-0.5942000000000001,0.1144,-9.738000000000001,10.87405702179501,24.324613114334134,30.079999923706055,30.10999870300293,30.439998626708984,30.459999084472656,24.425237275648612,24.44959656102642,24.717559541675033,24.73380009778336,24.581548369033356,0.010562768398064014,-2.1000001430511475,0.0,272.0,0.0,0.0,0.0,0.0,,,,,
frame_00200.png,1771858408863723033,1771858408.863723,42.30087589630375,-83.6982073384156,237.433349609375,-0.012007872084965288,-0.9997298993416353,-0.011096640642910587,-0.016516777433787384,-0.0021200000000000004,0.020660000000000005,-0.024340000000000004,0.10350000000000001,0.23320000000000002,-9.805,10.860330387373002,24.293907456730164,29.869998931884766,29.979999542236328,30.369998931884766,30.369998931884766,24.254714534080584,24.344036043891677,24.660719144080584,24.660719144080584,24.480047216533357,0.007661993449786813,-2.9000000953674316,0.0,652.0,0.0,0.0,0.0,0.0,,,,,
frame_00201.png,1771858408913285951,1771858408.913286,42.30087590722965,-83.69821259861048,237.43080139160156,-0.011488803398711722,-0.999726903876585,-0.011796578971677801,-0.01658209233986541,-0.046180000000000006,0.0019600000000000004,-0.0182,-0.2735,0.51,-10.5305,10.838298789115104,24.244624093323143,29.84000015258789,29.889999389648438,30.260000228881836,30.329999923706055,24.230355248702775,24.270955090188902,24.57139918305416,24.628239580648614,24.425237275648612,0.007449617763931822,-3.5,0.0,1064.0,0.0,0.0,0.0,0.0,,,,,
frame_00202.png,1771858408964315237,1771858408.9643152,42.30087591595058,-83.69822047364424,237.4290008544922,-0.010896357231573617,-0.9997142310535484,-0.012746172075302244,-0.01703703981099049,-0.02603,-0.015220000000000003,-0.020760000000000004,-0.7242000000000001,0.3771,-10.0741,10.801129226640757,24.161478012241776,29.53999900817871,29.559999465942383,30.03999900817871,30.170000076293945,23.98675155343197,24.002992109540294,24.39275616343197,24.498318229351387,24.220204513938903,0.0024305839927247787,-3.799999952316284,0.0,1960.0,236.0,0.0,0.0,0.0,,,,,
frame_00203.png,1771858409014390965,1771858409.014391,42.30087591511402,-83.69822570435333,237.42897033691406,-0.010540993934070542,-0.9997080458282979,-0.012853535126472639,-0.01753559773147408,-0.0016500000000000002,-0.0296,-0.018940000000000002,-2.3998,-0.3325,-10.376900000000001,10.742008145897202,24.02922770188329,28.1299991607666,27.599998474121094,29.549999237060547,29.59000015258789,22.841818677134746,22.41145323297226,23.99487183148613,24.027352943702773,23.318874171323976,0.0295620624754261,-4.0,0.0,2324.0,804.0,0.0,0.0,0.0,,,,,
frame_00204.png,1771858409065909743,1771858409.0659099,42.300875907539236,-83.69823348019142,237.4291229248047,-0.01001396673297894,-0.9997021026802205,-0.012763255976969642,-0.018235286229801678,0.020030000000000003,-0.034640000000000004,-0.028020000000000003,-3.2801,-0.8182,-11.4753,10.607108698004401,23.727465730913966,26.68000030517578,25.829999923706055,29.079999923706055,28.989999771118164,21.664406237405547,20.974198090648613,23.613228055648616,23.54014710194584,22.447994871412156,0.05392362058434319,-5.700000286102295,0.0,2868.0,1552.0,0.0,0.0,0.0,,,,,
frame_00205.png,1771858409124112513,1771858409.1241126,42.30087589566842,-83.6982411449319,237.43035888671875,-0.009257602726656322,-0.9996947061592779,-0.012540741828953744,-0.019170838877055785,0.004920000000000001,-0.028260000000000004,-0.03493000000000001,-3.0764,-1.2134,-9.8053,10.437600007118643,23.34828495992398,23.989999771118164,26.03999900817871,28.279998779296875,28.09000015258789,19.48010100194584,21.144719283431968,22.96361975037781,22.809339113702777,21.599444787364597,0.07490229691650453,-10.40000057220459,0.0,3344.0,1712.0,1.0,0.0,0.0,,,,,
frame_00206.png,1771858409175265321,1771858409.1752653,42.30087587972283,-83.69824618716196,237.42970275878906,-0.008387978323436851,-0.9996873640178221,-0.013235538200517486,-0.019484264709925453,-0.03347000000000001,-0.04002000000000001,-0.032880000000000006,-3.2455000000000003,0.47550000000000003,-7.9291,10.313460939618052,23.070593314269207,25.029998779296875,25.0,27.729999542236328,27.60999870300293,20.32458978537781,20.3002305,22.517015298891682,22.41957351102642,21.39035227382398,0.0728304217215773,-14.0,0.0,3644.0,1664.0,1.0,0.0,0.0,,,,,
frame_00207.png,1771858409225009965,1771858409.22501,42.30087583720254,-83.69825364969871,237.42547607421875,-0.0075694305486306845,-0.999678925615922,-0.014553028653461277,-0.01931214016044775,-0.057980000000000004,-0.005680000000000001,-0.023870000000000006,-1.2650000000000001,1.8323,-9.0799,10.182160403029325,22.77688189195242,25.459999084472656,25.309999465942383,27.299999237060547,27.25,20.673753997783358,20.551952924540288,22.16785108648613,22.127251245,21.380202313452443,0.06132005184579086,-16.200000762939453,0.0,3864.0,2032.0,1.0,0.0,0.0,,,,,
frame_00208.png,1771858409276427786,1771858409.2764277,42.30087579832649,-83.69825855723185,237.4224090576172,-0.00679513119569336,-0.9996712703615707,-0.015177448448275642,-0.019514673051749625,-0.05016000000000001,-0.00281,-0.032540000000000006,-2.2589,-1.8444,-10.174100000000001,10.045309519153385,22.470754675774973,24.43000030517578,24.25,27.219999313354492,26.729999542236328,19.83738549240555,19.691223585,22.102890410837517,21.705006078891678,20.834126391783684,0.07283370352290337,-17.200000762939453,0.0,4044.0,2292.0,1.0,0.0,0.0,,,,,
frame_00209.png,1771858409326730402,1771858409.3267305,42.300875732406496,-83.69826584264298,237.4178924560547,-0.006056459456895702,-0.9996469386514317,-0.016163312877048103,-0.020200610399350845,-0.04222,-0.018330000000000003,-0.0316,-3.4913000000000003,-1.1643000000000001,-10.1417,9.914996495777958,22.179252261265546,21.920000076293945,22.90999984741211,26.60999870300293,26.06999969482422,17.799242164351387,18.603131106297226,21.60756429102642,21.169080117594454,19.794754419817373,0.10751028994843642,-17.700000762939453,0.0,4080.0,2556.0,1.0,0.0,0.0,,,,,
frame_00210.png,1771858409379161485,1771858409.3791616,42.300875654875156,-83.6982730018888,237.41354370117188,-0.005268325627468817,-0.99961359537586,-0.017390463317099494,-0.02103512468339484,-0.041830000000000006,-0.026780000000000005,-0.041710000000000004,-3.2905,-0.6086,-9.989700000000001,9.77083681092194,21.85677569582373,22.65999984741211,25.479999542236328,26.369998931884766,25.90999984741211,18.400128801297228,20.68999455389168,21.412682264080583,21.039158766297227,20.385491096391682,0.06731480525341947,-18.100000381469727,0.0,4112.0,2108.0,1.0,0.0,0.0,,,,,
frame_00211.png,1771858409419585005,1771858409.419585,42.300875600812844,-83.6982777031108,237.41062927246094,-0.004603108001129452,-0.9995944223192561,-0.01821060670400992,-0.021405047732593926,-0.028480000000000002,-0.012150000000000001,-0.039650000000000005,-3.6982000000000004,0.3408,-9.3087,9.635701061301857,21.554485132068578,25.31999969482422,24.18000030517578,26.099998474121094,25.079999923706055,20.560073202594452,19.63438318740555,21.19343940297226,20.365191175648615,20.43827174215522,0.051785667023549815,-17.80000114440918,0.0,4244.0,2236.0,1.0,0.0,0.0,,,,,
