image_filename,timestamp_ns,timestamp_sec,latitude,longitude,altitude,orientation_x,orientation_y,orientation_z,orientation_w,angular_velocity_x,angular_velocity_y,angular_velocity_z,linear_acceleration_x,linear_acceleration_y,linear_acceleration_z,vehicle_speed_mps,vehicle_speed_mph,wheel_speed_fl_rads,wheel_speed_fr_rads,wheel_speed_rl_rads,wheel_speed_rr_rads,wheel_speed_fl_mph,wheel_speed_fr_mph,wheel_speed_rl_mph,wheel_speed_rr_mph,avg_wheel_speed_mph,wheel_slip,steering_angle_deg,throttle_pedal,brake_pedal,brake_torque_actual,abs_active,esc_active,trac_active,marwis_road_condition,marwis_friction,marwis_surface_temp_c,marwis_ice_percent,marwis_water_film_height
arenacam6_1769615972123994421.png,1769615972123994421,1769615972.1239944,42.30106592603324,-83.69744991497137,239.03443908691406,0.7100249770619295,0.7040543281881928,0.008947327939831117,0.009590632430474024,-0.0013800000000000002,0.018850000000000002,-0.0015200000000000003,1.7382000000000002,0.32370000000000004,-10.116800000000001,0.3843496682138978,0.8597671468143967,0.9899999499320984,1.1100000143051147,1.25,1.1399999856948853,0.8038890871444022,0.9013302458158851,1.015011525,0.9256904991841151,0.9114803392861006,0.0,3.200000047683716,23.325000762939453,0.0,0.0,0.0,0.0,0.0,snow/ice covered,0.257715821266174,-8.90278816223145,100.0,444.550109863281
arenacam6_1769615972144634704.png,1769615972144634704,1769615972.1446347,42.30106592603324,-83.69744991497137,239.03443908691406,0.7100249770619295,0.7040543281881928,0.008947327939831117,0.009590632430474024,-0.0013800000000000002,0.018850000000000002,-0.0015200000000000003,1.7382000000000002,0.32370000000000004,-10.116800000000001,0.3843496682138978,0.8597671468143967,0.9899999499320984,1.1100000143051147,1.25,1.1399999856948853,0.8038890871444022,0.9013302458158851,1.015011525,0.9256904991841151,0.9114803392861006,0.0,3.200000047683716,23.325000762939453,0.0,0.0,0.0,0.0,0.0,snow/ice covered,0.257715821266174,-8.90278816223145,100.0,444.550109863281
arenacam6_1769615972163288113.png,1769615972163288113,1769615972.163288,42.30106592603324,-83.69744991497137,239.03443908691406,0.7100249770619295,0.7040543281881928,0.008947327939831117,0.009590632430474024,-0.0013800000000000002,0.018850000000000002,-0.0015200000000000003,1.7382000000000002,0.32370000000000004,-10.116800000000001,0.3843496682138978,0.8597671468143967,0.9899999499320984,1.1100000143051147,1.25,1.1399999856948853,0.8038890871444022,0.9013302458158851,1.015011525,0.9256904991841151,0.9114803392861006,0.0,3.200000047683716,23.325000762939453,0.0,0.0,0.0,0.0,0.0,snow/ice covered,0.257715821266174,-8.90278816223145,100.0,444.550109863281
arenacam6_1769615972183989471.png,1769615972183989471,1769615972.1839895,42.30106592603324,-83.69744991497137,239.03443908691406,0.7100249770619295,0.7040543281881928,0.008947327939831117,0.009590632430474024,-0.0013800000000000002,0.018850000000000002,-0.0015200000000000003,1.7382000000000002,0.32370000000000004,-10.116800000000001,0.3843496682138978,0.8597671468143967,0.9899999499320984,1.1100000143051147,1.25,1.1399999856948853,0.8038890871444022,0.9013302458158851,1.015011525,0.9256904991841151,0.9114803392861006,0.0,3.200000047683716,23.325000762939453,0.0,0.0,0.0,0.0,0.0,snow/ice covered,0.257715821266174,-8.90278816223145,100.0,444.550109863281
arenacam6_1769615972204684231.png,1769615972204684231,1769615972.2046843,42.30106592603324,-83.69744991497137,239.03443908691406,0.7100249770619295,0.7040543281881928,0.008947327939831117,0.009590632430474024,-0.0013800000000000002,0.018850000000000002,-0.0015200000000000003,1.7382000000000002,0.32370000000000004,-10.116800000000001,0.3843496682138978,0.8597671468143967,0.9899999499320984,1.1100000143051147,1.25,1.1399999856948853,0.8038890871444022,0.9013302458158851,1.015011525,0.9256904991841151,0.9114803392861006,0.0,3.200000047683716,23.325000762939453,0.0,0.0,0.0,0.0,0.0,snow/ice covered,0.257715821266174,-8.90278816223145,100.0,444.550109863281
arenacam6_1769615972225237048.png,1769615972225237048,1769615972.225237,42.30106592603324,-83.69744991497137,239.03443908691406,0.7100249770619295,0.7040543281881928,0.008947327939831117,0.009590632430474024,-0.0013800000000000002,0.018850000000000002,-0.0015200000000000003,1.7382000000000002,0.32370000000000004,-10.116800000000001,0.3843496682138978,0.8597671468143967,0.9899999499320984,1.1100000143051147,1.25,1.1399999856948853,0.8038890871444022,0.9013302458158851,1.015011525,0.9256904991841151,0.9114803392861006,0.0,3.200000047683716,23.325000762939453,0.0,0.0,0.0,0.0,0.0,snow/ice covered,0.257715821266174,-8.90278816223145,100.0,444.550109863281
arenacam6_1769615972246026766.png,1769615972246026766,1769615972.2460268,42.30106592603324,-83.69744991497137,239.03443908691406,0.7100249770619295,0.7040543281881928,0.008947327939831117,0.009590632430474024,-0.0013800000000000002,0.018850000000000002,-0.0015200000000000003,1.7382000000000002,0.32370000000000004,-10.116800000000001,0.3843496682138978,0.8597671468143967,0.9899999499320984,1.1100000143051147,1.25,1.1399999856948853,0.8038890871444022,0.9013302458158851,1.015011525,0.9256904991841151,0.9114803392861006,0.0,3.200000047683716,23.325000762939453,0.0,0.0,0.0,0.0,0.0,snow/ice covered,0.257715821266174,-8.90278816223145,100.0,444.550109863281
arenacam6_1769615972266742535.png,1769615972266742535,1769615972.2667425,42.30106592603324,-83.69744991497137,239.03443908691406,0.7100249770619295,0.7040543281881928,0.008947327939831117,0.009590632430474024,-0.0013800000000000002,0.018850000000000002,-0.0015200000000000003,1.7382000000000002,0.32370000000000004,-10.116800000000001,0.3843496682138978,0.8597671468143967,0.9899999499320984,1.1100000143051147,1.25,1.1399999856948853,0.8038890871444022,0.9013302458158851,1.015011525,0.9256904991841151,0.9114803392861006,0.0,3.200000047683716,23.325000762939453,0.0,0.0,0.0,0.0,0.0,snow/ice covered,0.257715821266174,-8.90278816223145,100.0,444.550109863281
arenacam6_1769615972287416648.png,1769615972287416648,1769615972.2874165,42.30106592603324,-83.69744991497137,239.03443908691406,0.7100249770619295,0.7040543281881928,0.008947327939831117,0.009590632430474024,-0.0013800000000000002,0.018850000000000002,-0.0015200000000000003,1.7382000000000002,0.32370000000000004,-10.116800000000001,0.3843496682138978,0.8597671468143967,0.9899999499320984,1.1100000143051147,1.25,1.1399999856948853,0.8038890871444022,0.9013302458158851,1.015011525,0.9256904991841151,0.9114803392861006,0.0,3.200000047683716,23.325000762939453,0.0,0.0,0.0,0.0,0.0,snow/ice covered,0.257715821266174,-8.90278816223145,100.0,444.550109863281
arenacam6_1769615972308208277.png,1769615972308208277,1769615972.3082085,42.30106592603324,-83.69744991497137,239.03443908691406,0.7100249770619295,0.7040543281881928,0.008947327939831117,0.009590632430474024,-0.0013800000000000002,0.018850000000000002,-0.0015200000000000003,1.7382000000000002,0.32370000000000004,-10.116800000000001,0.3843496682138978,0.8597671468143967,0.9899999499320984,1.1100000143051147,1.25,1.1399999856948853,0.8038890871444022,0.9013302458158851,1.015011525,0.9256904991841151,0.9114803392861006,0.0,3.200000047683716,23.325000762939453,0.0,0.0,0.0,0.0,0.0,snow/ice covered,0.257715821266174,-8.90278816223145,100.0,444.550109863281
arenacam6_1769615972328917007.png,1769615972328917007,1769615972.328917,42.30106592603324,-83.69744991497137,239.03443908691406,0.7100249770619295,0.7040543281881928,0.008947327939831117,0.009590632430474024,-0.0013800000000000002,0.018850000000000002,-0.0015200000000000003,1.7382000000000002,0.32370000000000004,-10.116800000000001,0.3843496682138978,0.8597671468143967,0.9899999499320984,1.1100000143051147,1.25,1.1399999856948853,0.8038890871444022,0.9013302458158851,1.015011525,0.9256904991841151,0.9114803392861006,0.0,3.200000047683716,23.325000762939453,0.0,0.0,0.0,0.0,0.0,snow/ice covered,0.257715821266174,-8.90278816223145,100.0,444.550109863281
arenacam6_1769615972349581075.png,1769615972349581075,1769615972.349581,42.30106592603324,-83.69744991497137,239.03443908691406,0.7100249770619295,0.7040543281881928,0.008947327939831117,0.009590632430474024,-0.0013800000000000002,0.018850000000000002,-0.0015200000000000003,1.7382000000000002,0.32370000000000004,-10.116800000000001,0.3843496682138978,0.8597671468143967,0.9899999499320984,1.1100000143051147,1.25,1.1399999856948853,0.8038890871444022,0.9013302458158851,1.015011525,0.9256904991841151,0.9114803392861006,0.0,3.200000047683716,23.325000762939453,0.0,0.0,0.0,0.0,0.0,snow/ice covered,0.257715821266174,-8.90278816223145,100.0,444.550109863281
arenacam6_1769615972370337739.png,1769615972370337739,1769615972.3703377,42.30106592603324,-83.69744991497137,239.03443908691406,0.7100249770619295,0.7040543281881928,0.008947327939831117,0.009590632430474024,-0.0013800000000000002,0.018850000000000002,-0.0015200000000000003,1.7382000000000002,0.32370000000000004,-10.116800000000001,0.3843496682138978,0.8597671468143967,0.9899999499320984,1.1100000143051147,1.25,1.1399999856948853,0.8038890871444022,0.9013302458158851,1.015011525,0.9256904991841151,0.9114803392861006,0.0,3.200000047683716,23.325000762939453,0.0,0.0,0.0,0.0,0.0,snow/ice covered,0.257715821266174,-8.90278816223145,100.0,444.550109863281
arenacam6_1769615972390863306.png,1769615972390863306,1769615972.3908634,42.30106592603324,-83.69744991497137,239.03443908691406,0.7100249770619295,0.7040543281881928,0.008947327939831117,0.009590632430474024,-0.0013800000000000002,0.018850000000000002,-0.0015200000000000003,1.7382000000000002,0.32370000000000004,-10.116800000000001,0.3843496682138978,0.8597671468143967,0.9899999499320984,1.1100000143051147,1.25,1.1399999856948853,0.8038890871444022,0.9013302458158851,1.015011525,0.9256904991841151,0.9114803392861006,0.0,3.200000047683716,23.325000762939453,0.0,0.0,0.0,0.0,0.0,snow/ice covered,0.257715821266174,-8.90278816223145,100.0,444.550109863281
arenacam6_1769615972411515866.png,1769615972411515866,1769615972.411516,42.30106592603324,-83.69744991497137,239.03443908691406,0.7100249770619295,0.7040543281881928,0.008947327939831117,0.009590632430474024,-0.0013800000000000002,0.018850000000000002,-0.0015200000000000003,1.7382000000000002,0.32370000000000004,-10.116800000000001,0.3843496682138978,0.8597671468143967,0.9899999499320984,1.1100000143051147,1.25,1.1399999856948853,0.8038890871444022,0.9013302458158851,1.015011525,0.9256904991841151,0.9114803392861006,0.0,3.200000047683716,23.325000762939453,0.0,0.0,0.0,0.0,0.0,snow/ice covered,0.257715821266174,-8.90278816223145,100.0,444.550109863281
arenacam6_1769615972432185984.png,1769615972432185984,1769615972.432186,42.30106592603324,-83.69744991497137,239.03443908691406,0.7100249770619295,0.7040543281881928,0.008947327939831117,0.009590632430474024,-0.0013800000000000002,0.018850000000000002,-0.0015200000000000003,1.7382000000000002,0.32370000000000004,-10.116800000000001,0.3843496682138978,0.8597671468143967,0.9899999499320984,1.1100000143051147,1.25,1.1399999856948853,0.8038890871444022,0.9013302458158851,1.015011525,0.9256904991841151,0.9114803392861006,0.0,3.200000047683716,23.325000762939453,0.0,0.0,0.0,0.0,0.0,snow/ice covered,0.257715821266174,-8.90278816223145,100.0,444.550109863281
arenacam6_1769615972452824397.png,1769615972452824397,1769615972.4528244,42.30106592603324,-83.69744991497137,239.03443908691406,0.7100249770619295,0.7040543281881928,0.008947327939831117,0.009590632430474024,-0.0013800000000000002,0.018850000000000002,-0.0015200000000000003,1.7382000000000002,0.32370000000000004,-10.116800000000001,0.3843496682138978,0.8597671468143967,0.9899999499320984,1.1100000143051147,1.25,1.1399999856948853,0.8038890871444022,0.9013302458158851,1.015011525,0.9256904991841151,0.9114803392861006,0.0,3.200000047683716,23.325000762939453,0.0,0.0,0.0,0.0,0.0,snow/ice covered,0.257715821266174,-8.90278816223145,100.0,444.550109863281
arenacam6_1769615972473499406.png,1769615972473499406,1769615972.4734993,42.30106592603324,-83.69744991497137,239.03443908691406,0.7100249770619295,0.7040543281881928,0.008947327939831117,0.009590632430474024,-0.0013800000000000002,0.018850000000000002,-0.0015200000000000003,1.7382000000000002,0.32370000000000004,-10.116800000000001,0.3843496682138978,0.8597671468143967,0.9899999499320984,1.1100000143051147,1.25,1.1399999856948853,0.8038890871444022,0.9013302458158851,1.015011525,0.9256904991841151,0.9114803392861006,0.0,3.200000047683716,23.325000762939453,0.0,0.0,0.0,0.0,0.0,snow/ice covered,0.257715821266174,-8.90278816223145,100.0,444.550109863281
arenacam6_1769615972494332483.png,1769615972494332483,1769615972.4943323,42.30106592603324,-83.69744991497137,239.03443908691406,0.7100249770619295,0.7040543281881928,0.008947327939831117,0.009590632430474024,-0.0013800000000000002,0.018850000000000002,-0.0015200000000000003,1.7382000000000002,0.32370000000000004,-10.116800000000001,0.3843496682138978,0.8597671468143967,0.9899999499320984,1.1100000143051147,1.25,1.1399999856948853,0.8038890871444022,0.9013302458158851,1.015011525,0.9256904991841151,0.9114803392861006,0.0,3.200000047683716,23.325000762939453,0.0,0.0,0.0,0.0,0.0,snow/ice covered,0.257715821266174,-8.90278816223145,100.0,444.550109863281
arenacam6_1769615972514929331.png,1769615972514929331,1769615972.5149293,42.30106592603324,-83.69744991497137,239.03443908691406,0.7100249770619295,0.7040543281881928,0.008947327939831117,0.009590632430474024,-0.0013800000000000002,0.018850000000000002,-0.0015200000000000003,1.7382000000000002,0.32370000000000004,-10.116800000000001,0.3843496682138978,0.8597671468143967,0.9899999499320984,1.1100000143051147,1.25,1.1399999856948853,0.8038890871444022,0.9013302458158851,1.015011525,0.9256904991841151,0.9114803392861006,0.0,3.200000047683716,23.325000762939453,0.0,0.0,0.0,0.0,0.0,snow/ice covered,0.257715821266174,-8.90278816223145,100.0,444.550109863281
arenacam6_1769615972535632252.png,1769615972535632252,1769615972.5356321,42.30106592603324,-83.69744991497137,239.03443908691406,0.7100249770619295,0.7040543281881928,0.008947327939831117,0.009590632430474024,-0.0013800000000000002,0.018850000000000002,-0.0015200000000000003,1.7382000000000002,0.32370000000000004,-10.116800000000001,0.3843496682138978,0.8597671468143967,0.9899999499320984,1.1100000143051147,1.25,1.1399999856948853,0.8038890871444022,0.9013302458158851,1.015011525,0.9256904991841151,0.9114803392861006,0.0,3.200000047683716,23.325000762939453,0.0,0.0,0.0,0.0,0.0,snow/ice covered,0.257715821266174,-8.90278816223145,100.0,444.550109863281
arenacam6_1769615972556251042.png,1769615972556251042,1769615972.556251,42.30106592603324,-83.69744991497137,239.03443908691406,0.7100249770619295,0.7040543281881928,0.008947327939831117,0.009590632430474024,-0.0013800000000000002,0.018850000000000002,-0.0015200000000000003,1.7382000000000002,0.32370000000000004,-10.116800000000001,0.3843496682138978,0.8597671468143967,0.9899999499320984,1.1100000143051147,1.25,1.1399999856948853,0.8038890871444022,0.9013302458158851,1.015011525,0.9256904991841151,0.9114803392861006,0.0,3.200000047683716,23.325000762939453,0.0,0.0,0.0,0.0,0.0,snow/ice covered,0.257715821266174,-8.90278816223145,100.0,444.550109863281
arenacam6_1769615972577168390.png,1769615972577168390,1769615972.5771685,42.30106592603324,-83.69744991497137,239.03443908691406,0.7100249770619295,0.7040543281881928,0.008947327939831117,0.009590632430474024,-0.0013800000000000002,0.018850000000000002,-0.0015200000000000003,1.7382000000000002,0.32370000000000004,-10.116800000000001,0.3843496682138978,0.8597671468143967,0.9899999499320984,1.1100000143051147,1.25,1.1399999856948853,0.8038890871444022,0.9013302458158851,1.015011525,0.9256904991841151,0.9114803392861006,0.0,3.200000047683716,23.325000762939453,0.0,0.0,0.0,0.0,0.0,snow/ice covered,0.257715821266174,-8.90278816223145,100.0,444.550109863281
arenacam6_1769615972597697684.png,1769615972597697684,1769615972.5976977,42.30106592603324,-83.69744991497137,239.03443908691406,0.7100249770619295,0.7040543281881928,0.008947327939831117,0.009590632430474024,-0.0013800000000000002,0.018850000000000002,-0.0015200000000000003,1.7382000000000002,0.32370000000000004,-10.116800000000001,0.3843496682138978,0.8597671468143967,0.9899999499320984,1.1100000143051147,1.25,1.1399999856948853,0.8038890871444022,0.9013302458158851,1.015011525,0.9256904991841151,0.9114803392861006,0.0,3.200000047683716,23.325000762939453,0.0,0.0,0.0,0.0,0.0,snow/ice covered,0.257715821266174,-8.90278816223145,100.0,444.550109863281
arenacam6_1769615972618518826.png,1769615972618518826,1769615972.6185188,42.30106592603324,-83.69744991497137,239.03443908691406,0.7100249770619295,0.7040543281881928,0.008947327939831117,0.009590632430474024,-0.0013800000000000002,0.018850000000000002,-0.0015200000000000003,1.7382000000000002,0.32370000000000004,-10.116800000000001,0.3843496682138978,0.8597671468143967,0.9899999499320984,1.1100000143051147,1.25,1.1399999856948853,0.8038890871444022,0.9013302458158851,1.015011525,0.9256904991841151,0.9114803392861006,0.0,3.200000047683716,23.325000762939453,0.0,0.0,0.0,0.0,0.0,snow/ice covered,0.257715821266174,-8.90278816223145,100.0,444.550109863281
arenacam6_1769615972639072322.png,1769615972639072322,1769615972.6390722,42.30106592603324,-83.69744991497137,239.03443908691406,0.7100249770619295,0.7040543281881928,0.008947327939831117,0.009590632430474024,-0.0013800000000000002,0.018850000000000002,-0.0015200000000000003,1.7382000000000002,0.32370000000000004,-10.116800000000001,0.3843496682138978,0.8597671468143967,0.9899999499320984,1.1100000143051147,1.25,1.1399999856948853,0.8038890871444022,0.9013302458158851,1.015011525,0.9256904991841151,0.9114803392861006,0.0,3.200000047683716,23.325000762939453,0.0,0.0,0.0,0.0,0.0,snow/ice covered,0.257715821266174,-8.90278816223145,100.0,444.550109863281
arenacam6_1769615972659982326.png,1769615972659982326,1769615972.6599824,42.30106592603324,-83.69744991497137,239.03443908691406,0.7100249770619295,0.7040543281881928,0.008947327939831117,0.009590632430474024,-0.0013800000000000002,0.018850000000000002,-0.0015200000000000003,1.7382000000000002,0.32370000000000004,-10.116800000000001,0.3843496682138978,0.8597671468143967,0.9899999499320984,1.1100000143051147,1.25,1.1399999856948853,0.8038890871444022,0.9013302458158851,1.015011525,0.9256904991841151,0.9114803392861006,0.0,3.200000047683716,23.325000762939453,0.0,0.0,0.0,0.0,0.0,snow/ice covered,0.257715821266174,-8.90278816223145,100.0,444.550109863281
arenacam6_1769615972680498087.png,1769615972680498087,1769615972.6804981,42.30106592603324,-83.69744991497137,239.03443908691406,0.7100249770619295,0.7040543281881928,0.008947327939831117,0.009590632430474024,-0.0013800000000000002,0.018850000000000002,-0.0015200000000000003,1.7382000000000002,0.32370000000000004,-10.116800000000001,0.3843496682138978,0.8597671468143967,0.9899999499320984,1.1100000143051147,1.25,1.1399999856948853,0.8038890871444022,0.9013302458158851,1.015011525,0.9256904991841151,0.9114803392861006,0.0,3.200000047683716,23.325000762939453,0.0,0.0,0.0,0.0,0.0,snow/ice covered,0.257715821266174,-8.90278816223145,100.0,444.550109863281
arenacam6_1769615972701419869.png,1769615972701419869,1769615972.7014198,42.30106592603324,-83.69744991497137,239.03443908691406,0.7100249770619295,0.7040543281881928,0.008947327939831117,0.009590632430474024,-0.0013800000000000002,0.018850000000000002,-0.0015200000000000003,1.7382000000000002,0.32370000000000004,-10.116800000000001,0.3843496682138978,0.8597671468143967,0.9899999499320984,1.1100000143051147,1.25,1.1399999856948853,0.8038890871444022,0.9013302458158851,1.015011525,0.9256904991841151,0.9114803392861006,0.0,3.200000047683716,23.325000762939453,0.0,0.0,0.0,0.0,0.0,snow/ice covered,0.257715821266174,-8.90278816223145,100.0,444.550109863281
arenacam6_1769615972721847682.png,1769615972721847682,1769615972.7218478,42.30106592603324,-83.69744991497137,239.03443908691406,0.7100249770619295,0.7040543281881928,0.008947327939831117,0.009590632430474024,-0.0013800000000000002,0.018850000000000002,-0.0015200000000000003,1.7382000000000002,0.32370000000000004,-10.116800000000001,0.3843496682138978,0.8597671468143967,0.9899999499320984,1.1100000143051147,1.25,1.1399999856948853,0.8038890871444022,0.9013302458158851,1.015011525,0.9256904991841151,0.9114803392861006,0.0,3.200000047683716,23.325000762939453,0.0,0.0,0.0,0.0,0.0,snow/ice covered,0.257715821266174,-8.90278816223145,100.0,444.550109863281
arenacam6_1769615972742798652.png,1769615972742798652,1769615972.7427986,42.30106592603324,-83.69744991497137,239.03443908691406,0.7100249770619295,0.7040543281881928,0.008947327939831117,0.009590632430474024,-0.0013800000000000002,0.018850000000000002,-0.0015200000000000003,1.7382000000000002,0.32370000000000004,-10.116800000000001,0.3843496682138978,0.8597671468143967,0.9899999499320984,1.1100000143051147,1.25,1.1399999856948853,0.8038890871444022,0.9013302458158851,1.015011525,0.9256904991841151,0.9114803392861006,0.0,3.200000047683716,23.325000762939453,0.0,0.0,0.0,0.0,0.0,snow/ice covered,0.257715821266174,-8.90278816223145,100.0,444.550109863281
arenacam6_1769615972763397295.png,1769615972763397295,1769615972.7633975,42.30106592603324,-83.69744991497137,239.03443908691406,0.7100249770619295,0.7040543281881928,0.008947327939831117,0.009590632430474024,-0.0013800000000000002,0.018850000000000002,-0.0015200000000000003,1.7382000000000002,0.32370000000000004,-10.116800000000001,0.3843496682138978,0.8597671468143967,0.9899999499320984,1.1100000143051147,1.25,1.1399999856948853,0.8038890871444022,0.9013302458158851,1.015011525,0.9256904991841151,0.9114803392861006,0.0,3.200000047683716,23.325000762939453,0.0,0.0,0.0,0.0,0.0,snow/ice covered,0.257715821266174,-8.90278816223145,100.0,444.550109863281
arenacam6_1769615972783975794.png,1769615972783975794,1769615972.7839756,42.30106592603324,-83.69744991497137,239.03443908691406,0.7100249770619295,0.7040543281881928,0.008947327939831117,0.009590632430474024,-0.0013800000000000002,0.018850000000000002,-0.0015200000000000003,1.7382000000000002,0.32370000000000004,-10.116800000000001,0.3843496682138978,0.8597671468143967,0.9899999499320984,1.1100000143051147,1.25,1.1399999856948853,0.8038890871444022,0.9013302458158851,1.015011525,0.9256904991841151,0.9114803392861006,0.0,3.200000047683716,23.325000762939453,0.0,0.0,0.0,0.0,0.0,snow/ice covered,0.257715821266174,-8.90278816223145,100.0,444.550109863281
arenacam6_1769615972804615763.png,1769615972804615763,1769615972.8046157,42.30106592603324,-83.69744991497137,239.03443908691406,0.7100249770619295,0.7040543281881928,0.008947327939831117,0.009590632430474024,-0.0013800000000000002,0.018850000000000002,-0.0015200000000000003,1.7382000000000002,0.32370000000000004,-10.116800000000001,0.3843496682138978,0.8597671468143967,0.9899999499320984,1.1100000143051147,1.25,1.1399999856948853,0.8038890871444022,0.9013302458158851,1.015011525,0.9256904991841151,0.9114803392861006,0.0,3.200000047683716,23.325000762939453,0.0,0.0,0.0,0.0,0.0,snow/ice covered,0.257715821266174,-8.90278816223145,100.0,444.550109863281
arenacam6_1769615972825406381.png,1769615972825406381,1769615972.8254066,42.30106592603324,-83.69744991497137,239.03443908691406,0.7100249770619295,0.7040543281881928,0.008947327939831117,0.009590632430474024,-0.0013800000000000002,0.018850000000000002,-0.0015200000000000003,1.7382000000000002,0.32370000000000004,-10.116800000000001,0.3843496682138978,0.8597671468143967,0.9899999499320984,1.1100000143051147,1.25,1.1399999856948853,0.8038890871444022,0.9013302458158851,1.015011525,0.9256904991841151,0.9114803392861006,0.0,3.200000047683716,23.325000762939453,0.0,0.0,0.0,0.0,0.0,snow/ice covered,0.257715821266174,-8.90278816223145,100.0,444.550109863281
arenacam6_1769615972846025856.png,1769615972846025856,1769615972.8460257,42.30106592603324,-83.69744991497137,239.03443908691406,0.7100249770619295,0.7040543281881928,0.008947327939831117,0.009590632430474024,-0.0013800000000000002,0.018850000000000002,-0.0015200000000000003,1.7382000000000002,0.32370000000000004,-10.116800000000001,0.3843496682138978,0.8597671468143967,0.9899999499320984,1.1100000143051147,1.25,1.1399999856948853,0.8038890871444022,0.9013302458158851,1.015011525,0.9256904991841151,0.9114803392861006,0.0,3.200000047683716,23.325000762939453,0.0,0.0,0.0,0.0,0.0,snow/ice covered,0.257715821266174,-8.90278816223145,100.0,444.550109863281
arenacam6_1769615972866709692.png,1769615972866709692,1769615972.8667097,42.30106592603324,-83.69744991497137,239.03443908691406,0.7100249770619295,0.7040543281881928,0.008947327939831117,0.009590632430474024,-0.0013800000000000002,0.018850000000000002,-0.0015200000000000003,1.7382000000000002,0.32370000000000004,-10.116800000000001,0.3843496682138978,0.8597671468143967,0.9899999499320984,1.1100000143051147,1.25,1.1399999856948853,0.8038890871444022,0.9013302458158851,1.015011525,0.9256904991841151,0.9114803392861006,0.0,3.200000047683716,23.325000762939453,0.0,0.0,0.0,0.0,0.0,snow/ice covered,0.257715821266174,-8.90278816223145,100.0,444.550109863281
arenacam6_1769615972887335376.png,1769615972887335376,1769615972.8873355,42.30106592603324,-83.69744991497137,239.03443908691406,0.7100249770619295,0.7040543281881928,0.008947327939831117,0.009590632430474024,-0.0013800000000000002,0.018850000000000002,-0.0015200000000000003,1.7382000000000002,0.32370000000000004,-10.116800000000001,0.3843496682138978,0.8597671468143967,0.9899999499320984,1.1100000143051147,1.25,1.1399999856948853,0.8038890871444022,0.9013302458158851,1.015011525,0.9256904991841151,0.9114803392861006,0.0,3.200000047683716,23.325000762939453,0.0,0.0,0.0,0.0,0.0,snow/ice covered,0.257715821266174,-8.90278816223145,100.0,444.550109863281
arenacam6_1769615972908289025.png,1769615972908289025,1769615972.908289,42.30106592603324,-83.69744991497137,239.03443908691406,0.7100249770619295,0.7040543281881928,0.008947327939831117,0.009590632430474024,-0.0013800000000000002,0.018850000000000002,-0.0015200000000000003,1.7382000000000002,0.32370000000000004,-10.116800000000001,0.3843496682138978,0.8597671468143967,0.9899999499320984,1.1100000143051147,1.25,1.1399999856948853,0.8038890871444022,0.9013302458158851,1.015011525,0.9256904991841151,0.9114803392861006,0.0,3.200000047683716,23.325000762939453,0.0,0.0,0.0,0.0,0.0,snow/ice covered,0.257715821266174,-8.90278816223145,100.0,444.550109863281
arenacam6_1769615972929064613.png,1769615972929064613,1769615972.9290648,42.30106592603324,-83.69744991497137,239.03443908691406,0.7100249770619295,0.7040543281881928,0.008947327939831117,0.009590632430474024,-0.0013800000000000002,0.018850000000000002,-0.0015200000000000003,1.7382000000000002,0.32370000000000004,-10.116800000000001,0.3843496682138978,0.8597671468143967,0.9899999499320984,1.1100000143051147,1.25,1.1399999856948853,0.8038890871444022,0.9013302458158851,1.015011525,0.9256904991841151,0.9114803392861006,0.0,3.200000047683716,23.325000762939453,0.0,0.0,0.0,0.0,0.0,snow/ice covered,0.257715821266174,-8.90278816223145,100.0,444.550109863281
arenacam6_1769615972949562456.png,1769615972949562456,1769615972.9495623,42.30106592603324,-83.69744991497137,239.03443908691406,0.7100249770619295,0.7040543281881928,0.008947327939831117,0.009590632430474024,-0.0013800000000000002,0.018850000000000002,-0.0015200000000000003,1.7382000000000002,0.32370000000000004,-10.116800000000001,0.3843496682138978,0.8597671468143967,0.9899999499320984,1.1100000143051147,1.25,1.1399999856948853,0.8038890871444022,0.9013302458158851,1.015011525,0.9256904991841151,0.9114803392861006,0.0,3.200000047683716,23.325000762939453,0.0,0.0,0.0,0.0,0.0,snow/ice covered,0.257715821266174,-8.90278816223145,100.0,444.550109863281
arenacam6_1769615972970164333.png,1769615972970164333,1769615972.9701643,42.30106592603324,-83.69744991497137,239.03443908691406,0.7100249770619295,0.7040543281881928,0.008947327939831117,0.009590632430474024,-0.0013800000000000002,0.018850000000000002,-0.0015200000000000003,1.7382000000000002,0.32370000000000004,-10.116800000000001,0.3843496682138978,0.8597671468143967,0.9899999499320984,1.1100000143051147,1.25,1.1399999856948853,0.8038890871444022,0.9013302458158851,1.015011525,0.9256904991841151,0.9114803392861006,0.0,3.200000047683716,23.325000762939453,0.0,0.0,0.0,0.0,0.0,snow/ice covered,0.257715821266174,-8.90278816223145,100.0,444.550109863281
arenacam6_1769615972990873993.png,1769615972990873993,1769615972.990874,42.30106592603324,-83.69744991497137,239.03443908691406,0.7100249770619295,0.7040543281881928,0.008947327939831117,0.009590632430474024,-0.0013800000000000002,0.018850000000000002,-0.0015200000000000003,1.7382000000000002,0.32370000000000004,-10.116800000000001,0.3843496682138978,0.8597671468143967,0.9899999499320984,1.1100000143051147,1.25,1.1399999856948853,0.8038890871444022,0.9013302458158851,1.015011525,0.9256904991841151,0.9114803392861006,0.0,3.200000047683716,23.325000762939453,0.0,0.0,0.0,0.0,0.0,snow/ice covered,0.257715821266174,-8.90278816223145,100.0,444.550109863281
arenacam6_1769615973011713346.png,1769615973011713346,1769615973.0117133,42.30106592603324,-83.69744991497137,239.03443908691406,0.7100249770619295,0.7040543281881928,0.008947327939831117,0.009590632430474024,-0.0013800000000000002,0.018850000000000002,-0.0015200000000000003,1.7382000000000002,0.32370000000000004,-10.116800000000001,0.3843496682138978,0.8597671468143967,0.9899999499320984,1.1100000143051147,1.25,1.1399999856948853,0.8038890871444022,0.9013302458158851,1.015011525,0.9256904991841151,0.9114803392861006,0.0,3.200000047683716,23.325000762939453,0.0,0.0,0.0,0.0,0.0,snow/ice covered,0.257715821266174,-8.90278816223145,100.0,444.550109863281
arenacam6_1769615973073813392.png,1769615973073813392,1769615973.0738134,42.30106609262803,-83.6974499236667,239.03443908691406,0.7100249770619295,0.7040543281881928,0.008947327939831117,0.009590632430474024,-0.0013800000000000002,0.018850000000000002,-0.0015200000000000003,1.7382000000000002,0.32370000000000004,-10.116800000000001,0.3843496682138978,0.8597671468143967,1.659999966621399,1.6899999380111694,1.5699999332427979,1.459999918937683,1.3479352780962683,1.3722955314644982,1.2748544211925366,1.1855333953766514,1.2951546565324885,0.0,3.0,23.575000762939453,0.0,0.0,0.0,0.0,0.0,snow/ice covered,0.257715821266174,-8.90278816223145,100.0,444.550109863281
arenacam6_1769615973094740517.png,1769615973094740517,1769615973.0947404,42.301066184086466,-83.69744993030461,239.03436279296875,0.7100249770619295,0.7040543281881928,0.008947327939831117,0.009590632430474024,-0.0013800000000000002,0.018850000000000002,-0.0015200000000000003,1.7382000000000002,0.32370000000000004,-10.116800000000001,0.3843496682138978,0.8597671468143967,1.96999990940094,1.6899999380111694,1.8700000047683716,1.71999990940094,1.599658089832728,1.3722955314644982,1.5184572452719618,1.396655784832728,1.4717666628504789,0.0,2.9000000953674316,23.575000762939453,0.0,0.0,0.0,0.0,0.0,snow/ice covered,0.257715821266174,-8.90278816223145,100.0,444.550109863281
arenacam6_1769615973115518024.png,1769615973115518024,1769615973.1155179,42.301066184086466,-83.69744993030461,239.03436279296875,0.7100249770619295,0.7040543281881928,0.008947327939831117,0.009590632430474024,-0.0013800000000000002,0.018850000000000002,-0.0015200000000000003,1.7382000000000002,0.32370000000000004,-10.116800000000001,0.3843496682138978,0.8597671468143967,1.96999990940094,1.9499999284744263,1.8700000047683716,1.96999990940094,1.599658089832728,1.5834179209205748,1.5184572452719618,1.599658089832728,1.575297836464498,0.0,2.700000047683716,23.80000114440918,0.0,0.0,0.0,0.0,0.0,snow/ice covered,0.257715821266174,-8.90278816223145,100.0,444.550109863281
arenacam6_1769615973138115119.png,1769615973138115119,1769615973.1381152,42.301066184086466,-83.69744993030461,239.03436279296875,0.7100249770619295,0.7040543281881928,0.008947327939831117,0.009590632430474024,-0.0013800000000000002,0.018850000000000002,-0.0015200000000000003,1.7382000000000002,0.32370000000000004,-10.116800000000001,0.3843496682138978,0.8597671468143967,2.1399998664855957,2.180000066757202,2.059999942779541,1.96999990940094,1.7376996223850727,1.7701801538074635,1.6727389467364597,1.599658089832728,1.6950692031904309,0.0,2.200000047683716,24.024999618530273,0.0,0.0,0.0,0.0,0.0,snow/ice covered,0.257715821266174,-8.90278816223145,100.0,444.550109863281
arenacam6_1769615973157010309.png,1769615973157010309,1769615973.1570103,42.301066184086466,-83.69744993030461,239.03436279296875,0.7099991491805788,0.7040710962374871,0.009666469165848643,0.009573869628479503,-0.014020000000000003,0.006620000000000001,-0.0038200000000000005,1.9652,0.020900000000000002,-9.598600000000001,0.672812958999296,1.5050422205038854,2.309999942779541,2.180000066757202,2.200000047683716,2.180000066757202,1.8757412517364598,1.7701801538074635,1.786420322719617,1.7701801538074635,1.800630470517751,0.1963986431655739,2.0,24.0,0.0,0.0,0.0,0.0,0.0,snow/ice covered,0.257715821266174,-8.90278816223145,100.0,444.550109863281
arenacam6_1769615973177574159.png,1769615973177574159,1769615973.1775742,42.301066184086466,-83.69744993030461,239.03436279296875,0.7099643367030637,0.7041019574340565,0.009948953322626283,0.009596482433322123,-0.018550000000000004,0.014410000000000001,-0.005450000000000001,3.1471,-0.6219,-9.5411,0.7269399209463323,1.6261209867616886,2.309999942779541,2.359999895095825,2.200000047683716,2.369999885559082,1.8757412517364598,1.916341674016843,1.786420322719617,1.9244617584729196,1.8757412517364598,0.15350657608316912,1.600000023841858,24.0,0.0,0.0,0.0,0.0,0.0,snow/ice covered,0.257715821266174,-8.90278816223145,100.0,444.550109863281
arenacam6_1769615973198237159.png,1769615973198237159,1769615973.1982372,42.301066282699836,-83.6974499342071,239.03466796875,0.7099928806085436,0.7040690954826335,0.010087536447091582,0.009749865633801683,-0.011530000000000002,0.012450000000000001,0.00253,1.0582,1.7970000000000002,-9.3058,0.7600762331973959,1.700244929088583,2.4800000190734863,2.549999952316284,2.3899998664855957,2.369999885559082,2.013782881087847,2.070623472280383,1.9407019273850727,1.9244617584729196,1.9873925098065555,0.16888600918921604,1.399999976158142,24.17500114440918,0.0,0.0,0.0,0.0,0.0,snow/ice covered,0.257715821266174,-8.90278816223145,100.0,444.550109863281
arenacam6_1769615973218711908.png,1769615973218711908,1769615973.2187119,42.301066282699836,-83.6974499342071,239.03466796875,0.7099286193312362,0.7041326777017481,0.01020878433039728,0.009711249636684429,-0.011870000000000002,0.00017,-0.008510000000000002,2.1763,-0.6053000000000001,-9.4052,0.8069911247482351,1.8051907265943172,2.7100000381469727,2.740000009536743,2.549999952316284,2.5399999618530273,2.2005450171756937,2.2249052705439234,2.070623472280383,2.0625033878243064,2.1396442869560763,0.18527325419665824,1.100000023841858,24.274999618530273,0.0,0.0,0.0,0.0,0.0,snow/ice covered,0.257715821266174,-8.90278816223145,100.0,444.550109863281
arenacam6_1769615973239195028.png,1769615973239195028,1769615973.239195,42.301066282699836,-83.6974499342071,239.03466796875,0.7099338103204194,0.704124278588452,0.010418674736862948,0.009717843533959247,-0.012180000000000002,0.012910000000000001,0.0008400000000000001,2.4353000000000002,0.4868,-10.0837,0.8507135799942677,1.9029952356323772,2.879999876022339,2.740000009536743,2.740000009536743,2.7100000381469727,2.3385864529289964,2.2249052705439234,2.2249052705439234,2.2005450171756937,2.247235502798134,0.18089391960635348,1.0,24.5,0.0,0.0,0.0,0.0,0.0,snow/ice covered,0.257715821266174,-8.90278816223145,100.0,444.550109863281
arenacam6_1769615973260041316.png,1769615973260041316,1769615973.2600412,42.301066282699836,-83.6974499342071,239.03466796875,0.7099255227081331,0.7041321997970643,0.010459140816527901,0.009705863687014898,-0.003940000000000001,0.007450000000000001,-0.0022,2.3563,1.2359,-9.6681,0.8740935045488863,1.955294724065586,2.9700000286102295,2.8999998569488525,2.8899998664855957,2.8499999046325684,2.41166740663177,2.3548266218411498,2.3467065373850726,2.3142261995607667,2.3568566913546896,0.20537158022609897,0.9000000357627869,24.274999618530273,0.0,0.0,0.0,0.0,0.0,snow/ice covered,0.257715821266174,-8.90278816223145,100.0,444.550109863281
arenacam6_1769615973281068857.png,1769615973281068857,1769615973.2810688,42.3010675354155,-83.69744999720575,239.0357208251953,0.7098727902374009,0.7041854120677323,0.010533396265937313,0.009621573398850385,0.0014900000000000002,0.011840000000000002,-0.00192,1.7228,0.7181000000000001,-9.7417,0.9316107516778581,2.083957354858268,3.179999828338623,2.9700000286102295,2.8899998664855957,2.9800000190734863,2.582189180209379,2.41166740663177,2.3467065373850726,2.4197874910878467,2.4400876538285172,0.17089135636101827,0.699999988079071,24.67500114440918,0.0,0.0,0.0,0.0,0.0,snow/ice covered,0.257715821266174,-8.90278816223145,100.0,444.550109863281
arenacam6_1769615973301276468.png,1769615973301276468,1769615973.3012764,42.30106771779504,-83.69745000145,239.03591918945312,0.7098241522511402,0.7042344526417571,0.010577390401599674,0.009572220516007268,0.007380000000000001,0.00898,-0.0023500000000000005,1.5103,0.9977,-9.6663,0.9993823518851259,2.2355583582259135,3.2100000381469727,3.119999885559082,3.0399999618530273,3.119999885559082,2.6065496271756934,2.5334686734729193,2.4685079978243065,2.5334686734729193,2.5354987429864595,0.13416799595362458,0.699999988079071,24.450000762939453,0.0,0.0,0.0,0.0,0.0,snow/ice covered,0.257715821266174,-8.90278816223145,100.0,444.550109863281
arenacam6_1769615973322068748.png,1769615973322068748,1769615973.3220687,42.30106790279524,-83.69745000939363,239.03614807128906,0.7098080608292937,0.7042510119703527,0.010609319436819286,0.009511638217429712,0.004200000000000001,0.013120000000000001,-0.004430000000000001,2.4957000000000003,-0.305,-10.1376,1.0241448433922116,2.290950565977774,3.3299999237060547,3.299999952316284,3.299999952316284,3.240000009536743,2.703990640648613,2.6796303872803833,2.6796303872803833,2.6309098805439235,2.6735403239383255,0.16700044236758238,0.699999988079071,24.67500114440918,0.0,0.0,0.0,0.0,0.0,snow/ice covered,0.257715821266174,-8.90278816223145,100.0,444.550109863281
arenacam6_1769615973342716995.png,1769615973342716995,1769615973.342717,42.30106809437012,-83.69745001022585,239.0367889404297,0.7097760787305195,0.7042839408183128,0.010543909531134352,0.009532824301023184,0.004690000000000001,-0.015110000000000002,-0.0007700000000000001,2.0796,0.5641,-10.1904,1.092622471843545,2.4441309121656998,3.6599998474121094,3.509999990463257,3.4499998092651367,3.379999876022339,2.971953621297226,2.850152354456077,2.8014316541215325,2.7445910629289965,2.842032173200958,0.16279866968446682,0.699999988079071,24.700000762939453,0.0,0.0,0.0,0.0,0.0,snow/ice covered,0.257715821266174,-8.90278816223145,100.0,444.550109863281
arenacam6_1769615973363804232.png,1769615973363804232,1769615973.363804,42.30106829988734,-83.69745001314985,239.03733825683594,0.7097531353200155,0.7043082277627944,0.010510124231871311,0.00948390729973288,0.012050000000000002,0.0024600000000000004,-0.00632,1.5692000000000002,0.6066,-9.5694,1.1082456777462941,2.479079086377795,3.669999837875366,3.629999876022339,3.5999999046325684,3.5,2.9800737057533024,2.947593367928996,2.9232331145607664,2.8420322700000002,2.9232331145607664,0.17916089511768207,0.699999988079071,24.825000762939453,0.0,0.0,0.0,0.0,0.0,snow/ice covered,0.257715821266174,-8.90278816223145,100.0,444.550109863281
arenacam6_1769615973384218298.png,1769615973384218298,1769615973.3842185,42.30106850807537,-83.69745001513216,239.03781127929688,0.7097289006622419,0.7043349708557667,0.010478121466869009,0.00934587421793403,0.008510000000000002,0.010390000000000002,0.0019400000000000003,3.0654000000000003,0.0329,-10.1395,1.1781591993092038,2.6354714393027305,3.7200000286102295,3.740000009536743,3.679999828338623,3.609999895095825,3.0206743216317706,3.0369144905439236,2.988193790209379,2.931353199016843,2.9942839503504795,0.13614737222979745,0.699999988079071,24.700000762939453,0.0,0.0,0.0,0.0,0.0,snow/ice covered,0.257715821266174,-8.90278816223145,100.0,444.550109863281
arenacam6_1769615973404845845.png,1769615973404845845,1769615973.4048457,42.30106872057835,-83.69745001217237,239.03855895996094,0.7097161957478453,0.7043486912458238,0.010366359048912503,0.009401129377395586,0.007940000000000001,-0.02355,-0.004130000000000001,2.0642,0.43670000000000003,-9.7233,1.1986624739022311,2.681336034370857,4.279999732971191,3.8999998569488525,3.819999933242798,3.759999990463257,3.4753992447701454,3.1668358418411495,3.101875166192537,3.0531546594560766,3.199316228064977,0.1931798875837872,0.699999988079071,24.950000762939453,0.0,0.0,0.0,0.0,0.0,snow/ice covered,0.257715821266174,-8.90278816223145,100.0,444.550109863281
arenacam6_1769615973425660827.png,1769615973425660827,1769615973.4256608,42.30106894750244,-83.69745001288982,239.0391845703125,0.7096782107467214,0.7043925084349428,0.010233950557263193,0.009126746849369422,0.022030000000000004,0.012940000000000002,-0.0021400000000000004,1.919,0.0964,-9.615400000000001,1.2484103474663524,2.7926190426613826,4.150000095367432,3.990000009536743,3.8999998569488525,3.869999885559082,3.369838340439234,3.239916795543923,3.1668358418411495,3.14247558847292,3.2297666415743063,0.1565367822230129,0.6000000238418579,24.875,0.0,0.0,0.0,0.0,0.0,snow/ice covered,0.257715821266174,-8.90278816223145,100.0,444.550109863281
arenacam6_1769615973446487973.png,1769615973446487973,1769615973.4464881,42.30106894750244,-83.69745001288982,239.0391845703125,0.709663584140913,0.7044080619080335,0.01021379229950089,0.00908614935514989,0.008610000000000001,0.0029000000000000007,-0.004260000000000001,2.9634,-0.5697,-10.3742,1.2778586129109841,2.858493045565097,4.130000114440918,4.079999923706055,4.0,3.9499998092651367,3.3535981715270804,3.312997555648613,3.24803688,3.2074362641215326,3.2805172178243067,0.14763869127265247,0.6000000238418579,24.600000381469727,0.0,0.0,0.0,0.0,0.0,snow/ice covered,0.257715821266174,-8.90278816223145,100.0,444.550109863281
arenacam6_1769615973469383989.png,1769615973469383989,1769615973.469384,42.301069413680416,-83.69745001266514,239.0408172607422,0.7096716318739957,0.7044031635124638,0.010060919961624955,0.009007554410537482,0.011050000000000003,-0.0018800000000000004,-0.0034600000000000004,1.5568000000000002,-0.0016,-10.019300000000001,1.331874658360617,2.9793236982731988,4.400000095367432,4.239999771118164,4.130000114440918,4.210000038146973,3.572840645439234,3.442918906945839,3.3535981715270804,3.4185588471756936,3.4469791427719616,0.15696698038209597,0.6000000238418579,24.649999618530273,0.0,0.0,0.0,0.0,0.0,snow/ice covered,0.257715821266174,-8.90278816223145,100.0,444.550109863281
arenacam6_1769615973487673371.png,1769615973487673371,1769615973.4876733,42.301069413680416,-83.69745001266514,239.0408172607422,0.7096744416498671,0.7044021119685699,0.010035154447271093,0.008896471119895076,0.019560000000000004,0.012110000000000003,0.0008300000000000001,1.2239,0.8150000000000001,-9.4928,1.3440160325842778,3.0064832239290746,4.599999904632568,4.400000095367432,4.309999942779541,4.299999713897705,3.735242334560766,3.572840645439234,3.4997596917364597,3.4916394136822984,3.5748705213546894,0.18905387294421952,0.6000000238418579,24.850000381469727,0.0,0.0,0.0,0.0,0.0,snow/ice covered,0.257715821266174,-8.90278816223145,100.0,444.550109863281
arenacam6_1769615973528878599.png,1769615973528878599,1769615973.5288787,42.30106991451878,-83.6974500175069,239.0423583984375,0.70969655227274,0.7043814492764777,0.010040706380168511,0.008761382467513611,0.006010000000000001,0.01818,0.0061400000000000005,2.0921000000000003,0.0483,-9.8367,1.4388081886039028,3.2185275894156145,4.639999866485596,4.619999885559082,4.509999752044678,4.46999979019165,3.767722672385073,3.7514825034729196,3.6621613808579925,3.6296810430336857,3.7027618999374177,0.15045212354688103,0.5,24.899999618530273,0.0,0.0,0.0,0.0,0.0,snow/ice covered,0.257715821266174,-8.90278816223145,100.0,444.550109863281
arenacam6_1769615973549970224.png,1769615973549970224,1769615973.5499701,42.30107044420415,-83.6974500244954,239.0442352294922,0.709675013467313,0.7044049616072108,0.010009584352370177,0.008650638381413873,0.010110000000000001,0.01068,-0.00521,2.7219,-1.0535,-10.2363,1.494378218293904,3.342834411630366,4.980000019073486,5.019999980926514,4.650000095367432,4.670000076293945,4.043805931087847,4.0762862689121535,3.775842950439234,3.7920831193513873,3.9220045674476554,0.17325720765654576,0.6000000238418579,25.125,0.0,0.0,0.0,0.0,0.0,snow/ice covered,0.257715821266174,-8.90278816223145,100.0,444.550109863281
arenacam6_1769615973570300296.png,1769615973570300296,1769615973.5703003,42.30107099690639,-83.69745003027927,239.04617309570312,0.7096870367715222,0.7043924005102394,0.009994380479598068,0.0087044988774506,0.0016600000000000002,-0.006310000000000001,-0.0020900000000000003,2.2641,-0.39980000000000004,-10.1071,1.562354839739891,3.4948940352077518,4.880000114440918,5.029999732971191,4.739999771118164,4.739999771118164,3.962605086527081,4.084406159770146,3.848923516945839,3.848923516945839,3.936214570047226,0.12627579846301124,0.6000000238418579,25.200000762939453,0.0,0.0,0.0,0.0,0.0,snow/ice covered,0.257715821266174,-8.90278816223145,100.0,444.550109863281
arenacam6_1769615973591435048.png,1769615973591435048,1769615973.591435,42.30107099690639,-83.69745003027927,239.04617309570312,0.7096678350471316,0.7044113718429577,0.010007994076746898,0.008719126814046851,-0.0040100000000000005,-6e-05,-0.0054800000000000005,1.5558,0.5835,-9.3879,1.5777739060180573,3.5293855613280334,5.170000076293945,5.049999713897705,4.889999866485596,4.920000076293945,4.198087729351387,4.1006463286822985,3.970724977385073,3.995085424351387,4.066136114942537,0.15208045261355216,0.6000000238418579,25.375,0.0,0.0,0.0,0.0,0.0,snow/ice covered,0.257715821266174,-8.90278816223145,100.0,444.550109863281
arenacam6_1769615973611594498.png,1769615973611594498,1769615973.6115944,42.30107158521313,-83.69745004047955,239.0479278564453,0.7096409902242028,0.704439163439152,0.010025247812146094,0.008638542299820313,-0.0055000000000000005,-0.01119,-0.00613,2.8107,-0.07730000000000001,-10.191,1.6438282177124999,3.6771450933297998,5.299999713897705,5.299999713897705,4.989999771118164,5.019999980926514,4.3036486336822986,4.3036486336822986,4.051925821945839,4.0762862689121535,4.1838773395556474,0.13780588836296956,0.6000000238418579,25.875,0.0,0.0,0.0,0.0,0.0,snow/ice covered,0.257715821266174,-8.90278816223145,100.0,444.550109863281
arenacam6_1769615973632510963.png,1769615973632510963,1769615973.632511,42.30107158521313,-83.69745004047955,239.0479278564453,0.7096426395120179,0.7044374098569347,0.010023778444216591,0.008647753822262743,-0.0009500000000000001,-0.00135,0.0004500000000000001,1.6287,0.7029000000000001,-10.027700000000001,1.6600640687412382,3.7134637179300256,5.259999752044678,5.480000019073486,5.130000114440918,5.119999885559082,4.271168295857993,4.449810541087847,4.165607391527081,4.15748711347292,4.26101833548646,0.1474511828169024,0.6000000238418579,26.17500114440918,0.0,0.0,0.0,0.0,0.0,snow/ice covered,0.257715821266174,-8.90278816223145,100.0,444.550109863281
arenacam6_1769615973653217211.png,1769615973653217211,1769615973.6532173,42.301072203480885,-83.6974500509553,239.04983520507812,0.7096106493872881,0.7044703197230286,0.009980353914085338,0.00864218960881289,-0.0004900000000000001,-0.011770000000000001,-0.00445,1.5289000000000001,0.4168,-9.3451,1.7205317283704569,3.84872624446101,5.549999713897705,5.339999675750732,5.239999771118164,5.230000019073486,4.506650938682299,4.336128971506605,4.254928126945839,4.246808236087847,4.336129068305648,0.12664003436100335,0.6000000238418579,26.5,0.0,0.0,0.0,0.0,0.0,snow/ice covered,0.257715821266174,-8.90278816223145,100.0,444.550109863281
arenacam6_1769615973673873144.png,1769615973673873144,1769615973.6738732,42.301072203480885,-83.6974500509553,239.04983520507812,0.7096056963100343,0.704476016878682,0.01000406854677777,0.00855663599843274,0.0089,0.015350000000000003,-0.0013900000000000002,2.0536000000000003,0.39740000000000003,-9.7051,1.7409484599056015,3.8943972479012365,5.619999885559082,5.400000095367432,5.389999866485596,5.329999923706055,4.56349172347292,4.384849865439234,4.376729587385073,4.328009080648613,4.41327006423646,0.13323571872768092,0.6000000238418579,27.274999618530273,0.0,0.0,0.0,0.0,0.0,snow/ice covered,0.257715821266174,-8.90278816223145,100.0,444.550109863281
arenacam6_1769615973694578213.png,1769615973694578213,1769615973.6945782,42.30107284662744,-83.69745005846951,239.05206298828125,0.7095542735699709,0.7045309636004623,0.009856894276582182,0.008467338543782928,0.016380000000000002,0.008230000000000001,-0.007320000000000001,2.4295,-0.1406,-9.9603,1.8039694186984894,4.035371351463399,5.559999942779541,5.859999656677246,5.489999771118164,5.449999809265137,4.5147712167364595,4.758373750418759,4.457930431945839,4.4254500941215325,4.539131373305648,0.1248361000678571,0.6000000238418579,27.700000762939453,0.0,0.0,0.0,0.0,0.0,snow/ice covered,0.257715821266174,-8.90278816223145,100.0,444.550109863281
arenacam6_1769615973715237717.png,1769615973715237717,1769615973.7152376,42.30107284662744,-83.69745005846951,239.05206298828125,0.7095485189980664,0.7045370657551414,0.00980096229381008,0.008506662265631279,0.0023800000000000006,-0.013370000000000002,-0.0018800000000000004,2.3523,-0.6225,-10.0332,1.8273057996509543,4.087573435471206,5.569999694824219,5.859999656677246,5.62999963760376,5.549999713897705,4.522891107594452,4.758373750418759,4.571611614330912,4.506650938682299,4.589881852756605,0.12288670166178786,0.6000000238418579,27.975000381469727,0.0,0.0,0.0,0.0,0.0,snow/ice covered,0.257715821266174,-8.90278816223145,100.0,444.550109863281
arenacam6_1769615973756581352.png,1769615973756581352,1769615973.7565813,42.301073524555164,-83.69745006295139,239.05435180664062,0.7094971655167753,0.7045933331541594,0.00955339919757372,0.008410681431675731,0.02186,-0.0037100000000000006,-0.010270000000000001,1.9213,-0.0784,-9.527700000000001,1.902488109291652,4.2557517511988685,6.009999752044678,5.889999866485596,5.849999904632568,6.0,4.880175210857993,4.782734197385073,4.750253859560766,4.87205532,4.821304646950958,0.13289142055637299,0.6000000238418579,28.950000762939453,0.0,0.0,0.0,0.0,0.0,snow/ice covered,0.257715821266174,-8.90278816223145,100.0,444.550109863281
arenacam6_1769615973777300307.png,1769615973777300307,1769615973.7773001,42.301074228703634,-83.69745006792057,239.05686950683594,0.7095057674673446,0.7045846604232516,0.009486204316257954,0.008487293708578921,-0.0010600000000000002,0.004760000000000001,0.004410000000000001,1.4871,1.2203000000000002,-9.9593,1.95624841812691,4.376010336444811,6.039999961853027,6.399999618530273,6.009999752044678,6.029999732971191,4.904535657824306,5.196858698243065,4.880175210857993,4.896415379770145,4.969496236673876,0.13562260017676964,0.6000000238418579,29.25,0.0,0.0,0.0,0.0,0.0,snow/ice covered,0.257715821266174,-8.90278816223145,100.0,444.550109863281
arenacam6_1769615973797891579.png,1769615973797891579,1769615973.7978916,42.301074228703634,-83.69745006792057,239.05686950683594,0.70945913442359,0.704634153046225,0.009340224654720293,0.008438432743060243,0.013450000000000002,-0.014960000000000003,-0.00867,2.1608,-0.0118,-9.8481,2.000964969461809,4.4760385787878985,6.190000057220459,6.440000057220459,6.12999963760376,6.049999713897705,5.02633711826354,5.229339423263541,4.977616224330911,4.912655548682299,5.036487078635073,0.12521082872322845,0.6000000238418579,29.5,0.0,0.0,0.0,0.0,0.0,snow/ice covered,0.257715821266174,-8.90278816223145,100.0,444.550109863281
arenacam6_1769615973818971912.png,1769615973818971912,1769615973.8189719,42.30107495435722,-83.69745007794191,239.05943298339844,0.7094673543191079,0.704627369012501,0.009262844821214153,0.0083990296929937,0.006240000000000001,0.0006900000000000001,0.0026100000000000003,1.6440000000000001,-0.0719,-9.707,2.033424258211998,4.548648060164747,6.429999828338623,6.429999828338623,6.199999809265137,6.170000076293945,5.221219145209379,5.221219145209379,5.034457009121533,5.010096949351388,5.12174806222292,0.1259934808052431,0.6000000238418579,29.67500114440918,0.0,0.0,0.0,0.0,0.0,snow/ice covered,0.257715821266174,-8.90278816223145,100.0,444.550109863281
arenacam6_1769615973839328656.png,1769615973839328656,1769615973.8393288,42.30107495435722,-83.69745007794191,239.05943298339844,0.709442411240885,0.7046522055325669,0.009262705212647404,0.008422390572239404,0.0023800000000000006,0.0012000000000000001,-0.0025900000000000003,1.7333,1.0573000000000001,-9.5815,2.0689685225907044,4.628158446924051,6.579999923706055,6.460000038146973,6.309999942779541,6.190000057220459,5.343020605648613,5.245579592175694,5.12377813173646,5.02633711826354,5.184678861956076,0.12024662107277205,0.5,30.024999618530273,0.0,0.0,0.0,0.0,0.0,snow/ice covered,0.242494344711304,-8.38456726074219,100.0,481.855499267578
arenacam6_1769615973860093357.png,1769615973860093357,1769615973.8600934,42.30107571240247,-83.69745008385502,239.06195068359375,0.7094037710773868,0.7046916791017971,0.00925552679456656,0.008382255640788018,-0.004850000000000001,-0.0027500000000000003,-0.0066500000000000005,2.3302,-0.7211000000000001,-9.8885,2.1122981456098042,4.725084213840396,6.759999752044678,6.659999847412109,6.369999885559082,6.460000038146973,5.489182125857993,5.407981281297226,5.17249863847292,5.245579592175694,5.328810409450958,0.1277704625543326,0.5,30.25,0.0,0.0,0.0,0.0,0.0,snow/ice covered,0.242494344711304,-8.38456726074219,100.0,481.855499267578
arenacam6_1769615973881132784.png,1769615973881132784,1769615973.8811328,42.30107571240247,-83.69745008385502,239.06195068359375,0.7094133511614342,0.7046819483997034,0.009294070746454679,0.008346798335978414,0.007740000000000001,0.011040000000000001,0.0015300000000000003,1.7381,0.646,-9.801,2.144885330531327,4.797979791278747,6.809999942779541,6.87999963760376,6.539999961853027,6.539999961853027,5.529782741736461,5.586623139330912,5.310540267824307,5.310540267824307,5.434371604178997,0.13263745171603572,0.5,30.125,0.0,0.0,0.0,0.0,0.0,snow/ice covered,0.242494344711304,-8.38456726074219,100.0,481.855499267578
arenacam6_1769615973901778938.png,1769615973901778938,1769615973.901779,42.301076497913186,-83.69745009040611,239.06443786621094,0.7093646607723069,0.7047301320782311,0.009325636749076901,0.008381616050209123,-0.011130000000000001,-0.006980000000000001,-0.0032000000000000006,1.6920000000000002,0.5720000000000001,-9.769300000000001,2.185753433162209,4.889399284777872,6.829999923706055,7.029999732971191,6.799999713897705,6.869999885559082,5.546022910648613,5.7084245997701455,5.521662463682299,5.578503248472919,5.588653305643494,0.1430143009679338,0.30000001192092896,30.325000762939453,0.0,0.0,0.0,0.0,0.0,snow/ice covered,0.242494344711304,-8.38456726074219,100.0,481.855499267578
arenacam6_1769615973922700102.png,1769615973922700102,1769615973.9227,42.301076497913186,-83.69745009040611,239.06443786621094,0.7093530625221216,0.7047426160855089,0.009347299923776205,0.008288893024713402,0.0016800000000000003,0.0004700000000000001,-0.005080000000000001,2.4719,-0.48410000000000003,-9.7986,2.2279313365021496,4.983748723875119,7.109999656677246,7.039999961853027,6.819999694824219,6.779999732971191,5.773385275418759,5.716544877824306,5.537902632594451,5.505422294770145,5.633313770151916,0.13033663658943995,0.20000000298023224,30.75,0.0,0.0,0.0,0.0,0.0,snow/ice covered,0.242494344711304,-8.38456726074219,100.0,481.855499267578
arenacam6_1769615973942697659.png,1769615973942697659,1769615973.9426978,42.301077306854644,-83.69745010058321,239.06692504882812,0.7093415826885235,0.7047531996216592,0.009378384941754038,0.00833622143771133,0.0010700000000000002,0.0029200000000000007,0.0008000000000000001,0.9961000000000001,0.4867,-9.8643,2.25704191206571,5.04886733477627,7.37999963760376,7.12999963760376,7.019999980926514,6.960000038146973,5.992627749330913,5.789625444330912,5.700304708912154,5.651584202175694,5.783535526187418,0.14551148657656357,-0.20000000298023224,30.625,0.0,0.0,0.0,0.0,0.0,snow/ice covered,0.242494344711304,-8.38456726074219,100.0,481.855499267578
arenacam6_1769615973963790496.png,1769615973963790496,1769615973.9637907,42.301077306854644,-83.69745010058321,239.06692504882812,0.7093198896341543,0.7047730482902375,0.009485603135602993,0.008382595435286548,-0.017980000000000003,-0.011470000000000001,-0.0030100000000000005,2.6281000000000003,0.021400000000000002,-10.1821,2.3065913784691605,5.159706518152804,7.440000057220459,7.489999771118164,7.12999963760376,7.289999961853027,6.041348643263541,6.08194887194584,5.789625444330912,5.9195471828243065,5.95811753559115,0.15473961835414238,-0.699999988079071,30.850000381469727,0.0,0.0,0.0,0.0,0.0,snow/ice covered,0.242494344711304,-8.38456726074219,100.0,481.855499267578
arenacam6_1769615973984177992.png,1769615973984177992,1769615973.9841778,42.301078149378455,-83.69745011210853,239.06942749023438,0.7093079308405147,0.7047833974815547,0.009533534324190756,0.008469569315722219,-0.016300000000000002,-0.017670000000000005,-0.00255,2.1083000000000003,-0.2998,-9.98,2.362252703143541,5.284217561769913,7.5,7.809999942779541,7.289999961853027,7.21999979019165,6.090069150000001,6.34179196173646,5.9195471828243065,5.862706398033686,6.053528673148613,0.14558657027002206,-1.100000023841858,30.80000114440918,0.0,0.0,0.0,0.0,0.0,snow/ice covered,0.242494344711304,-8.38456726074219,100.0,481.855499267578
arenacam6_1769615974005341212.png,1769615974005341212,1769615974.0053413,42.301078149378455,-83.69745011210853,239.06942749023438,0.7093132754474907,0.7047770769867124,0.009581113648531972,0.008494191501954875,-0.0101,0.0032700000000000003,0.0016700000000000003,0.9709000000000001,0.8157000000000001,-9.961500000000001,2.37179236812092,5.305557219944411,7.690000057220459,8.420000076293945,7.529999732971191,7.440000057220459,6.24435094826354,6.837117694351387,6.114429209770146,6.041348643263541,6.309311623912153,0.18918925239265602,-1.5,31.200000762939453,0.0,0.0,0.0,0.0,0.0,snow/ice covered,0.242494344711304,-8.38456726074219,100.0,481.855499267578
arenacam6_1769615974025625533.png,1769615974025625533,1769615974.0256257,42.30107901790474,-83.69745012404047,239.0720672607422,0.7093216898135383,0.7047679254415584,0.009653924763853789,0.00846837443209534,-0.00708,-0.0025900000000000003,-0.0021500000000000004,2.6235,-0.0907,-9.3993,2.419284393956294,5.4117940322165925,7.980000019073486,8.639999389648438,7.329999923706055,7.460000038146973,6.479833591087846,7.015759165188904,5.952027520648613,6.057588812175694,6.3763022722752645,0.1782233829145976,-1.7000000476837158,31.075000762939453,0.0,0.0,0.0,0.0,0.0,snow/ice covered,0.242494344711304,-8.38456726074219,100.0,481.855499267578
arenacam6_1769615974066945215.png,1769615974066945215,1769615974.0669453,42.30107945786642,-83.69745012961917,239.0735626220703,0.7093176480656382,0.7047677802471005,0.009792981326602905,0.008657227324199622,-0.019020000000000002,0.00102,-0.0030300000000000006,2.0659,-0.1302,-9.500300000000001,2.4884150188086944,5.566435092173921,8.699999809265137,8.489999771118164,7.489999771118164,7.62999963760376,7.064480059121533,6.89395809194584,6.08194887194584,6.195630054330912,6.5590042693360315,0.17831325807743703,-2.4000000953674316,31.125,0.0,0.0,0.0,0.0,0.0,snow/ice covered,0.242494344711304,-8.38456726074219,100.0,481.855499267578
arenacam6_1769615974108484550.png,1769615974108484550,1769615974.1084845,42.30108036656926,-83.697450143659,239.07591247558594,0.7093493516945356,0.7047342785816113,0.009880517751647545,0.008687301742035084,0.0013300000000000002,0.00892,0.003790000000000001,1.6069,0.4147,-9.940100000000001,2.561537741959271,5.7300062364983715,8.960000038146973,8.619999885559082,7.869999885559082,7.829999923706055,7.275602642175694,6.9995193834729195,6.390512468472919,6.358032130648613,6.755916656192537,0.17904176319380466,-2.9000000953674316,31.149999618530273,0.0,0.0,0.0,0.0,0.0,snow/ice covered,0.242494344711304,-8.38456726074219,100.0,481.855499267578
arenacam6_1769615974149926646.png,1769615974149926646,1769615974.1499267,42.301081296383984,-83.69745015641226,239.07797241210938,0.7094277036289187,0.7046593363680812,0.00975965137951312,0.008503069918826609,0.017120000000000003,0.004070000000000001,0.006300000000000001,1.5247000000000002,0.2891,-9.3367,2.6416397522400294,5.909189627375812,8.170000076293945,8.869999885559082,8.220000267028809,8.039999961853027,6.634115389351387,7.2025216884729195,6.674716005229855,6.528554097824307,6.759976795219616,0.1439769615620927,-3.200000047683716,31.399999618530273,0.0,0.0,0.0,0.0,0.0,snow/ice covered,0.242494344711304,-8.38456726074219,100.0,481.855499267578
arenacam6_1769615974191319546.png,1769615974191319546,1769615974.1913195,42.301082750972455,-83.69745017271853,239.0799102783203,0.709469601545816,0.7046218339256168,0.009675002945667062,0.008206701878527527,0.0041,0.00885,-0.00109,2.1699,-0.3623,-9.413400000000001,2.74111760743922,6.131715620785089,8.699999809265137,8.309999465942383,8.34999942779541,8.319999694824219,7.064480059121533,6.747796184540291,6.7802765223645975,6.7559164625944526,6.837117307155219,0.11504148756980546,-3.4000000953674316,32.025001525878906,0.0,0.0,0.0,0.0,0.0,snow/ice covered,0.242494344711304,-8.38456726074219,100.0,481.855499267578
arenacam6_1769615974232490783.png,1769615974232490783,1769615974.2324908,42.30108375951488,-83.69745018267767,239.08062744140625,0.7094741211508696,0.7046192887272955,0.009756878171488702,0.007933013235097033,0.008810000000000002,0.007390000000000002,-0.0032300000000000002,2.4173,0.2891,-9.8473,2.821583768892844,6.311713595987159,9.25,9.039999961853027,8.420000076293945,8.479999542236328,7.511085285,7.340563317824307,6.837117694351387,6.885837813891678,7.143651027766843,0.13180848895117966,-3.4000000953674316,32.57500076293945,0.0,0.0,0.0,0.0,0.0,snow/ice covered,0.242494344711304,-8.38456726074219,100.0,481.855499267578
arenacam6_1769615974253864285.png,1769615974253864285,1769615974.2538643,42.301084268812104,-83.69745018480401,239.080810546875,0.7095201448503795,0.7045762202989359,0.009767021209218974,0.0076235908508121425,0.0202,0.024970000000000003,0.004710000000000001,1.6957,0.3105,-9.1967,2.854890865260573,6.386219572135987,9.84000015258789,9.279999732971191,8.59000015258789,8.510000228881836,7.990170848702774,7.535445344770146,6.9751593237027745,6.910198648054161,7.352743541307465,0.1513452455328288,-3.299999952316284,32.72500228881836,0.0,0.0,0.0,0.0,0.0,snow/ice covered,0.242494344711304,-8.38456726074219,100.0,481.855499267578
arenacam6_1769615974273913504.png,1769615974273913504,1769615974.2739136,42.30108479153358,-83.6974501832254,239.0806427001953,0.709475705666234,0.704626571976649,0.0098717156505415,0.006940199129047132,0.032650000000000005,0.04662000000000001,-0.0037500000000000003,2.3281,-0.8799,-9.9246,2.9091738131209963,6.507647269522882,10.039999961853027,9.829999923706055,8.59000015258789,8.59999942779541,8.152572537824307,7.982050570648613,6.9751593237027745,6.983278827364597,7.523265314885072,0.15606531873947924,-3.299999952316284,32.32500076293945,0.0,0.0,0.0,0.0,0.0,snow/ice covered,0.242494344711304,-8.38456726074219,100.0,481.855499267578
arenacam6_1769615974295092427.png,1769615974295092427,1769615974.2950926,42.30108531742942,-83.69745018872105,239.0807342529297,0.7094779574437517,0.7046246301656552,0.009934345533157482,0.006816688652375981,0.00888,0.026620000000000005,0.0014900000000000002,2.4513000000000003,-0.7425,-10.2728,2.9333235086834115,6.561668689514271,10.0,10.239999771118164,8.800000190734863,8.760000228881836,8.1200922,8.31497422694584,7.145681290878468,7.113200953054162,7.673487167719617,0.16944142272560375,-3.299999952316284,33.04999923706055,0.0,0.0,0.0,0.0,0.0,snow/ice covered,0.242494344711304,-8.38456726074219,100.0,481.855499267578
arenacam6_1769615974315392676.png,1769615974315392676,1769615974.3153927,42.301085846773425,-83.6974501854908,239.080810546875,0.7094575272943099,0.7046495810048956,0.010027174758232414,0.006200058180078739,0.04152000000000001,0.03681,-0.012230000000000001,2.0918,0.9380000000000001,-10.209800000000001,2.9868932411187754,6.681500966788234,10.069999694824219,10.300000190734863,8.929999351501465,8.84000015258789,8.176932597594453,8.363695120878468,7.25124180801321,7.1781616287027745,7.7425077887972265,0.15879767544492526,-3.299999952316284,33.07500076293945,0.0,0.0,0.0,0.0,0.0,snow/ice covered,0.242494344711304,-8.38456726074219,100.0,481.855499267578
arenacam6_1769615974336241111.png,1769615974336241111,1769615974.3362412,42.301086391876616,-83.69745018229946,239.08114624023438,0.709419963758871,0.7046903933998915,0.009976430540951133,0.0059359332821247906,0.04472,0.030140000000000004,-0.010690000000000002,2.5437000000000003,-0.2934,-10.444700000000001,3.0117946265707403,6.737203871961152,10.149999618530273,10.09000015258789,9.179999351501465,9.010000228881836,8.241893273243065,8.193173153702775,7.45424411301321,7.316203258054162,7.801378449503303,0.15795493171447947,-3.299999952316284,32.72500228881836,0.0,0.0,0.0,0.0,0.0,snow/ice covered,0.242494344711304,-8.38456726074219,100.0,481.855499267578
arenacam6_1769615974356644697.png,1769615974356644697,1769615974.3566446,42.30108693649543,-83.6974501807209,239.0816192626953,0.7093774645915026,0.7047381084995117,0.009863253932107864,0.0055251588332797955,0.0267,0.013750000000000002,-0.005090000000000001,1.8372000000000002,1.108,-10.7163,3.067198453656114,6.861138908921508,10.019999504089355,9.649999618530273,9.289999961853027,9.059999465942383,8.136331981715985,7.8358886632430655,7.543565622824306,7.356803099540292,7.718147341830912,0.12490760561559826,-3.299999952316284,32.75,0.0,0.0,0.0,0.0,0.0,snow/ice covered,0.242494344711304,-8.38456726074219,100.0,481.855499267578
arenacam6_1769615974377486106.png,1769615974377486106,1769615974.377486,42.3010874886571,-83.69745017723581,239.08253479003906,0.7093234534452321,0.7047951647366733,0.009765244920175829,0.005352956938370078,0.03839000000000001,0.010530000000000001,-0.015480000000000002,2.3943000000000003,0.5165000000000001,-10.519300000000001,3.0905677752863645,6.9134146792490805,9.739999771118164,9.429999351501465,9.399999618530273,9.260000228881836,7.908969616945839,7.6572464180132105,7.632886358243065,7.519205563054161,7.679576989064069,0.11082255952541924,-3.299999952316284,32.75,0.0,0.0,0.0,0.0,0.0,snow/ice covered,0.242494344711304,-8.38456726074219,100.0,481.855499267578
arenacam6_1769615974398079586.png,1769615974398079586,1769615974.3980794,42.30108805480342,-83.69745017462614,239.08413696289062,0.7092064087232899,0.7049199250445638,0.009379385387363534,0.005118225350224921,0.027700000000000002,-0.00041000000000000005,-0.008760000000000002,1.9885000000000002,0.0316,-10.834200000000001,3.14931904560188,7.044837745868669,9.529999732971191,9.539999961853027,9.699999809265137,9.359999656677246,7.738447649770146,7.746567927824307,7.876489279121533,7.600406020418759,7.740477719283686,0.09874464090006384,-3.299999952316284,33.150001525878906,0.0,0.0,0.0,0.0,0.0,snow/ice covered,0.242494344711304,-8.38456726074219,100.0,481.855499267578
arenacam6_1769615974419265791.png,1769615974419265791,1769615974.4192657,42.3010886219755,-83.69745017008103,239.08566284179688,0.709154652327046,0.7049741917326103,0.009217162488966885,0.005109989188918997,0.024190000000000003,-0.021370000000000004,-0.014780000000000003,2.3571,0.10360000000000001,-10.446100000000001,3.1724352244811027,7.096547251050758,9.710000038146973,9.960000038146973,9.899999618530273,9.559999465942383,7.884609557175694,8.087611862175693,8.038890968243065,7.762807709540291,7.943480024283685,0.11934434356193785,-3.299999952316284,33.20000076293945,0.0,0.0,0.0,0.0,0.0,snow/ice covered,0.242494344711304,-8.38456726074219,100.0,481.855499267578
arenacam6_1769615974441702919.png,1769615974441702919,1769615974.4417028,42.30108919547179,-83.69745016725521,239.0877685546875,0.708999235258501,0.7051377314555374,0.008708085300486381,0.00500333198966992,0.025860000000000005,-0.022310000000000003,-0.015050000000000001,2.5692,-0.5143,-10.4077,3.2385634934919394,7.2444722211318595,10.260000228881836,9.889999389648438,9.65999984741211,9.699999809265137,8.331214783054161,8.030770690188904,7.844008941297226,7.876489279121533,8.020620923415457,0.10713668002198977,-3.299999952316284,33.20000076293945,0.0,0.0,0.0,0.0,0.0,snow/ice covered,0.242494344711304,-8.38456726074219,100.0,481.855499267578
arenacam6_1769615974460263284.png,1769615974460263284,1769615974.4602633,42.301090369945044,-83.69745015889748,239.09249877929688,0.7088941784510899,0.7052466284899301,0.00841032731452175,0.0050500649701923144,0.016790000000000003,-0.019600000000000003,-0.013770000000000003,1.5214,-0.091,-9.7776,3.2711845168625757,7.317443493150571,10.460000038146973,9.920000076293945,9.719999313354492,9.619999885559082,8.493616472175693,8.055131524351388,7.892729060837517,7.81152860347292,8.06325141520938,0.101921924338318,-3.5,33.22500228881836,0.0,0.0,0.0,0.0,0.0,snow/ice covered,0.242494344711304,-8.38456726074219,100.0,481.855499267578
arenacam6_1769615974501885212.png,1769615974501885212,1769615974.5018852,42.301091571834185,-83.69745016599336,239.09701538085938,0.7086067977836267,0.7055349939783304,0.00833066303811323,0.005232443040986493,-0.019310000000000004,-0.005930000000000001,-0.015750000000000004,1.6335000000000002,-0.7896000000000001,-9.631,3.346223052040097,7.485300194030574,10.789999961853027,11.199999809265137,9.829999923706055,10.0,8.761579452824307,9.094503109121534,7.982050570648613,8.1200922,8.489556333148613,0.1341637760792706,-4.0,33.42499923706055,0.0,0.0,0.0,0.0,0.0,snow/ice covered,0.242494344711304,-8.38456726074219,100.0,481.855499267578
arenacam6_1769615974522674739.png,1769615974522674739,1769615974.5226748,42.301091571834185,-83.69745016599336,239.09701538085938,0.7085674676322332,0.7055728643093331,0.008423781139849826,0.00530253475948875,-0.022910000000000003,0.0034200000000000003,-0.011040000000000001,1.1188,-0.0745,-9.3343,3.3729498564841673,7.5450864519636935,11.429999351501465,12.40999984741211,9.979999542236328,10.0,9.28126485801321,10.077034296297228,8.103851643891678,8.1200922,8.89556074955053,0.17898725298705626,-4.599999904632568,33.17499923706055,0.0,0.0,0.0,0.0,0.0,snow/ice covered,0.242494344711304,-8.38456726074219,100.0,481.855499267578
arenacam6_1769615974542874905.png,1769615974542874905,1769615974.5428748,42.301092793417595,-83.6974501807867,239.10125732421875,0.7083919596018741,0.7057416655802689,0.008816160385004757,0.005639889313686874,-0.04456,-0.010150000000000001,-0.01617,1.9107,-0.7189,-9.7477,3.4410863624439174,7.697503727605297,11.969999313354492,12.4399995803833,10.149999618530273,10.219999313354492,9.719749805837518,10.101394356067372,8.241893273243065,8.298733670837517,9.090442776496367,0.1809598407722259,-5.0,33.32500076293945,0.0,0.0,0.0,0.0,0.0,snow/ice covered,0.242494344711304,-8.38456726074219,100.0,481.855499267578
arenacam6_1769615974563618065.png,1769615974563618065,1769615974.563618,42.301092793417595,-83.6974501807867,239.10125732421875,0.7083540796735521,0.7057760962754357,0.008979085376185516,0.005828873119999561,-0.050050000000000004,-0.0034400000000000008,-0.011050000000000003,1.2979,-0.6944,-10.3834,3.453683472812262,7.725682707672662,12.179999351501465,12.119999885559082,10.329999923706055,10.210000038146973,9.890271773013211,9.84155165347292,8.388055180648614,8.290614167175693,9.10262319357761,0.17822897185998307,-5.599999904632568,33.57500076293945,0.0,0.0,0.0,0.0,0.0,snow/ice covered,0.242494344711304,-8.38456726074219,100.0,481.855499267578
arenacam6_1769615974584387252.png,1769615974584387252,1769615974.5843873,42.30109404875056,-83.6974502101167,239.10536193847656,0.7082249048050252,0.7058926391532443,0.00962301335289524,0.006361117605487037,-0.06077000000000001,-0.009970000000000001,-0.012470000000000002,2.6283000000000003,-0.199,-9.501900000000001,3.513748580224693,7.860044749047825,12.039999961853027,11.729999542236328,10.5,10.4399995803833,9.776590977824307,9.524867778891679,8.52609681,8.477375916067372,9.07623287069584,0.15473043226571268,-6.300000190734863,33.45000076293945,0.0,0.0,0.0,0.0,0.0,snow/ice covered,0.242494344711304,-8.38456726074219,100.0,481.855499267578
arenacam6_1769615974605276944.png,1769615974605276944,1769615974.6052768,42.30109404875056,-83.6974502101167,239.10536193847656,0.7081946680194482,0.7059193003711467,0.009770402765013946,0.0065416192295104075,-0.04632000000000001,-0.004530000000000001,-0.008220000000000002,1.8995000000000002,0.6112000000000001,-9.5768,3.532254926934901,7.901442336257758,11.9399995803833,11.4399995803833,10.639999389648438,10.679999351501465,9.695389746067372,9.289385136067372,8.639777605188904,8.67225794301321,9.074202607584215,0.14842356894069222,-7.200000286102295,33.5,0.0,0.0,0.0,0.0,0.0,snow/ice covered,0.242494344711304,-8.38456726074219,100.0,481.855499267578
arenacam6_1769615974625746350.png,1769615974625746350,1769615974.6257465,42.30109532887426,-83.69745024749479,239.1098175048828,0.7081066547662178,0.706000541377379,0.00993731571138312,0.007032126783317256,-0.023360000000000006,-0.008430000000000002,-0.005690000000000001,1.2182,0.7667,-10.0516,3.5797899217284215,8.007775267511176,11.269999504089355,11.619999885559082,10.75,10.829999923706055,9.151343506715984,9.435547043472921,8.729099115,8.794059790648614,9.02751236395938,0.12734337095915263,-8.100000381469727,33.45000076293945,0.0,0.0,0.0,0.0,0.0,snow/ice covered,0.242494344711304,-8.38456726074219,100.0,481.855499267578
arenacam6_1769615974646378024.png,1769615974646378024,1769615974.646378,42.30109532887426,-83.69745024749479,239.1098175048828,0.7080721278341623,0.7060344559603504,0.009942865370685665,0.0070956472146169475,-0.009640000000000001,-0.008060000000000001,-0.00982,2.3234,0.24450000000000002,-9.7928,3.6026909258914768,8.05900343976368,10.869999885559082,11.6899995803833,10.819999694824219,10.819999694824219,8.826540128472919,9.49238744106737,8.785939512594451,8.785939512594451,8.972701648682298,0.11337607878541998,-8.90000057220459,33.70000076293945,0.0,0.0,0.0,0.0,0.0,snow/ice covered,0.242494344711304,-8.38456726074219,100.0,481.855499267578
arenacam6_1769615974667716770.png,1769615974667716770,1769615974.667717,42.30109663366801,-83.69745028581475,239.1142578125,0.7079462544286876,0.7061596031309562,0.009753095547070472,0.007456062873361802,-0.00642,-0.028240000000000005,-0.0101,1.8191000000000002,0.41750000000000004,-10.0122,3.6637472144888976,8.195582693978794,11.15999984741211,11.5,10.969999313354492,11.039999961853027,9.062022771297226,9.33810603,8.907740585837518,8.964581757824307,9.068112786239762,0.1064634602371844,-10.300000190734863,33.625,0.0,0.0,0.0,0.0,0.0,snow/ice covered,0.242494344711304,-8.38456726074219,100.0,481.855499267578
arenacam6_1769615974687902343.png,1769615974687902343,1769615974.6879025,42.30109663366801,-83.69745028581475,239.1142578125,0.7078953939216593,0.7062103546469036,0.009692343256433596,0.007556767575667623,-0.006020000000000001,-0.02261,-0.015830000000000004,1.329,0.3342,-9.7782,3.676737999713247,8.224642301078552,11.389999389648438,11.559999465942383,10.869999885559082,11.139999389648438,9.248784520188904,9.38682614954029,8.826540128472919,9.045782215188904,9.126983253347756,0.10971187794402616,-11.199999809265137,33.875,0.0,0.0,0.0,0.0,0.0,snow/ice covered,0.242494344711304,-8.38456726074219,100.0,481.855499267578
arenacam6_1769615974729087295.png,1769615974729087295,1769615974.729087,42.3010979689082,-83.69745031421664,239.1183624267578,0.7076258812242912,0.7064773226671124,0.009633031323105301,0.007912615634691837,-0.00538,-0.019910000000000004,-0.023610000000000006,2.1814,0.1757,-9.8078,3.7573171905263325,8.404893116175975,12.329999923706055,12.109999656677246,11.109999656677246,11.139999389648438,10.012073620648613,9.833431375418758,9.021422155418758,9.045782215188904,9.478177341668758,0.12769754601960975,-13.199999809265137,33.70000076293945,0.0,0.0,0.0,0.0,0.0,snow/ice covered,0.242494344711304,-8.38456726074219,100.0,481.855499267578
arenacam6_1769615974750053655.png,1769615974750053655,1769615974.7500536,42.3010993290435,-83.69745034180798,239.12213134765625,0.7074168407331065,0.706685930959981,0.009643469297872015,0.007963160824491033,0.008050000000000002,0.0029200000000000007,-0.020760000000000004,1.5022,0.9685,-9.132,3.801844238132219,8.504497450047486,12.59000015258789,12.729999542236328,11.279999732971191,11.329999923706055,10.223196203702775,10.336876998891679,9.159463784770146,9.200064400648614,9.729900347003303,0.144088807616607,-14.0,33.57500076293945,0.0,0.0,0.0,0.0,0.0,snow/ice covered,0.242494344711304,-8.38456726074219,100.0,481.855499267578
arenacam6_1769615974770532851.png,1769615974770532851,1769615974.7705328,42.301100711319144,-83.69745036799785,239.12564086914062,0.7071755573880473,0.7069292016460438,0.0096490625832673,0.007792976597927272,0.014920000000000001,0.010650000000000001,-0.013690000000000003,1.8262,0.9335,-9.3713,3.8593875414294403,8.633218366925172,12.84000015258789,12.880000114440918,11.519999504089355,11.359999656677246,10.426198508702774,10.458678846527082,9.354345811715985,9.224424460418758,9.86591190684115,0.1427849369174496,-14.800000190734863,33.650001525878906,0.0,0.0,0.0,0.0,0.0,snow/ice covered,0.242494344711304,-8.38456726074219,100.0,481.855499267578
arenacam6_1769615974791492791.png,1769615974791492791,1769615974.791493,42.301100711319144,-83.69745036799785,239.12564086914062,0.7070964956915593,0.7070099592154436,0.009587373356974793,0.007716581043919406,0.01959,0.00234,-0.02253,2.1041000000000003,0.0497,-10.075800000000001,3.880207693025208,8.67979179683581,13.199999809265137,12.779999732971191,11.670000076293945,11.489999771118164,10.718521549121533,10.377477614770147,9.476147659351389,9.329985751945838,9.975533143797225,0.14928253779471692,-15.600000381469727,33.72500228881836,0.0,0.0,0.0,0.0,0.0,snow/ice covered,0.242494344711304,-8.38456726074219,100.0,481.855499267578
arenacam6_1769615974811868537.png,1769615974811868537,1769615974.8118684,42.301102124538346,-83.69745038498357,239.12896728515625,-0.70686361718348,-0.7072462755351794,-0.009497609694201704,-0.007505188472008697,0.014880000000000003,0.006120000000000001,-0.024430000000000004,2.3261000000000003,-0.4178,-10.0935,3.9324731245345443,8.796706431196304,13.229999542236328,12.769999504089355,11.739999771118164,11.65999984741211,10.742881608891679,10.369357336715984,9.532988056945838,9.468027381297226,10.028313595962683,0.1400077602224685,-16.100000381469727,33.875,0.0,0.0,0.0,0.0,0.0,snow/ice covered,0.242494344711304,-8.38456726074219,100.0,481.855499267578
arenacam6_1769615974832786096.png,1769615974832786096,1769615974.832786,42.301102124538346,-83.69745038498357,239.12896728515625,-0.7067758335395938,-0.7073346972782075,-0.009414061520586957,-0.007544706518175628,0.005930000000000001,-0.017090000000000004,-0.026060000000000003,2.274,0.2106,-10.477400000000001,3.954989177723738,8.847073491217339,12.739999771118164,12.579999923706055,11.90999984741211,11.929999351501465,10.34499727694584,10.215075925648613,9.671029686297226,9.687269468013211,9.979593089226222,0.1280106465864851,-16.399999618530273,33.72500228881836,0.0,0.0,0.0,0.0,0.0,snow/ice covered,0.242494344711304,-8.38456726074219,100.0,481.855499267578
arenacam6_1769615974853407600.png,1769615974853407600,1769615974.8534074,42.30110356521563,-83.69745040588333,239.13319396972656,-0.7065638424431865,-0.7075496746775076,-0.009080539689630022,-0.00765102703030609,0.00839,-0.0313,-0.022940000000000002,1.9312,0.2659,-10.134,4.0130916921891595,8.97704532992562,12.09000015258789,12.34999942779541,12.09999942779541,12.269999504089355,9.817191593702775,10.028313402364597,9.825311097364597,9.963352726715986,9.908542205036989,0.10376430561246673,-16.5,33.85000228881836,0.0,0.0,0.0,0.0,0.0,snow/ice covered,0.242494344711304,-8.38456726074219,100.0,481.855499267578
arenacam6_1769615974874099214.png,1769615974874099214,1769615974.8740993,42.30110356521563,-83.69745040588333,239.13319396972656,-0.7064967827299419,-0.7076179068616273,-0.008938475214104912,-0.0077004897154426015,0.01314,-0.026850000000000002,-0.019510000000000003,1.6937,0.43860000000000005,-9.7658,4.029767187545039,9.014347412507,12.149999618530273,12.170000076293945,12.239999771118164,12.34000015258789,9.865911713243065,9.882152269351387,9.93899266694584,10.020193898702775,9.926812637060767,0.10122365855211687,-16.5,33.875,0.0,0.0,0.0,0.0,0.0,snow/ice covered,0.242494344711304,-8.38456726074219,100.0,481.855499267578
arenacam6_1769615974915123920.png,1769615974915123920,1769615974.915124,42.30110502795357,-83.69745043370617,239.13754272460938,-0.7062236055220603,-0.7078888171103298,-0.008539405944411655,-0.008289762341343758,-0.015390000000000003,-0.026520000000000005,-0.012790000000000001,2.419,-0.5616,-9.8786,4.12852121653725,9.235254250120835,12.229999542236328,12.389999389648438,12.420000076293945,12.539999961853027,9.930872388891677,10.060793740188904,10.085154574351387,10.182595587824308,10.06485407281407,0.08982966794686566,-16.399999618530273,33.70000076293945,0.0,0.0,0.0,0.0,0.0,snow/ice covered,0.242494344711304,-8.38456726074219,100.0,481.855499267578
arenacam6_1769615974936052755.png,1769615974936052755,1769615974.9360528,42.30110577563473,-83.69745045149283,239.13961791992188,-0.7061885792060444,-0.7079215965488816,-0.008485983127610043,-0.008525950327584948,-0.025740000000000006,-0.04091000000000001,-0.010150000000000001,1.9681000000000002,-0.2901,-9.685,4.14809569576402,9.279041185682368,12.420000076293945,12.559999465942383,12.369999885559082,13.00999927520752,10.085154574351387,10.198835369540292,10.04455395847292,10.564239363661825,10.223195816506607,0.10175131373283224,-16.399999618530273,33.625,0.0,0.0,0.0,0.0,0.0,snow/ice covered,0.242494344711304,-8.38456726074219,100.0,481.855499267578
arenacam6_1769615974956844212.png,1769615974956844212,1769615974.9568443,42.30110652140851,-83.69745046649705,239.14137268066406,-0.7061612355232676,-0.7079429496077233,-0.008501673661114118,-0.008989498869704907,-0.023820000000000004,-0.013380000000000003,-0.00253,1.5309000000000001,-0.2743,-9.068100000000001,4.1938640325730985,9.381422209024068,12.739999771118164,12.59999942779541,12.479999542236328,12.710000038146973,10.34499727694584,10.231315707364598,10.133874693891677,10.320637217175694,10.257706223844451,0.09340630826501746,-16.399999618530273,33.79999923706055,0.0,0.0,0.0,0.0,0.0,snow/ice covered,0.242494344711304,-8.38456726074219,100.0,481.855499267578
arenacam6_1769615974977294554.png,1769615974977294554,1769615974.9772947,42.30110727586932,-83.69745048997807,239.1432647705078,-0.7061599772279542,-0.7079418275051839,-0.008565462051925762,-0.009115277827491585,-0.026750000000000003,-0.00885,-0.00020000000000000004,1.6465,-0.1086,-9.2627,4.210368333081143,9.418341339002533,12.9399995803833,12.819999694824219,12.40999984741211,12.139999389648438,10.507398966067372,10.409957952594452,10.077034296297228,9.857791435188904,10.213045662536988,0.08437837352990014,-16.5,33.650001525878906,0.0,0.0,0.0,0.0,0.0,snow/ice covered,0.242494344711304,-8.38456726074219,100.0,481.855499267578
arenacam6_1769615974998489333.png,1769615974998489333,1769615974.9984894,42.301108805639316,-83.69745053182558,239.1458740234375,-0.7062335864843364,-0.7078616285492518,-0.008798486325127398,-0.009413967678874488,-0.025760000000000005,0.00116,0.008600000000000002,1.7476,-0.2351,-9.537,4.26426515308933,9.538905291551645,13.289999961853027,13.059999465942383,12.469999313354492,12.59000015258789,10.791602502824306,10.60483997954029,10.125754415837518,10.223196203702775,10.436348275476224,0.09408238749570356,-16.600000381469727,33.95000076293945,0.0,0.0,0.0,0.0,0.0,snow/ice covered,0.242494344711304,-8.38456726074219,100.0,481.855499267578
arenacam6_1769615975018781715.png,1769615975018781715,1769615975.0187817,42.301108805639316,-83.69745053182558,239.1458740234375,-0.7063667749967778,-0.707725057037057,-0.009013480451726195,-0.009485778444179685,-0.018090000000000002,0.014760000000000002,0.019400000000000004,1.6484,0.5617,-9.516300000000001,4.294942694405917,9.607529110824371,13.429999351501465,13.119999885559082,12.559999465942383,12.59000015258789,10.905283298013211,10.65356087347292,10.198835369540292,10.223196203702775,10.4952189361823,0.09239522619377832,-16.700000762939453,33.79999923706055,0.0,0.0,0.0,0.0,0.0,snow/ice covered,0.242494344711304,-8.38456726074219,100.0,481.855499267578
arenacam6_1769615975039720078.png,1769615975039720078,1769615975.0397203,42.301110363740115,-83.69745057581103,239.1487274169922,-0.7064785186100251,-0.7076123368467168,-0.009125804200112782,-0.009465895763953616,-0.00035000000000000005,0.008260000000000002,0.015950000000000002,1.9295,0.9311,-9.9456,4.334106997491742,9.695137306969178,13.380000114440918,13.319999694824219,12.819999694824219,12.779999732971191,10.86468345652708,10.815962562594452,10.409957952594452,10.377477614770147,10.617020396621534,0.09508716178673164,-16.700000762939453,34.07500076293945,0.0,0.0,0.0,0.0,0.0,snow/ice covered,0.242494344711304,-8.38456726074219,100.0,481.855499267578
arenacam6_1769615975060049164.png,1769615975060049164,1769615975.060049,42.301110363740115,-83.69745057581103,239.1487274169922,-0.7066105998973465,-0.7074807236896008,-0.009139223042699585,-0.00943187799573133,-0.0027300000000000007,-0.005390000000000001,0.019340000000000003,1.9965000000000002,0.0684,-10.582500000000001,4.377580603267207,9.792385154672546,13.269999504089355,13.489999771118164,12.899999618530273,13.079999923706055,10.775361946715984,10.954004191945838,10.474918628243065,10.621080535648614,10.706341325638377,0.09333335612618608,-16.700000762939453,33.875,0.0,0.0,0.0,0.0,0.0,snow/ice covered,0.242494344711304,-8.38456726074219,100.0,481.855499267578
arenacam6_1769615975081202748.png,1769615975081202748,1769615975.0812027,42.301111941921285,-83.69745061765508,239.15220642089844,-0.7067825229404456,-0.7073112459501588,-0.009016721579971002,-0.009378984503744015,0.020950000000000003,-0.009320000000000002,0.02116,1.5452000000000001,0.8604,-10.8429,4.411606537980186,9.868499129069397,13.229999542236328,13.299999237060547,13.09000015258789,13.00999927520752,10.742881608891679,10.799722006486132,10.629200813702774,10.564239363661825,10.684010948185602,0.08263787719390599,-16.700000762939453,33.79999923706055,0.0,0.0,0.0,0.0,0.0,snow/ice covered,0.242494344711304,-8.38456726074219,100.0,481.855499267578
arenacam6_1769615975102275376.png,1769615975102275376,1769615975.1022754,42.301111941921285,-83.69745061765508,239.15220642089844,-0.7069197082256756,-0.7071765813252513,-0.00887596667860251,-0.00932878141967623,0.008100000000000001,-0.011880000000000002,0.01818,2.189,0.11460000000000001,-10.707,4.451749756949366,9.958297101310315,13.229999542236328,13.079999923706055,13.269999504089355,13.15999984741211,10.742881608891679,10.621080535648614,10.775361946715984,10.686041211297226,10.706341325638377,0.07511768495334752,-16.600000381469727,33.79999923706055,0.0,0.0,0.0,0.0,0.0,snow/ice covered,0.242494344711304,-8.38456726074219,100.0,481.855499267578
arenacam6_1769615975122241747.png,1769615975122241747,1769615975.1222417,42.30111355166234,-83.69745064952991,239.15682983398438,0.7071521729850646,0.7069457354491944,0.008644491009544463,0.00942359527383447,0.00676,-0.017910000000000002,0.018430000000000005,1.49,0.5729000000000001,-10.2699,4.502723308271805,10.072321877205532,13.239999771118164,13.15999984741211,13.239999771118164,13.559999465942383,10.751001886945838,10.686041211297226,10.751001886945838,11.01084458954029,10.799722393682298,0.07221775925597969,-16.399999618530273,33.85000228881836,0.0,0.0,0.0,0.0,0.0,snow/ice covered,0.242494344711304,-8.38456726074219,100.0,481.855499267578
arenacam6_1769615975143530968.png,1769615975143530968,1769615975.143531,42.30111436587725,-83.69745066986337,239.15953063964844,0.7072117424763789,0.7068863971020917,0.008609399621852833,0.009436690823543615,0.003110000000000001,-0.007100000000000001,0.01665,1.9053,0.13290000000000002,-10.1277,4.521895559328225,10.115209052483682,13.399999618530273,13.529999732971191,13.460000038146973,13.4399995803833,10.880923238243065,10.986484529770147,10.929644132175694,10.91340357606737,10.927613869064068,0.0803151781011297,-16.200000762939453,33.42499923706055,0.0,0.0,0.0,0.0,0.0,snow/ice covered,0.242494344711304,-8.38456726074219,100.0,481.855499267578
arenacam6_1769615975163715137.png,1769615975163715137,1769615975.1637151,42.30111519016887,-83.69745068292997,239.16195678710938,0.7074283331005442,0.7066711267419737,0.008361787652375068,0.009547390380167841,0.011680000000000003,-0.014510000000000002,0.016450000000000003,1.6461000000000001,0.5933,-9.347900000000001,4.576892563475595,10.238234050941099,13.6899995803833,13.649999618530273,13.5,13.219999313354492,11.11640588106737,11.083925543243065,10.962124470000001,10.734761330837516,10.974304306286987,0.07189425946735693,-15.90000057220459,33.75,0.0,0.0,0.0,0.0,0.0,snow/ice covered,0.242494344711304,-8.38456726074219,100.0,481.855499267578
arenacam6_1769615975184499798.png,1769615975184499798,1769615975.1844997,42.301116014752814,-83.69745070234299,239.16436767578125,0.7074793883520708,0.7066207448032684,0.008314088983786065,0.00953488306292766,0.008570000000000001,-0.0051,0.014260000000000002,1.6849,0.0946,-9.265500000000001,4.5938824219881695,10.276239345042217,14.210000038146973,13.779999732971191,13.5,13.59999942779541,11.538651047175694,11.189486834770145,10.962124470000001,11.043324927364598,11.18339681982761,0.08827718432064859,-15.5,33.650001525878906,0.0,0.0,0.0,0.0,0.0,snow/ice covered,0.242494344711304,-8.38456726074219,100.0,481.855499267578
arenacam6_1769615975205504089.png,1769615975205504089,1769615975.205504,42.30111684734553,-83.69745071942572,239.16696166992188,0.7077143039028826,0.7063879115820345,0.00816214193810261,0.009484822666348982,0.013850000000000001,-0.003980000000000001,0.025580000000000002,1.834,0.3795,-10.0565,4.64461177546202,10.389717865002012,14.279999732971191,13.9399995803833,13.59000015258789,13.869999885559082,11.595491444770145,11.319408186067372,11.035205423702774,11.26256778847292,11.303168210753302,0.08791868630314467,-15.199999809265137,33.775001525878906,0.0,0.0,0.0,0.0,0.0,snow/ice covered,0.242494344711304,-8.38456726074219,100.0,481.855499267578
arenacam6_1769615975225625749.png,1769615975225625749,1769615975.2256258,42.30111768836461,-83.69745073687649,239.16921997070312,0.7079016018337518,0.7062020543288726,0.00810318571724799,0.009397816986942913,0.009150000000000002,0.006,0.026360000000000005,1.339,-0.1802,-9.6205,4.673470658024874,10.45427345376216,14.139999389648438,14.059999465942383,13.75999927520752,13.84000015258789,11.481809875188905,11.416849199540291,11.173246278661823,11.238207728702776,11.327528270523448,0.08353089486548973,-14.699999809265137,33.92499923706055,0.0,0.0,0.0,0.0,0.0,snow/ice covered,0.242494344711304,-8.38456726074219,100.0,481.855499267578
arenacam6_1769615975246419381.png,1769615975246419381,1769615975.2464194,42.30111768836461,-83.69745073687649,239.16921997070312,0.7079975219971619,0.7061059596016147,0.008147228779435635,0.009354428051837449,3e-05,0.012050000000000002,0.027330000000000004,1.7967000000000002,-0.307,-9.4603,4.691655842543887,10.494952620420124,14.25999927520752,14.309999465942383,14.0,13.869999885559082,11.579250888661823,11.619851504540291,11.368129080000001,11.26256778847292,11.457449815418759,0.09171048501218533,-13.800000190734863,33.54999923706055,0.0,0.0,0.0,0.0,0.0,snow/ice covered,0.242494344711304,-8.38456726074219,100.0,481.855499267578
arenacam6_1769615975267776215.png,1769615975267776215,1769615975.2677763,42.30111938218136,-83.69745077459714,239.17404174804688,0.7083415986980318,0.7057581074844268,0.00827648571830064,0.009443148737118646,-0.00979,-0.0038100000000000005,0.03463,1.7094,0.4137,-10.416500000000001,4.748446448247184,10.621989797942057,14.299999237060547,14.380000114440918,14.149999618530273,14.109999656677246,11.61173122648613,11.67669267652708,11.489930153243066,11.457449815418759,11.558950967918758,0.08820957163395428,-13.199999809265137,33.67499923706055,0.0,0.0,0.0,0.0,0.0,snow/ice covered,0.242494344711304,-8.38456726074219,100.0,481.855499267578
arenacam6_1769615975288037312.png,1769615975288037312,1769615975.2880373,42.30111938218136,-83.69745077459714,239.17404174804688,0.7084486128946857,0.7056496544842707,0.008311015398438428,0.009489733235021442,-0.011250000000000001,-0.00229,0.031630000000000005,1.3946,0.2243,-10.2635,4.7625049930513645,10.65343791915632,14.40999984741211,14.469999313354492,14.139999389648438,14.119999885559082,11.701052736297227,11.749772855837517,11.481809875188905,11.46557009347292,11.599551390199142,0.08880827749900182,-12.5,33.85000228881836,0.0,0.0,0.0,0.0,0.0,snow/ice covered,0.242494344711304,-8.38456726074219,100.0,481.855499267578
arenacam6_1769615975308869812.png,1769615975308869812,1769615975.3088698,42.30112110455732,-83.69745081552959,239.17860412597656,0.7088057254621413,0.7052878207822337,0.008461865104617864,0.00958802624559927,-0.00928,0.0033300000000000005,0.03509,1.9404000000000001,0.003,-9.0478,4.817810179526123,10.777152302989165,14.569999694824219,14.589999198913574,14.069999694824219,14.329999923706055,11.830974087594452,11.847213869310437,11.424969477594452,11.636092060648613,11.684812373786988,0.08422077050410365,-11.800000190734863,33.67499923706055,0.0,0.0,0.0,0.0,0.0,snow/ice covered,0.242494344711304,-8.38456726074219,100.0,481.855499267578
arenacam6_1769615975329282322.png,1769615975329282322,1769615975.3292823,42.30112285312645,-83.69745085637732,239.18247985839844,0.7091609089563082,0.7049293607743236,0.00852160222963278,0.009632435933131529,0.0013900000000000002,0.00305,0.034710000000000005,1.461,0.057100000000000005,-9.2798,4.868139564040769,10.88973611638536,14.699999809265137,14.649999618530273,14.199999809265137,14.09999942779541,11.936535379121532,11.895934763243066,11.530530769121533,11.449329537364598,11.703082612212683,0.07468927503243285,-11.100000381469727,33.75,0.0,0.0,0.0,0.0,0.0,snow/ice covered,0.242494344711304,-8.38456726074219,100.0,481.855499267578
arenacam6_1769615975350351052.png,1769615975350351052,1769615975.350351,42.30112285312645,-83.69745085637732,239.18247985839844,0.7092864770026744,0.7048030738007245,0.008552877005586833,0.009600468588161071,0.00021000000000000004,0.0085,0.03571,1.5058,0.2776,-9.0248,4.883321991285621,10.923698295186458,14.75,14.809999465942383,14.359999656677246,14.380000114440918,11.977135995,12.025856114540291,11.66045212041876,11.67669267652708,11.835034226621534,0.08342741687004092,-10.40000057220459,33.67499923706055,0.0,0.0,0.0,0.0,0.0,snow/ice covered,0.242494344711304,-8.38456726074219,100.0,481.855499267578
arenacam6_1769615975370436622.png,1769615975370436622,1769615975.3704367,42.3011237344234,-83.69745087592044,239.18397521972656,0.7095383414789498,0.7045504037320379,0.00861744013892302,0.009476829521273916,0.004710000000000001,0.0070100000000000015,0.03486,1.9725000000000001,0.4601,-9.110800000000001,4.922907185218775,11.012247998903288,14.739999771118164,14.699999809265137,14.519999504089355,14.519999504089355,11.96901571694584,11.936535379121532,11.790373471715984,11.790373471715984,11.871574509874833,0.07803370493083028,-9.800000190734863,33.900001525878906,0.0,0.0,0.0,0.0,0.0,snow/ice covered,0.242494344711304,-8.38456726074219,100.0,481.855499267578
arenacam6_1769615975391414215.png,1769615975391414215,1769615975.3914142,42.30112462304577,-83.6974508932173,239.185546875,0.709809399893441,0.7042809038899349,0.008541087527319876,0.00927761083146629,0.026510000000000006,0.008660000000000001,0.039580000000000004,1.6893,1.04,-9.7623,4.958566194634891,11.092015063426572,14.84999942779541,14.739999771118164,14.739999771118164,14.899999618530273,12.058336452364598,11.96901571694584,11.96901571694584,12.098937068243064,12.023826238624835,0.08400738457980468,-9.199999809265137,33.875,0.0,0.0,0.0,0.0,0.0,snow/ice covered,0.242494344711304,-8.38456726074219,100.0,481.855499267578
arenacam6_1769615975412461367.png,1769615975412461367,1769615975.4124613,42.301125522020314,-83.69745090959022,239.1868438720703,0.7100296462514808,0.7040638460021201,0.008435161254836556,0.00899167677937511,0.02142,0.011160000000000002,0.029050000000000006,2.1029,-0.1014,-10.2665,4.9950880255192045,11.17371220780493,14.90999984741211,14.799999237060547,14.889999389648438,14.84999942779541,12.107057346297227,12.01773583648613,12.090816790188905,12.058336452364598,12.068486606334215,0.08007852555073657,-8.600000381469727,33.85000228881836,0.0,0.0,0.0,0.0,0.0,snow/ice covered,0.242494344711304,-8.38456726074219,100.0,481.855499267578
arenacam6_1769615975432520637.png,1769615975432520637,1769615975.4325206,42.3011264220578,-83.69745092397773,239.18836975097656,0.7103673379203946,0.7037304599298393,0.008062920671308295,0.008756385845610134,0.03654000000000001,-0.009130000000000001,0.029010000000000005,1.9181000000000001,0.6826,-10.8521,5.033300604128519,11.25919145339925,14.9399995803833,14.809999465942383,15.139999389648438,14.639999389648438,12.131417406067373,12.025856114540291,12.293819095188905,11.887814485188905,12.084726775246368,0.07332101290433975,-8.199999809265137,33.82500076293945,0.0,0.0,0.0,0.0,0.0,snow/ice covered,0.242494344711304,-8.38456726074219,100.0,481.855499267578
arenacam6_1769615975453535065.png,1769615975453535065,1769615975.453535,42.30112733107685,-83.69745093775943,239.1903533935547,0.7104675071153695,0.7036320404016501,0.00790756613549597,0.008680060558294905,0.032810000000000006,-0.01165,0.027860000000000003,1.7663,0.5967,-10.2804,5.070283213530483,11.341919331674879,15.059999465942383,14.880000114440918,14.989999771118164,15.00999927520752,12.228858419540291,12.082697286527083,12.172018021945838,12.188257803661823,12.16795788291876,0.07283057894240012,-7.700000286102295,33.95000076293945,0.0,0.0,0.0,0.0,0.0,snow/ice covered,0.242494344711304,-8.38456726074219,100.0,481.855499267578
arenacam6_1769615975474087711.png,1769615975474087711,1769615975.4740877,42.30112824895769,-83.69745095204313,239.1922149658203,0.7107452007628895,0.7033573570023222,0.007617532301075266,0.00846529059573039,0.00979,-0.004750000000000001,0.027960000000000002,1.7214,0.3027,-8.7447,5.118286246699849,11.449299236692761,15.1899995803833,15.059999465942383,14.90999984741211,14.809999465942383,12.33441971106737,12.228858419540291,12.107057346297227,12.025856114540291,12.174047897861294,0.06330070043464807,-7.200000286102295,33.82500076293945,0.0,0.0,0.0,0.0,0.0,snow/ice covered,0.242494344711304,-8.38456726074219,100.0,481.855499267578
arenacam6_1769615975494951207.png,1769615975494951207,1769615975.4949512,42.301129168174135,-83.69745096267405,239.19407653808594,0.7108430066100702,0.7032596837753328,0.007577813805053441,0.008403205799627451,0.014760000000000002,0.0025000000000000005,0.029100000000000004,1.4842,1.3613,-8.5065,5.133099502786244,11.482435601762662,15.389999389648438,15.119999885559082,14.949999809265137,14.960000038146973,12.496821400188903,12.27757931347292,12.139537684121532,12.147657962175694,12.265399089989762,0.06818792766465923,-6.900000095367432,33.5,0.0,0.0,0.0,0.0,0.0,snow/ice covered,0.242494344711304,-8.38456726074219,100.0,481.855499267578
arenacam6_1769615975515311418.png,1769615975515311418,1769615975.5153112,42.30113009493918,-83.69745097330983,239.1954803466797,0.7110362755693376,0.7030679358467614,0.007556343040514595,0.008111355528716295,0.00131,0.015200000000000002,0.016690000000000003,1.3727,-0.3156,-8.8881,5.179703630391993,11.586686238969065,15.489999771118164,15.229999542236328,14.989999771118164,15.059999465942383,12.578022631945839,12.36690004889168,12.172018021945838,12.228858419540291,12.33644978058091,0.06470905711507001,-6.599999904632568,33.875,0.0,0.0,0.0,0.0,0.0,snow/ice covered,0.242494344711304,-8.38456726074219,100.0,481.855499267578
arenacam6_1769615975536522352.png,1769615975536522352,1769615975.5365222,42.30113102941158,-83.69745098440325,239.19613647460938,0.7111095796409979,0.702993403132132,0.007674747210841847,0.008033626251992726,-0.005600000000000001,0.027500000000000004,0.021230000000000002,1.3469,0.10590000000000001,-9.0821,5.193189911982999,11.61685424171125,15.539999961853027,15.519999504089355,15.089999198913574,15.229999542236328,12.618623247824306,12.602382691715986,12.253218479310437,12.36690004889168,12.460281116935601,0.07260372366522072,-6.200000286102295,33.97500228881836,0.0,0.0,0.0,0.0,0.0,snow/ice covered,0.242494344711304,-8.38456726074219,100.0,481.855499267578
arenacam6_1769615975559315908.png,1769615975559315908,1769615975.559316,42.301132909597726,-83.69745100058644,239.19764709472656,0.7112942742818842,0.7028038054373614,0.008152074048298673,0.007798084718827742,-0.012800000000000002,0.032380000000000006,0.01642,1.7815,0.5127,-9.852400000000001,5.245789308024323,11.73451593469193,15.569999694824219,15.619999885559082,15.339999198913574,15.34999942779541,12.642983307594454,12.68358392347292,12.456220784310437,12.464341062364598,12.561782269435602,0.07049854798849793,-6.0,34.04999923706055,0.0,0.0,0.0,0.0,0.0,snow/ice covered,0.242494344711304,-8.38456726074219,100.0,481.855499267578
arenacam6_1769615975577520244.png,1769615975577520244,1769615975.5775201,42.301132909597726,-83.69745100058644,239.19764709472656,0.7113389878532399,0.7027567210092199,0.008345210398000702,0.007758408323285491,-0.021460000000000003,0.032900000000000006,0.013360000000000002,1.8473000000000002,-0.22740000000000002,-10.233,5.264138462523638,11.775561892357628,15.630000114440918,15.789999961853027,15.369999885559082,15.399999618530273,12.691704201527081,12.821625552824306,12.480581618472918,12.504941678243066,12.624713262766843,0.07211132497722396,-5.900000095367432,34.07500076293945,0.0,0.0,0.0,0.0,0.0,snow/ice covered,0.242494344711304,-8.38456726074219,100.0,481.855499267578
arenacam6_1769615975598148104.png,1769615975598148104,1769615975.598148,42.30113386296268,-83.69745101313461,239.19859313964844,0.7114829573186959,0.7025993218289392,0.009158007788686183,0.00789463766741473,-0.04889,0.03125000000000001,0.016290000000000002,1.8397000000000001,0.6058,-10.679400000000001,5.316165441286755,11.891943122231995,15.619999885559082,15.679999351501465,15.449999809265137,15.429999351501465,12.68358392347292,12.732304043013212,12.545542294121534,12.529301738013212,12.622682999655218,0.06144831588179269,-5.800000190734863,33.97500228881836,0.0,0.0,0.0,0.0,0.0,snow/ice covered,0.242494344711304,-8.38456726074219,100.0,481.855499267578
arenacam6_1769615975618825539.png,1769615975618825539,1769615975.6188254,42.301134817512974,-83.6974510209341,239.19956970214844,0.7115222135033661,0.7025557036241102,0.009389732585292104,0.007965922324410065,-0.04244000000000001,0.02263,0.013060000000000002,1.8204,0.9571000000000001,-10.7345,5.334073677025496,11.932002771085415,15.869999885559082,15.75,15.579999923706055,15.549999237060547,12.88658622847292,12.789145215000001,12.651103585648613,12.62674275148613,12.738394445151915,0.06758225668708466,-5.599999904632568,34.10000228881836,0.0,0.0,0.0,0.0,0.0,snow/ice covered,0.242494344711304,-8.38456726074219,100.0,481.855499267578
arenacam6_1769615975639636751.png,1769615975639636751,1769615975.6396368,42.30113675285514,-83.69745104163306,239.203125,0.7116077868074705,0.7024577779737677,0.01006361142812845,0.008133366102313444,-0.04501000000000001,0.022690000000000002,0.011790000000000002,1.8798000000000001,0.1342,-10.6149,5.385658210281294,12.047394276906639,15.899999618530273,15.839999198913574,15.609999656677246,15.670000076293945,12.910946288243066,12.862225394310435,12.675463645418759,12.724184539351388,12.793204966830913,0.06190639011075626,-5.5,33.95000076293945,0.0,0.0,0.0,0.0,0.0,snow/ice covered,0.242494344711304,-8.38456726074219,100.0,481.855499267578
arenacam6_1769615975660409529.png,1769615975660409529,1769615975.6604097,42.30113675285514,-83.69745104163306,239.203125,0.7116745056341569,0.7023850605100826,0.010341505662943186,0.008226667809574383,-0.015340000000000003,0.010090000000000002,0.007970000000000001,2.0106,1.4978,-10.375,5.425878572534812,12.137364814046023,16.020000457763672,15.989999771118164,15.6899995803833,15.699999809265137,13.008388076108323,12.98402724194584,12.74042432106737,12.748544599121534,12.870346059560767,0.06039047657746081,-5.099999904632568,34.07500076293945,0.0,0.0,0.0,0.0,0.0,snow/ice covered,0.242494344711304,-8.38456726074219,100.0,481.855499267578
arenacam6_1769615975680959934.png,1769615975680959934,1769615975.68096,42.30113870835934,-83.69745105544101,239.2075958251953,0.7116919414907908,0.7023688288572565,0.010332152367770962,0.008115127491516674,0.012550000000000002,0.008090000000000002,0.00204,1.6183,-0.0188,-10.4144,5.458285002160503,12.209856052732917,16.15999984741211,16.029998779296875,15.679999351501465,15.789999961853027,13.122068871297225,13.016506805377809,12.732304043013212,12.821625552824306,12.923126318128139,0.058417581854748525,-4.700000286102295,34.150001525878906,0.0,0.0,0.0,0.0,0.0,snow/ice covered,0.242494344711304,-8.38456726074219,100.0,481.855499267578
arenacam6_1769615975702028842.png,1769615975702028842,1769615975.7020288,42.30113870835934,-83.69745105544101,239.2075958251953,0.7117457874233958,0.7023158881302243,0.01030182817374348,0.008012471602656742,0.0076500000000000005,0.0016700000000000003,0.01152,2.0746,0.4031,-10.4586,5.49747690702899,12.297525992409431,16.5,16.06999969482422,15.989999771118164,15.929999351501465,13.39815213,13.048987917594452,12.98402724194584,12.93530634801321,13.091618409388374,0.06457334731140973,-4.099999904632568,34.17499923706055,0.0,0.0,0.0,0.0,0.0,snow/ice covered,0.242494344711304,-8.38456726074219,100.0,481.855499267578
arenacam6_1769615975722323568.png,1769615975722323568,1769615975.7223234,42.301140692703875,-83.69745106676253,239.21304321289062,0.7117945445775581,0.7022723038341079,0.010017374501696572,0.007860647890206225,0.022570000000000003,-0.009120000000000001,0.00022000000000000003,1.8451000000000002,0.046900000000000004,-10.174900000000001,5.549820539395907,12.414615557396282,16.440000534057617,16.329999923706055,16.06999969482422,16.119998931884766,13.34943201045971,13.260110500648613,13.048987917594452,13.089587759080583,13.18702954694584,0.062218115895612755,-3.299999952316284,33.75,0.0,0.0,0.0,0.0,0.0,snow/ice covered,0.242494344711304,-8.38456726074219,100.0,481.855499267578
arenacam6_1769615975743632589.png,1769615975743632589,1769615975.7436326,42.301140692703875,-83.69745106676253,239.21304321289062,0.7118102300249093,0.702258204456915,0.009932364400394796,0.007807614376568369,0.019550000000000005,-0.00468,0.00408,1.6351,0.017,-9.822600000000001,5.565881564129836,12.450543106064597,16.43000030517578,16.389999389648438,16.28999900817871,16.139999389648438,13.341311732405547,13.308830620188905,13.22762938843197,13.105828315188905,13.24590001405383,0.06388130230253326,-2.700000047683716,34.04999923706055,0.0,0.0,0.0,0.0,0.0,snow/ice covered,0.242494344711304,-8.38456726074219,100.0,481.855499267578
arenacam6_1769615975763786568.png,1769615975763786568,1769615975.7637866,42.30114270412876,-83.6974510714482,239.2191619873047,0.7118546397640971,0.7022158467509272,0.0097798281839773,0.007760887764791568,0.01327,-0.009400000000000002,0.0055000000000000005,1.6476000000000002,0.767,-10.0619,5.598534055559464,12.523584770243188,16.479999542236328,16.619998931884766,16.329999923706055,16.239999771118164,13.381911573891678,13.495592369080581,13.260110500648613,13.18702954694584,13.331160997641678,0.06448443015432302,-2.0,34.125,0.0,0.0,0.0,0.0,0.0,snow/ice covered,0.242494344711304,-8.38456726074219,100.0,481.855499267578
arenacam6_1769615975784596765.png,1769615975784596765,1769615975.7845967,42.30114371514438,-83.69745107618878,239.22238159179688,0.7118614589162613,0.702213461038185,0.009486285812626344,0.007715492717047028,0.013010000000000002,-0.015080000000000001,0.0019100000000000002,1.6324,0.1612,-10.5836,5.648515418527955,12.635390080321924,16.809999465942383,16.60999870300293,16.350000381469727,16.420000076293945,13.649874554540292,13.487472091026422,13.276351056756935,13.333191454351388,13.43672228916876,0.06341966522227219,-1.3000000715255737,34.22500228881836,0.0,0.0,0.0,0.0,0.0,snow/ice covered,0.242494344711304,-8.38456726074219,100.0,481.855499267578
arenacam6_1769615975805237180.png,1769615975805237180,1769615975.8052373,42.30114371514438,-83.69745107618878,239.22238159179688,0.7118612759591091,0.7022147152454825,0.009392837974221722,0.0077325336963490875,0.010700000000000001,-0.015760000000000003,-0.0003800000000000001,1.5691000000000002,0.1337,-10.099400000000001,5.663983573231741,12.669991414305011,17.029998779296875,16.709999084472656,16.459999084472656,16.469999313354492,13.828516025377809,13.568673322783358,13.365671017783358,13.373791295837517,13.53416291544551,0.06820616312058497,-0.9000000357627869,34.625,0.0,0.0,0.0,0.0,0.0,snow/ice covered,0.242494344711304,-8.38456726074219,100.0,481.855499267578
arenacam6_1769615975825776407.png,1769615975825776407,1769615975.8257763,42.30114679074317,-83.6974510798422,239.23275756835938,0.7118436503611801,0.7022338100916978,0.009241230312330703,0.0078034009817191646,0.00445,-0.019290000000000005,-0.0035300000000000006,1.7404000000000002,0.5323,-9.5868,5.698871680877165,12.748034017821366,17.139999389648438,16.690000534057617,16.559999465942383,16.549999237060547,13.917837535188903,13.55243431545971,13.446872249540291,13.43875197148613,13.588974017918758,0.0659662500838783,-0.6000000238418579,34.72500228881836,0.0,0.0,0.0,0.0,0.0,snow/ice covered,0.242494344711304,-8.38456726074219,100.0,481.855499267578
arenacam6_1769615975846421944.png,1769615975846421944,1769615975.846422,42.30114679074317,-83.6974510798422,239.23275756835938,0.7118014992247957,0.7022788501047645,0.009007211733556114,0.007868451794956412,0.00354,-0.011660000000000002,-0.0039700000000000004,1.4718,-0.08950000000000001,-9.2828,5.743086326980933,12.84693952827673,17.219999313354492,16.85999870300293,16.760000228881836,16.649999618530273,13.982798210837517,13.690474396026422,13.609274713054162,13.519953203243064,13.700625130790291,0.0664505036888014,-0.6000000238418579,35.22500228881836,0.0,0.0,0.0,0.0,0.0,snow/ice covered,0.242494344711304,-8.38456726074219,100.0,481.855499267578
arenacam6_1769615975867372431.png,1769615975867372431,1769615975.8673725,42.3011478274542,-83.69745107814606,239.23609924316406,0.7117788198129725,0.7023022765497051,0.008928638199499522,0.007918550287504227,0.0036200000000000004,-0.011280000000000002,-0.003940000000000001,1.7581,0.673,-9.6378,5.777411853208009,12.923723670915125,17.139999389648438,16.84000015258789,16.84000015258789,16.770000457763672,13.917837535188903,13.674235388702774,13.674235388702774,13.617394991108322,13.720925825925693,0.06168517490084332,-0.699999988079071,35.67499923706055,0.0,0.0,0.0,0.0,0.0,snow/ice covered,0.242494344711304,-8.38456726074219,100.0,481.855499267578
arenacam6_1769615975887960379.png,1769615975887960379,1769615975.8879604,42.3011478274542,-83.69745107814606,239.23609924316406,0.7117473844486581,0.7023349438278047,0.00885039691994244,0.007934600383631188,0.00892,-0.013540000000000002,-0.00854,1.9618,0.5469,-9.8267,5.796740157199732,12.96695992724637,16.959999084472656,17.020000457763672,16.920000076293945,16.940000534057617,13.771675627783356,13.820397296108322,13.739196064351386,13.75543662045971,13.771676402175695,0.062058992967074955,-0.9000000357627869,36.04999923706055,0.0,0.0,0.0,0.0,0.0,snow/ice covered,0.242494344711304,-8.38456726074219,100.0,481.855499267578
arenacam6_1769615975908466989.png,1769615975908466989,1769615975.908467,42.30115097258824,-83.69745107466845,239.2451629638672,0.7116138369048074,0.7024729047925129,0.008544010854002472,0.008035237178443086,0.0049700000000000005,-0.01043,-0.011940000000000001,1.7187000000000001,0.5507000000000001,-9.177800000000001,5.858570973800458,13.105271754133199,16.809999465942383,17.010000228881836,17.0,16.940000534057617,13.649874554540292,13.812277018054163,13.80415674,13.75543662045971,13.755436233263541,0.04961091164899278,-0.9000000357627869,36.57500076293945,0.0,0.0,0.0,0.0,0.0,snow/ice covered,0.242494344711304,-8.38456726074219,100.0,481.855499267578
arenacam6_1769615975929312051.png,1769615975929312051,1769615975.929312,42.30115097258824,-83.69745107466845,239.2451629638672,0.711567781257529,0.7025204129339396,0.008470270764389339,0.0080384451570084,0.00992,-0.010720000000000002,-0.013430000000000003,1.5731000000000002,0.7977000000000001,-9.209100000000001,5.874234765325964,13.140310715948262,17.029998779296875,17.239999771118164,16.989999771118164,16.989999771118164,13.828516025377809,13.999038766945839,13.796036461945839,13.796036461945839,13.854906929053831,0.05438198750036183,-0.9000000357627869,36.900001525878906,0.0,0.0,0.0,0.0,0.0,snow/ice covered,0.242494344711304,-8.38456726074219,100.0,481.855499267578
arenacam6_1769615975949880706.png,1769615975949880706,1769615975.9498808,42.30115203437928,-83.69745107672816,239.24742126464844,0.7114620261527607,0.7026305062909305,0.00830873495074003,0.00794492891580941,0.016510000000000004,-0.00237,-0.015680000000000003,1.3076,-0.24810000000000001,-9.146700000000001,5.901673831117523,13.201690259780033,17.479999542236328,17.219999313354492,17.0,17.029998779296875,14.193920793891678,13.982798210837517,13.80415674,13.828516025377809,13.95234794252675,0.05686072525376943,-1.100000023841858,37.29999923706055,0.0,0.0,0.0,0.0,0.0,snow/ice covered,0.242494344711304,-8.38456726074219,100.0,481.855499267578
arenacam6_1769615975971322735.png,1769615975971322735,1769615975.9713225,42.30115203437928,-83.69745107672816,239.24742126464844,0.7114165505343996,0.7026773234078392,0.008290822151689315,0.007895129016046339,0.009640000000000001,0.004570000000000001,-0.013040000000000001,1.2865,0.0814,-9.061200000000001,5.914467402687367,13.23030871176748,17.799999237060547,17.389999389648438,17.149999618530273,17.049999237060547,14.45376349648613,14.120839840188903,13.925957813243066,13.844756581486129,14.086329432851057,0.06470149259043398,-1.100000023841858,37.57500076293945,0.0,0.0,0.0,0.0,0.0,snow/ice covered,0.242494344711304,-8.38456726074219,100.0,481.855499267578
arenacam6_1769615975991964707.png,1769615975991964707,1769615975.9919646,42.30115416642666,-83.69745107362807,239.25167846679688,0.7112655834962597,0.702834653445197,0.00828223155255513,0.007491614699446743,0.026830000000000003,0.021630000000000003,-0.014620000000000001,1.5413000000000001,0.33640000000000003,-8.8614,5.957593118519155,13.32677835054024,18.799999237060547,17.59000015258789,17.31999969482422,17.15999984741211,15.26577271648613,14.283242303702774,14.06399944259445,13.934078091297227,14.386773138520144,0.07953871221523956,-1.2000000476837158,37.650001525878906,0.0,0.0,0.0,0.0,0.0,snow/ice covered,0.242494344711304,-8.38456726074219,100.0,481.855499267578
arenacam6_1769615976012205369.png,1769615976012205369,1769615976.0122054,42.301156319116835,-83.6974510732519,239.25437927246094,0.7111078809273919,0.7030014885211354,0.008309486282794005,0.00674101310918079,0.037200000000000004,0.04366000000000001,-0.015240000000000002,0.9616,0.3315,-9.625300000000001,5.989322682961775,13.397755482424513,19.40999984741211,17.889999389648438,17.40999984741211,17.25,15.761098836297226,14.526844450188904,14.137080396297227,14.007159045000002,14.608045681945839,0.09033529542385015,-1.5,37.82500076293945,0.0,0.0,0.0,0.0,0.0,snow/ice covered,0.242494344711304,-8.38456726074219,100.0,481.855499267578
arenacam6_1769615976032688704.png,1769615976032688704,1769615976.0326886,42.301156319116835,-83.6974510732519,239.25437927246094,0.7110452846084798,0.7030673492908427,0.008363292940356884,0.006400072529901597,0.04152000000000001,0.05564,-0.015670000000000003,1.5228000000000002,0.171,-9.7606,6.004158970049429,13.43094336646237,19.90999984741211,18.31999969482422,17.600000381469727,17.40999984741211,16.167103446297226,14.876008662594453,14.291362581756935,14.137080396297227,14.86788877173646,0.10698767510718588,-1.899999976158142,37.95000076293945,0.0,0.0,0.0,0.0,0.0,snow/ice covered,0.242494344711304,-8.38456726074219,100.0,481.855499267578
arenacam6_1769615976074111005.png,1769615976074111005,1769615976.074111,42.30115849691042,-83.69745107022425,239.25804138183594,0.7108017439612384,0.7033232548582259,0.008399638421401628,0.005169722592416837,0.0039700000000000004,0.025700000000000004,-0.014560000000000002,1.2479,-1.2552,-10.7943,6.0890837704663285,13.62091504950695,18.19999885559082,18.690000534057617,17.969999313354492,17.6299991607666,14.778566874729195,15.17645275545971,14.591805125837517,14.315721867134743,14.715636655790291,0.08037063606258732,-3.4000000953674316,38.35000228881836,0.0,0.0,0.0,0.0,0.0,snow/ice covered,0.242494344711304,-8.38456726074219,100.0,481.855499267578
arenacam6_1769615976094729271.png,1769615976094729271,1769615976.0947292,42.30115959038699,-83.69745107302643,239.25985717773438,0.7107654759323431,0.7033585634204294,0.008566903904017473,0.005077168829105579,-0.009890000000000001,0.036750000000000005,-0.008090000000000002,1.4878,-0.5583,-10.3985,6.103473596310991,13.653104226531909,18.31999969482422,18.579999923706055,17.940000534057617,17.85999870300293,14.876008662594453,15.087131245648612,14.56744584045971,14.50248361602642,14.7582673411823,0.0809459223568177,-4.0,38.75,0.0,0.0,0.0,0.0,0.0,snow/ice covered,0.242494344711304,-8.38456726074219,100.0,481.855499267578
arenacam6_1769615976115964511.png,1769615976115964511,1769615976.1159644,42.30116180690077,-83.69745109063375,239.26585388183594,0.7106540109470979,0.7034664268712059,0.008839666156756461,0.0052652912642813104,-0.026770000000000006,-0.015460000000000002,-0.011100000000000002,1.9362000000000001,-0.7384000000000001,-11.3306,6.171726936708098,13.805782853799814,18.59000015258789,18.270000457763672,18.15999984741211,17.8799991607666,15.095251523702775,14.835408821108322,14.746087311297225,14.518724172134743,14.798867957060764,0.0719325454976007,-5.0,38.60000228881836,0.0,0.0,0.0,0.0,0.0,snow/ice covered,0.242494344711304,-8.38456726074219,100.0,481.855499267578
arenacam6_1769615976136356961.png,1769615976136356961,1769615976.1363568,42.30116180690077,-83.69745109063375,239.26585388183594,0.7106377938657367,0.7034801408871009,0.008935324690732174,0.005456856217169711,-0.04061000000000001,-0.01327,-0.00446,1.4163000000000001,-0.9448000000000001,-11.296700000000001,6.185370149233794,13.836301901627044,19.0,17.869998931884766,18.53999900817871,17.989999771118164,15.428175180000002,14.510603894080583,15.05465013343197,14.60804568194584,14.900368722364599,0.0769039898307241,-5.800000190734863,38.875,0.0,0.0,0.0,0.0,0.0,snow/ice covered,0.242494344711304,-8.38456726074219,100.0,481.855499267578
arenacam6_1769615976157274780.png,1769615976157274780,1769615976.157275,42.30116292131608,-83.69745110049644,239.2689208984375,0.7106101451470048,0.7035024997731573,0.009130877370633145,0.005837936751465386,-0.03368000000000001,-0.0122,-0.0038100000000000005,2.1786000000000003,0.9685,-10.1821,6.22094870472871,13.915888995555841,19.029998779296875,18.100000381469727,18.3799991607666,18.1299991607666,15.45253446537781,14.697367191756936,14.924728782134743,14.721726477134743,14.949089229101057,0.07424608186190457,-6.900000095367432,39.10000228881836,0.0,0.0,0.0,0.0,0.0,snow/ice covered,0.242494344711304,-8.38456726074219,100.0,481.855499267578
