image_filename,timestamp_ns,timestamp_sec,latitude,longitude,altitude,orientation_x,orientation_y,orientation_z,orientation_w,angular_velocity_x,angular_velocity_y,angular_velocity_z,linear_acceleration_x,linear_acceleration_y,linear_acceleration_z,vehicle_speed_mps,vehicle_speed_mph,wheel_speed_fl_rads,wheel_speed_fr_rads,wheel_speed_rl_rads,wheel_speed_rr_rads,wheel_speed_fl_mph,wheel_speed_fr_mph,wheel_speed_rl_mph,wheel_speed_rr_mph,avg_wheel_speed_mph,wheel_slip,steering_angle_deg,throttle_pedal,brake_pedal,brake_torque_actual,abs_active,esc_active,trac_active,marwis_road_condition,marwis_friction,marwis_surface_temp_c,marwis_ice_percent,marwis_water_film_height
arenacam6_1769712091020332808.png,1769712091020332808,1769712091.0203328,42.30116095339996,-83.69745282093129,239.26669311523438,0.7143419763432053,0.6997049093838174,0.008990401689612473,0.006910375946882776,0.005140000000000001,0.0025000000000000005,-0.0019700000000000004,2.1305,0.0945,-10.068,1.7118347996337495,3.82927173669272,3.3399999141693115,3.3399999141693115,3.379999876022339,3.369999885559082,2.7121107251046896,2.7121107251046896,2.7445910629289965,2.7364709784729198,2.7263208729028237,0.2880314951851647,1.399999976158142,23.149999618530273,0.0,0.0,0.0,0.0,0.0,,,,,
arenacam6_1769712091041054632.png,1769712091041054632,1769712091.0410547,42.30116095339996,-83.69745282093129,239.26669311523438,0.7143419763432053,0.6997049093838174,0.008990401689612473,0.006910375946882776,0.005140000000000001,0.0025000000000000005,-0.0019700000000000004,2.1305,0.0945,-10.068,1.7118347996337495,3.82927173669272,3.3399999141693115,3.3399999141693115,3.379999876022339,3.369999885559082,2.7121107251046896,2.7121107251046896,2.7445910629289965,2.7364709784729198,2.7263208729028237,0.2880314951851647,1.399999976158142,23.149999618530273,0.0,0.0,0.0,0.0,0.0,,,,,
arenacam6_1769712091059898529.png,1769712091059898529,1769712091.0598986,42.30116095339996,-83.69745282093129,239.26669311523438,0.7143419763432053,0.6997049093838174,0.008990401689612473,0.006910375946882776,0.005140000000000001,0.0025000000000000005,-0.0019700000000000004,2.1305,0.0945,-10.068,1.7118347996337495,3.82927173669272,3.3399999141693115,3.3399999141693115,3.379999876022339,3.369999885559082,2.7121107251046896,2.7121107251046896,2.7445910629289965,2.7364709784729198,2.7263208729028237,0.2880314951851647,1.399999976158142,23.149999618530273,0.0,0.0,0.0,0.0,0.0,,,,,
arenacam6_1769712091080668910.png,1769712091080668910,1769712091.080669,42.30116095339996,-83.69745282093129,239.26669311523438,0.7143419763432053,0.6997049093838174,0.008990401689612473,0.006910375946882776,0.005140000000000001,0.0025000000000000005,-0.0019700000000000004,2.1305,0.0945,-10.068,1.7118347996337495,3.82927173669272,3.3399999141693115,3.3399999141693115,3.379999876022339,3.369999885559082,2.7121107251046896,2.7121107251046896,2.7445910629289965,2.7364709784729198,2.7263208729028237,0.2880314951851647,1.399999976158142,23.149999618530273,0.0,0.0,0.0,0.0,0.0,,,,,
arenacam6_1769712091101367835.png,1769712091101367835,1769712091.1013677,42.30116095339996,-83.69745282093129,239.26669311523438,0.7143419763432053,0.6997049093838174,0.008990401689612473,0.006910375946882776,0.005140000000000001,0.0025000000000000005,-0.0019700000000000004,2.1305,0.0945,-10.068,1.7118347996337495,3.82927173669272,3.3399999141693115,3.3399999141693115,3.379999876022339,3.369999885559082,2.7121107251046896,2.7121107251046896,2.7445910629289965,2.7364709784729198,2.7263208729028237,0.2880314951851647,1.399999976158142,23.149999618530273,0.0,0.0,0.0,0.0,0.0,,,,,
arenacam6_1769712091122150954.png,1769712091122150954,1769712091.122151,42.30116095339996,-83.69745282093129,239.26669311523438,0.7143419763432053,0.6997049093838174,0.008990401689612473,0.006910375946882776,0.005140000000000001,0.0025000000000000005,-0.0019700000000000004,2.1305,0.0945,-10.068,1.7118347996337495,3.82927173669272,3.3399999141693115,3.3399999141693115,3.379999876022339,3.369999885559082,2.7121107251046896,2.7121107251046896,2.7445910629289965,2.7364709784729198,2.7263208729028237,0.2880314951851647,1.399999976158142,23.149999618530273,0.0,0.0,0.0,0.0,0.0,,,,,
arenacam6_1769712091142782549.png,1769712091142782549,1769712091.1427824,42.30116095339996,-83.69745282093129,239.26669311523438,0.7143419763432053,0.6997049093838174,0.008990401689612473,0.006910375946882776,0.005140000000000001,0.0025000000000000005,-0.0019700000000000004,2.1305,0.0945,-10.068,1.7118347996337495,3.82927173669272,3.3399999141693115,3.3399999141693115,3.379999876022339,3.369999885559082,2.7121107251046896,2.7121107251046896,2.7445910629289965,2.7364709784729198,2.7263208729028237,0.2880314951851647,1.399999976158142,23.149999618530273,0.0,0.0,0.0,0.0,0.0,,,,,
arenacam6_1769712091163342466.png,1769712091163342466,1769712091.1633425,42.30116095339996,-83.69745282093129,239.26669311523438,0.7143419763432053,0.6997049093838174,0.008990401689612473,0.006910375946882776,0.005140000000000001,0.0025000000000000005,-0.0019700000000000004,2.1305,0.0945,-10.068,1.7118347996337495,3.82927173669272,3.3399999141693115,3.3399999141693115,3.379999876022339,3.369999885559082,2.7121107251046896,2.7121107251046896,2.7445910629289965,2.7364709784729198,2.7263208729028237,0.2880314951851647,1.399999976158142,23.149999618530273,0.0,0.0,0.0,0.0,0.0,,,,,
arenacam6_1769712091184014143.png,1769712091184014143,1769712091.184014,42.30116095339996,-83.69745282093129,239.26669311523438,0.7143419763432053,0.6997049093838174,0.008990401689612473,0.006910375946882776,0.005140000000000001,0.0025000000000000005,-0.0019700000000000004,2.1305,0.0945,-10.068,1.7118347996337495,3.82927173669272,3.3399999141693115,3.3399999141693115,3.379999876022339,3.369999885559082,2.7121107251046896,2.7121107251046896,2.7445910629289965,2.7364709784729198,2.7263208729028237,0.2880314951851647,1.399999976158142,23.149999618530273,0.0,0.0,0.0,0.0,0.0,,,,,
arenacam6_1769712091205090439.png,1769712091205090439,1769712091.2050905,42.30116095339996,-83.69745282093129,239.26669311523438,0.7143419763432053,0.6997049093838174,0.008990401689612473,0.006910375946882776,0.005140000000000001,0.0025000000000000005,-0.0019700000000000004,2.1305,0.0945,-10.068,1.7118347996337495,3.82927173669272,3.3399999141693115,3.3399999141693115,3.379999876022339,3.369999885559082,2.7121107251046896,2.7121107251046896,2.7445910629289965,2.7364709784729198,2.7263208729028237,0.2880314951851647,1.399999976158142,23.149999618530273,0.0,0.0,0.0,0.0,0.0,,,,,
arenacam6_1769712091225416608.png,1769712091225416608,1769712091.2254167,42.30116095339996,-83.69745282093129,239.26669311523438,0.7143419763432053,0.6997049093838174,0.008990401689612473,0.006910375946882776,0.005140000000000001,0.0025000000000000005,-0.0019700000000000004,2.1305,0.0945,-10.068,1.7118347996337495,3.82927173669272,3.3399999141693115,3.3399999141693115,3.379999876022339,3.369999885559082,2.7121107251046896,2.7121107251046896,2.7445910629289965,2.7364709784729198,2.7263208729028237,0.2880314951851647,1.399999976158142,23.149999618530273,0.0,0.0,0.0,0.0,0.0,,,,,
arenacam6_1769712091246175744.png,1769712091246175744,1769712091.2461758,42.30116095339996,-83.69745282093129,239.26669311523438,0.7143419763432053,0.6997049093838174,0.008990401689612473,0.006910375946882776,0.005140000000000001,0.0025000000000000005,-0.0019700000000000004,2.1305,0.0945,-10.068,1.7118347996337495,3.82927173669272,3.3399999141693115,3.3399999141693115,3.379999876022339,3.369999885559082,2.7121107251046896,2.7121107251046896,2.7445910629289965,2.7364709784729198,2.7263208729028237,0.2880314951851647,1.399999976158142,23.149999618530273,0.0,0.0,0.0,0.0,0.0,,,,,
arenacam6_1769712091266748291.png,1769712091266748291,1769712091.2667484,42.30116095339996,-83.69745282093129,239.26669311523438,0.7143419763432053,0.6997049093838174,0.008990401689612473,0.006910375946882776,0.005140000000000001,0.0025000000000000005,-0.0019700000000000004,2.1305,0.0945,-10.068,1.7118347996337495,3.82927173669272,3.3399999141693115,3.3399999141693115,3.379999876022339,3.369999885559082,2.7121107251046896,2.7121107251046896,2.7445910629289965,2.7364709784729198,2.7263208729028237,0.2880314951851647,1.399999976158142,23.149999618530273,0.0,0.0,0.0,0.0,0.0,,,,,
arenacam6_1769712091287583882.png,1769712091287583882,1769712091.287584,42.30116095339996,-83.69745282093129,239.26669311523438,0.7143419763432053,0.6997049093838174,0.008990401689612473,0.006910375946882776,0.005140000000000001,0.0025000000000000005,-0.0019700000000000004,2.1305,0.0945,-10.068,1.7118347996337495,3.82927173669272,3.3399999141693115,3.3399999141693115,3.379999876022339,3.369999885559082,2.7121107251046896,2.7121107251046896,2.7445910629289965,2.7364709784729198,2.7263208729028237,0.2880314951851647,1.399999976158142,23.149999618530273,0.0,0.0,0.0,0.0,0.0,,,,,
arenacam6_1769712091308199680.png,1769712091308199680,1769712091.3081996,42.30116095339996,-83.69745282093129,239.26669311523438,0.7143419763432053,0.6997049093838174,0.008990401689612473,0.006910375946882776,0.005140000000000001,0.0025000000000000005,-0.0019700000000000004,2.1305,0.0945,-10.068,1.7118347996337495,3.82927173669272,3.3399999141693115,3.3399999141693115,3.379999876022339,3.369999885559082,2.7121107251046896,2.7121107251046896,2.7445910629289965,2.7364709784729198,2.7263208729028237,0.2880314951851647,1.399999976158142,23.149999618530273,0.0,0.0,0.0,0.0,0.0,,,,,
arenacam6_1769712091328877829.png,1769712091328877829,1769712091.328878,42.30116095339996,-83.69745282093129,239.26669311523438,0.7143419763432053,0.6997049093838174,0.008990401689612473,0.006910375946882776,0.005140000000000001,0.0025000000000000005,-0.0019700000000000004,2.1305,0.0945,-10.068,1.7118347996337495,3.82927173669272,3.3399999141693115,3.3399999141693115,3.379999876022339,3.369999885559082,2.7121107251046896,2.7121107251046896,2.7445910629289965,2.7364709784729198,2.7263208729028237,0.2880314951851647,1.399999976158142,23.149999618530273,0.0,0.0,0.0,0.0,0.0,,,,,
arenacam6_1769712091349576083.png,1769712091349576083,1769712091.3495762,42.30116095339996,-83.69745282093129,239.26669311523438,0.7143419763432053,0.6997049093838174,0.008990401689612473,0.006910375946882776,0.005140000000000001,0.0025000000000000005,-0.0019700000000000004,2.1305,0.0945,-10.068,1.7118347996337495,3.82927173669272,3.3399999141693115,3.3399999141693115,3.379999876022339,3.369999885559082,2.7121107251046896,2.7121107251046896,2.7445910629289965,2.7364709784729198,2.7263208729028237,0.2880314951851647,1.399999976158142,23.149999618530273,0.0,0.0,0.0,0.0,0.0,,,,,
arenacam6_1769712091370360199.png,1769712091370360199,1769712091.3703604,42.30116095339996,-83.69745282093129,239.26669311523438,0.7143419763432053,0.6997049093838174,0.008990401689612473,0.006910375946882776,0.005140000000000001,0.0025000000000000005,-0.0019700000000000004,2.1305,0.0945,-10.068,1.7118347996337495,3.82927173669272,3.3399999141693115,3.3399999141693115,3.379999876022339,3.369999885559082,2.7121107251046896,2.7121107251046896,2.7445910629289965,2.7364709784729198,2.7263208729028237,0.2880314951851647,1.399999976158142,23.149999618530273,0.0,0.0,0.0,0.0,0.0,,,,,
arenacam6_1769712091391001278.png,1769712091391001278,1769712091.3910015,42.30116095339996,-83.69745282093129,239.26669311523438,0.7143419763432053,0.6997049093838174,0.008990401689612473,0.006910375946882776,0.005140000000000001,0.0025000000000000005,-0.0019700000000000004,2.1305,0.0945,-10.068,1.7118347996337495,3.82927173669272,3.3399999141693115,3.3399999141693115,3.379999876022339,3.369999885559082,2.7121107251046896,2.7121107251046896,2.7445910629289965,2.7364709784729198,2.7263208729028237,0.2880314951851647,1.399999976158142,23.149999618530273,0.0,0.0,0.0,0.0,0.0,,,,,
arenacam6_1769712091411626619.png,1769712091411626619,1769712091.4116266,42.30116095339996,-83.69745282093129,239.26669311523438,0.7143419763432053,0.6997049093838174,0.008990401689612473,0.006910375946882776,0.005140000000000001,0.0025000000000000005,-0.0019700000000000004,2.1305,0.0945,-10.068,1.7118347996337495,3.82927173669272,3.3399999141693115,3.3399999141693115,3.379999876022339,3.369999885559082,2.7121107251046896,2.7121107251046896,2.7445910629289965,2.7364709784729198,2.7263208729028237,0.2880314951851647,1.399999976158142,23.149999618530273,0.0,0.0,0.0,0.0,0.0,,,,,
arenacam6_1769712091432447277.png,1769712091432447277,1769712091.4324472,42.30116095339996,-83.69745282093129,239.26669311523438,0.7143419763432053,0.6997049093838174,0.008990401689612473,0.006910375946882776,0.005140000000000001,0.0025000000000000005,-0.0019700000000000004,2.1305,0.0945,-10.068,1.7118347996337495,3.82927173669272,3.3399999141693115,3.3399999141693115,3.379999876022339,3.369999885559082,2.7121107251046896,2.7121107251046896,2.7445910629289965,2.7364709784729198,2.7263208729028237,0.2880314951851647,1.399999976158142,23.149999618530273,0.0,0.0,0.0,0.0,0.0,,,,,
arenacam6_1769712091453050168.png,1769712091453050168,1769712091.4530501,42.30116095339996,-83.69745282093129,239.26669311523438,0.7143419763432053,0.6997049093838174,0.008990401689612473,0.006910375946882776,0.005140000000000001,0.0025000000000000005,-0.0019700000000000004,2.1305,0.0945,-10.068,1.7118347996337495,3.82927173669272,3.3399999141693115,3.3399999141693115,3.379999876022339,3.369999885559082,2.7121107251046896,2.7121107251046896,2.7445910629289965,2.7364709784729198,2.7263208729028237,0.2880314951851647,1.399999976158142,23.149999618530273,0.0,0.0,0.0,0.0,0.0,,,,,
arenacam6_1769712091473780056.png,1769712091473780056,1769712091.47378,42.30116095339996,-83.69745282093129,239.26669311523438,0.7143419763432053,0.6997049093838174,0.008990401689612473,0.006910375946882776,0.005140000000000001,0.0025000000000000005,-0.0019700000000000004,2.1305,0.0945,-10.068,1.7118347996337495,3.82927173669272,3.3399999141693115,3.3399999141693115,3.379999876022339,3.369999885559082,2.7121107251046896,2.7121107251046896,2.7445910629289965,2.7364709784729198,2.7263208729028237,0.2880314951851647,1.399999976158142,23.149999618530273,0.0,0.0,0.0,0.0,0.0,,,,,
arenacam6_1769712091494527452.png,1769712091494527452,1769712091.4945276,42.30116095339996,-83.69745282093129,239.26669311523438,0.7143419763432053,0.6997049093838174,0.008990401689612473,0.006910375946882776,0.005140000000000001,0.0025000000000000005,-0.0019700000000000004,2.1305,0.0945,-10.068,1.7118347996337495,3.82927173669272,3.3399999141693115,3.3399999141693115,3.379999876022339,3.369999885559082,2.7121107251046896,2.7121107251046896,2.7445910629289965,2.7364709784729198,2.7263208729028237,0.2880314951851647,1.399999976158142,23.149999618530273,0.0,0.0,0.0,0.0,0.0,,,,,
arenacam6_1769712091515567918.png,1769712091515567918,1769712091.5155678,42.30116095339996,-83.69745282093129,239.26669311523438,0.7143419763432053,0.6997049093838174,0.008990401689612473,0.006910375946882776,0.005140000000000001,0.0025000000000000005,-0.0019700000000000004,2.1305,0.0945,-10.068,1.7118347996337495,3.82927173669272,3.3399999141693115,3.3399999141693115,3.379999876022339,3.369999885559082,2.7121107251046896,2.7121107251046896,2.7445910629289965,2.7364709784729198,2.7263208729028237,0.2880314951851647,1.399999976158142,23.149999618530273,0.0,0.0,0.0,0.0,0.0,,,,,
arenacam6_1769712091535979410.png,1769712091535979410,1769712091.5359795,42.30116095339996,-83.69745282093129,239.26669311523438,0.7143419763432053,0.6997049093838174,0.008990401689612473,0.006910375946882776,0.005140000000000001,0.0025000000000000005,-0.0019700000000000004,2.1305,0.0945,-10.068,1.7118347996337495,3.82927173669272,3.3399999141693115,3.3399999141693115,3.379999876022339,3.369999885559082,2.7121107251046896,2.7121107251046896,2.7445910629289965,2.7364709784729198,2.7263208729028237,0.2880314951851647,1.399999976158142,23.149999618530273,0.0,0.0,0.0,0.0,0.0,,,,,
arenacam6_1769712091556437446.png,1769712091556437446,1769712091.5564375,42.30116095339996,-83.69745282093129,239.26669311523438,0.7143419763432053,0.6997049093838174,0.008990401689612473,0.006910375946882776,0.005140000000000001,0.0025000000000000005,-0.0019700000000000004,2.1305,0.0945,-10.068,1.7118347996337495,3.82927173669272,3.3399999141693115,3.3399999141693115,3.379999876022339,3.369999885559082,2.7121107251046896,2.7121107251046896,2.7445910629289965,2.7364709784729198,2.7263208729028237,0.2880314951851647,1.399999976158142,23.149999618530273,0.0,0.0,0.0,0.0,0.0,,,,,
arenacam6_1769712091577319591.png,1769712091577319591,1769712091.5773196,42.30116095339996,-83.69745282093129,239.26669311523438,0.7143419763432053,0.6997049093838174,0.008990401689612473,0.006910375946882776,0.005140000000000001,0.0025000000000000005,-0.0019700000000000004,2.1305,0.0945,-10.068,1.7118347996337495,3.82927173669272,3.3399999141693115,3.3399999141693115,3.379999876022339,3.369999885559082,2.7121107251046896,2.7121107251046896,2.7445910629289965,2.7364709784729198,2.7263208729028237,0.2880314951851647,1.399999976158142,23.149999618530273,0.0,0.0,0.0,0.0,0.0,,,,,
arenacam6_1769712091597932067.png,1769712091597932067,1769712091.597932,42.30116095339996,-83.69745282093129,239.26669311523438,0.7143419763432053,0.6997049093838174,0.008990401689612473,0.006910375946882776,0.005140000000000001,0.0025000000000000005,-0.0019700000000000004,2.1305,0.0945,-10.068,1.7118347996337495,3.82927173669272,3.3399999141693115,3.3399999141693115,3.379999876022339,3.369999885559082,2.7121107251046896,2.7121107251046896,2.7445910629289965,2.7364709784729198,2.7263208729028237,0.2880314951851647,1.399999976158142,23.149999618530273,0.0,0.0,0.0,0.0,0.0,,,,,
arenacam6_1769712091618524452.png,1769712091618524452,1769712091.6185243,42.30116095339996,-83.69745282093129,239.26669311523438,0.7143419763432053,0.6997049093838174,0.008990401689612473,0.006910375946882776,0.005140000000000001,0.0025000000000000005,-0.0019700000000000004,2.1305,0.0945,-10.068,1.7118347996337495,3.82927173669272,3.3399999141693115,3.3399999141693115,3.379999876022339,3.369999885559082,2.7121107251046896,2.7121107251046896,2.7445910629289965,2.7364709784729198,2.7263208729028237,0.2880314951851647,1.399999976158142,23.149999618530273,0.0,0.0,0.0,0.0,0.0,,,,,
arenacam6_1769712091639487692.png,1769712091639487692,1769712091.6394877,42.30116095339996,-83.69745282093129,239.26669311523438,0.7143419763432053,0.6997049093838174,0.008990401689612473,0.006910375946882776,0.005140000000000001,0.0025000000000000005,-0.0019700000000000004,2.1305,0.0945,-10.068,1.7118347996337495,3.82927173669272,3.3399999141693115,3.3399999141693115,3.379999876022339,3.369999885559082,2.7121107251046896,2.7121107251046896,2.7445910629289965,2.7364709784729198,2.7263208729028237,0.2880314951851647,1.399999976158142,23.149999618530273,0.0,0.0,0.0,0.0,0.0,,,,,
arenacam6_1769712091660118208.png,1769712091660118208,1769712091.6601183,42.30116095339996,-83.69745282093129,239.26669311523438,0.7143419763432053,0.6997049093838174,0.008990401689612473,0.006910375946882776,0.005140000000000001,0.0025000000000000005,-0.0019700000000000004,2.1305,0.0945,-10.068,1.7118347996337495,3.82927173669272,3.3399999141693115,3.3399999141693115,3.379999876022339,3.369999885559082,2.7121107251046896,2.7121107251046896,2.7445910629289965,2.7364709784729198,2.7263208729028237,0.2880314951851647,1.399999976158142,23.149999618530273,0.0,0.0,0.0,0.0,0.0,,,,,
arenacam6_1769712091680825600.png,1769712091680825600,1769712091.6808257,42.30116095339996,-83.69745282093129,239.26669311523438,0.7143419763432053,0.6997049093838174,0.008990401689612473,0.006910375946882776,0.005140000000000001,0.0025000000000000005,-0.0019700000000000004,2.1305,0.0945,-10.068,1.7118347996337495,3.82927173669272,3.3399999141693115,3.3399999141693115,3.379999876022339,3.369999885559082,2.7121107251046896,2.7121107251046896,2.7445910629289965,2.7364709784729198,2.7263208729028237,0.2880314951851647,1.399999976158142,23.149999618530273,0.0,0.0,0.0,0.0,0.0,,,,,
arenacam6_1769712091701640627.png,1769712091701640627,1769712091.7016406,42.30116095339996,-83.69745282093129,239.26669311523438,0.7143419763432053,0.6997049093838174,0.008990401689612473,0.006910375946882776,0.005140000000000001,0.0025000000000000005,-0.0019700000000000004,2.1305,0.0945,-10.068,1.7118347996337495,3.82927173669272,3.3399999141693115,3.3399999141693115,3.379999876022339,3.369999885559082,2.7121107251046896,2.7121107251046896,2.7445910629289965,2.7364709784729198,2.7263208729028237,0.2880314951851647,1.399999976158142,23.149999618530273,0.0,0.0,0.0,0.0,0.0,,,,,
arenacam6_1769712091722278765.png,1769712091722278765,1769712091.7222786,42.30116095339996,-83.69745282093129,239.26669311523438,0.7143419763432053,0.6997049093838174,0.008990401689612473,0.006910375946882776,0.005140000000000001,0.0025000000000000005,-0.0019700000000000004,2.1305,0.0945,-10.068,1.7118347996337495,3.82927173669272,3.3399999141693115,3.3399999141693115,3.379999876022339,3.369999885559082,2.7121107251046896,2.7121107251046896,2.7445910629289965,2.7364709784729198,2.7263208729028237,0.2880314951851647,1.399999976158142,23.149999618530273,0.0,0.0,0.0,0.0,0.0,,,,,
arenacam6_1769712091742955056.png,1769712091742955056,1769712091.742955,42.30116095339996,-83.69745282093129,239.26669311523438,0.7143419763432053,0.6997049093838174,0.008990401689612473,0.006910375946882776,0.005140000000000001,0.0025000000000000005,-0.0019700000000000004,2.1305,0.0945,-10.068,1.7118347996337495,3.82927173669272,3.3399999141693115,3.3399999141693115,3.379999876022339,3.369999885559082,2.7121107251046896,2.7121107251046896,2.7445910629289965,2.7364709784729198,2.7263208729028237,0.2880314951851647,1.399999976158142,23.149999618530273,0.0,0.0,0.0,0.0,0.0,,,,,
arenacam6_1769712091763508516.png,1769712091763508516,1769712091.7635086,42.30116095339996,-83.69745282093129,239.26669311523438,0.7143419763432053,0.6997049093838174,0.008990401689612473,0.006910375946882776,0.005140000000000001,0.0025000000000000005,-0.0019700000000000004,2.1305,0.0945,-10.068,1.7118347996337495,3.82927173669272,3.4499998092651367,3.4499998092651367,3.4800000190734863,3.4800000190734863,2.8014316541215325,2.8014316541215325,2.825792101087847,2.825792101087847,2.8136118776046897,0.26523577560605277,1.399999976158142,23.575000762939453,0.0,0.0,0.0,0.0,0.0,,,,,
arenacam6_1769712091785752526.png,1769712091785752526,1769712091.7857525,42.30116095339996,-83.69745282093129,239.26669311523438,0.7143419763432053,0.6997049093838174,0.008990401689612473,0.006910375946882776,0.005140000000000001,0.0025000000000000005,-0.0019700000000000004,2.1305,0.0945,-10.068,1.7118347996337495,3.82927173669272,3.5299999713897705,3.569999933242798,3.5899999141693115,3.5799999237060547,2.86639252336823,2.8988728611925363,2.91511303010469,2.906992945648613,2.8968428400785173,0.24350032087812248,1.399999976158142,23.92500114440918,0.0,0.0,0.0,0.0,0.0,,,,,
arenacam6_1769712091806662975.png,1769712091806662975,1769712091.8066628,42.30116095339996,-83.69745282093129,239.26669311523438,0.7143419763432053,0.6997049093838174,0.008990401689612473,0.006910375946882776,0.005140000000000001,0.0025000000000000005,-0.0019700000000000004,2.1305,0.0945,-10.068,1.7118347996337495,3.82927173669272,3.6399998664855957,3.6599998474121094,3.6999998092651367,3.679999828338623,2.955713452385073,2.971953621297226,3.0044339591215325,2.988193790209379,2.980073705753303,0.22176489142890018,1.399999976158142,24.5,0.0,0.0,0.0,0.0,0.0,,,,,
arenacam6_1769712091827334356.png,1769712091827334356,1769712091.8273344,42.30116095339996,-83.69745282093129,239.26669311523438,0.7143419763432053,0.6997049093838174,0.008990401689612473,0.006910375946882776,0.005140000000000001,0.0025000000000000005,-0.0019700000000000004,2.1305,0.0945,-10.068,1.7118347996337495,3.82927173669272,3.740000009536743,3.740000009536743,3.8299999237060547,3.7799999713897705,3.0369144905439236,3.0369144905439236,3.109995250648613,3.06939482836823,3.0633047650261727,0.20002941142226188,1.399999976158142,24.600000381469727,0.0,0.0,0.0,0.0,0.0,,,,,
arenacam6_1769712091848114084.png,1769712091848114084,1769712091.8481143,42.30116095339996,-83.69745282093129,239.26669311523438,0.7143419763432053,0.6997049093838174,0.008990401689612473,0.006910375946882776,0.005140000000000001,0.0025000000000000005,-0.0019700000000000004,2.1305,0.0945,-10.068,1.7118347996337495,3.82927173669272,3.8499999046325684,3.8299999237060547,3.929999828338623,3.869999885559082,3.1262354195607664,3.109995250648613,3.1911960952093796,3.14247558847292,3.1424755884729194,0.1793542468242213,1.399999976158142,24.475000381469727,0.0,0.0,0.0,0.0,0.0,,,,,
arenacam6_1769712091868683273.png,1769712091868683273,1769712091.8686833,42.30116095339996,-83.69745282093129,239.26669311523438,0.7143419763432053,0.6997049093838174,0.008990401689612473,0.006910375946882776,0.005140000000000001,0.0025000000000000005,-0.0019700000000000004,2.1305,0.0945,-10.068,1.7118347996337495,3.82927173669272,3.9499998092651367,3.93999981880188,4.019999980926514,3.9800000190734863,3.2074362641215326,3.199316179665456,3.2642770489121533,3.231796711087847,3.225706550946747,0.15761879209629098,1.399999976158142,24.575000762939453,0.0,0.0,0.0,0.0,0.0,,,,,
arenacam6_1769712091889651075.png,1769712091889651075,1769712091.8896513,42.30116095339996,-83.69745282093129,239.26669311523438,0.7143419763432053,0.6997049093838174,0.008990401689612473,0.006910375946882776,0.005140000000000001,0.0025000000000000005,-0.0019700000000000004,2.1305,0.0945,-10.068,1.7118347996337495,3.82927173669272,4.059999942779541,4.079999923706055,4.119999885559082,4.069999694824219,3.29675738673646,3.312997555648613,3.3454778934729195,3.3048772775944517,3.315027528363111,0.1342929527309423,1.399999976158142,24.399999618530273,0.0,0.0,0.0,0.0,0.0,,,,,
arenacam6_1769712091910054278.png,1769712091910054278,1769712091.9100544,42.30116095339996,-83.69745282093129,239.26669311523438,0.7143419763432053,0.6997049093838174,0.008990401689612473,0.006910375946882776,0.005140000000000001,0.0025000000000000005,-0.0019700000000000004,2.1305,0.0945,-10.068,1.7118347996337495,3.82927173669272,4.25,4.21999979019165,4.279999732971191,4.239999771118164,3.451039185,3.426678738033686,3.4753992447701454,3.442918906945839,3.449009018687417,0.0993041873632425,1.399999976158142,24.475000381469727,0.0,0.0,0.0,0.0,0.0,,,,,
arenacam6_1769712091930751680.png,1769712091930751680,1769712091.9307518,42.30116095339996,-83.69745282093129,239.26669311523438,0.7143419763432053,0.6997049093838174,0.008990401689612473,0.006910375946882776,0.005140000000000001,0.0025000000000000005,-0.0019700000000000004,2.1305,0.0945,-10.068,1.7118347996337495,3.82927173669272,4.380000114440918,4.339999675750732,4.319999694824219,4.299999713897705,3.556600476527081,3.524119751506605,3.507879582594452,3.4916394136822984,3.520059806077609,0.0807495398282109,1.399999976158142,24.725000381469727,0.0,0.0,0.0,0.0,0.0,,,,,
arenacam6_1769712091951344957.png,1769712091951344957,1769712091.951345,42.30116095339996,-83.69745282093129,239.26669311523438,0.7143419763432053,0.6997049093838174,0.008990401689612473,0.006910375946882776,0.005140000000000001,0.0025000000000000005,-0.0019700000000000004,2.1305,0.0945,-10.068,1.7118347996337495,3.82927173669272,4.539999961853027,4.5,4.509999752044678,4.400000095367432,3.6865218278243064,3.65404149,3.6621613808579925,3.572840645439234,3.6438913360303835,0.048411398670402686,1.399999976158142,24.649999618530273,0.0,0.0,0.0,0.0,0.0,,,,,
arenacam6_1769712091972034542.png,1769712091972034542,1769712091.9720345,42.30116095339996,-83.69745282093129,239.26669311523438,0.7143419763432053,0.6997049093838174,0.008990401689612473,0.006910375946882776,0.005140000000000001,0.0025000000000000005,-0.0019700000000000004,2.1305,0.0945,-10.068,1.7118347996337495,3.82927173669272,4.630000114440918,4.579999923706055,4.569999694824219,4.559999942779541,3.7596027815270805,3.719002165648613,3.710881887594452,3.7027619967364602,3.7230622078766515,0.027736221433008027,1.399999976158142,24.67500114440918,0.0,0.0,0.0,0.0,0.0,,,,,
arenacam6_1769712092013554460.png,1769712092013554460,1769712092.0135543,42.301161263964126,-83.69745281785475,239.26751708984375,0.7143572967071438,0.6996900521279892,0.008922995731688763,0.0069183626361944825,0.004690000000000001,0.00158,-0.00101,2.1003000000000003,0.24980000000000002,-10.4981,1.770819461177951,3.9612168854874064,4.859999656677246,4.839999675750732,4.839999675750732,4.730000019073486,3.9463645304187587,3.9301243615066053,3.9301243615066053,3.8408036260878466,3.911854219879954,0.012461490252730346,1.399999976158142,24.399999618530273,0.0,0.0,0.0,0.0,0.0,,,,,
arenacam6_1769712092033789399.png,1769712092033789399,1769712092.0337894,42.30116158835245,-83.69745281571694,239.2683563232422,0.7143633684376771,0.6996846326429609,0.0088431417884231,0.006942011305806293,0.004200000000000001,-0.005520000000000001,0.00039000000000000005,2.3185000000000002,-0.3062,-10.0762,1.813823738099447,4.057414872704177,4.929999828338623,4.900000095367432,4.960000038146973,4.920000076293945,4.00320531520938,3.978845255439234,4.027565762175694,3.995085424351387,4.001175439293924,0.013860902859256006,1.399999976158142,24.350000381469727,0.0,0.0,0.0,0.0,0.0,,,,,
arenacam6_1769712092055109063.png,1769712092055109063,1769712092.055109,42.301161913787865,-83.69745281569404,239.2689208984375,0.7143739841076151,0.6996733932653315,0.008799258450687035,0.00703751643035817,-0.00461,-0.0060300000000000015,0.00286,1.8023,0.5043,-9.9075,1.85159119531995,4.141898408459009,5.099999904632568,4.980000019073486,5.019999980926514,5.0,4.141246944560766,4.043805931087847,4.0762862689121535,4.0600461,4.080346311140191,0.014860841877026661,1.399999976158142,24.25,0.0,0.0,0.0,0.0,0.0,,,,,
arenacam6_1769712092075615053.png,1769712092075615053,1769712092.075615,42.301162246611035,-83.69745281318,239.27005004882812,0.7143760286819951,0.6996718820179678,0.008719964958990961,0.007078797149927973,0.0031500000000000005,-0.013130000000000003,-0.0017000000000000001,2.2264,0.0551,-9.8252,1.8934227223680977,4.235473024574093,5.150000095367432,5.119999885559082,5.190000057220459,5.159999847412109,4.181847560439234,4.15748711347292,4.214327898263541,4.1899674512972265,4.18590750586823,0.01170247535948992,1.399999976158142,24.399999618530273,0.0,0.0,0.0,0.0,0.0,,,,,
arenacam6_1769712092096196473.png,1769712092096196473,1769712092.0961964,42.301162592690744,-83.69745281263637,239.27073669433594,0.7143563240894713,0.6996914648230094,0.008667324806936175,0.007195399078635678,-0.0058200000000000005,-0.016250000000000004,-9e-05,1.8195000000000001,0.1014,-9.9113,1.9319125145779767,4.32157238036006,5.339999675750732,5.21999979019165,5.259999752044678,5.25,4.336128971506605,4.238687958033686,4.271168295857993,4.263048405,4.277258407599571,0.010254131797463213,1.399999976158142,24.375,0.0,0.0,0.0,0.0,0.0,,,,,
arenacam6_1769712092137482268.png,1769712092137482268,1769712092.1374822,42.301162592690744,-83.69745281263637,239.27073669433594,0.7143563240894713,0.6996914648230094,0.008667324806936175,0.007195399078635678,-0.0058200000000000005,-0.016250000000000004,-9e-05,1.8195000000000001,0.1014,-9.9113,1.9319125145779767,4.32157238036006,5.509999752044678,5.449999809265137,5.489999771118164,5.489999771118164,4.474170600857992,4.4254500941215325,4.457930431945839,4.457930431945839,4.453870389717801,0.03061339663289848,1.399999976158142,24.375,0.0,0.0,0.0,0.0,0.0,,,,,
arenacam6_1769712092156929177.png,1769712092156929177,1769712092.1569293,42.301162938928044,-83.69745281133874,239.2714385986328,0.7143660929294291,0.699680938259495,0.0087096229381736,0.007198081503409483,-0.006280000000000001,0.0056700000000000006,0.0028300000000000005,2.1527000000000003,0.2442,-9.6255,1.953219768002015,4.369235427834427,5.559999942779541,5.579999923706055,5.569999694824219,5.609999656677246,4.5147712167364595,4.531011385648613,4.522891107594452,4.555371445418758,4.53101128884957,0.03702612589482869,1.399999976158142,24.225000381469727,0.0,0.0,0.0,0.0,0.0,,,,,
arenacam6_1769712092200727181.png,1769712092200727181,1769712092.2007272,42.301162938928044,-83.69745281133874,239.2714385986328,0.7143660929294291,0.699680938259495,0.0087096229381736,0.007198081503409483,-0.006280000000000001,0.0056700000000000006,0.0028300000000000005,2.1527000000000003,0.2442,-9.6255,1.953219768002015,4.369235427834427,5.829999923706055,5.859999656677246,5.929999828338623,5.909999847412109,4.734013690648613,4.758373750418759,4.815214535209379,4.798974366297227,4.776644085643494,0.09324483986686785,1.399999976158142,24.42500114440918,0.0,0.0,0.0,0.0,0.0,,,,,
arenacam6_1769712092220506743.png,1769712092220506743,1769712092.2205067,42.301165184620245,-83.69745279869758,239.27606201171875,0.7142584177294208,0.6997947793292731,0.00821512974750923,0.007395347820761409,0.016330000000000004,-0.009760000000000001,-0.0010800000000000002,1.7999,0.2616,-9.9671,2.1725694954689825,4.859907607194386,6.009999752044678,5.96999979019165,6.049999713897705,6.019999980926514,4.880175210857993,4.847694873033686,4.912655548682299,4.888295488912154,4.882205280371533,0.0045880858196025096,1.5,24.325000762939453,0.0,0.0,0.0,0.0,0.0,,,,,
arenacam6_1769712092240561793.png,1769712092240561793,1769712092.240562,42.301165582089865,-83.69745279337286,239.27691650390625,0.7142650530623021,0.6997911499280149,0.008066552409951232,0.007260247141155988,0.018990000000000003,-0.0014700000000000002,0.00046000000000000007,2.3777,0.1193,-9.997,2.213486545826453,4.951436593821026,6.119999885559082,6.029999732971191,6.12999963760376,6.069999694824219,4.96949633347292,4.896415379770145,4.977616224330911,4.928895717594452,4.943105913792108,0.0016824773721861735,1.5,24.25,0.0,0.0,0.0,0.0,0.0,,,,,
arenacam6_1769712092261257908.png,1769712092261257908,1769712092.261258,42.301165991985954,-83.69745278909501,239.27732849121094,0.7142821679777986,0.6997782060626757,0.007854262422264073,0.007053891864875484,0.032260000000000004,0.008510000000000002,0.0016400000000000002,2.0043,0.0196,-9.4608,2.2504045609791308,5.034019978636657,6.210000038146973,6.069999694824219,6.239999771118164,6.150000095367432,5.0425772871756935,4.928895717594452,5.0669373469458385,4.993856780439234,5.008066783038805,0.0051555607065510356,1.5,24.274999618530273,0.0,0.0,0.0,0.0,0.0,,,,,
arenacam6_1769712092282520689.png,1769712092282520689,1769712092.2825205,42.301166403905206,-83.69745278292756,239.2779998779297,0.7143341353373831,0.699729313781931,0.007689668772891191,0.006819055669563594,0.017920000000000005,0.01302,0.0035700000000000007,2.3688000000000002,-0.17950000000000002,-10.1231,2.307049811434706,5.160732005190752,6.359999656677246,6.329999923706055,6.349999904632568,6.319999694824219,5.164378360418758,5.140018300648613,5.1562584695607665,5.131898022594452,5.148138288305647,0.0024402966231220563,1.5,24.399999618530273,0.0,0.0,0.0,0.0,0.0,,,,,
arenacam6_1769712092303230343.png,1769712092303230343,1769712092.3032305,42.3011668210129,-83.69745277660273,239.27862548828125,0.71435757038678,0.6997061557220168,0.007618723019346286,0.006819995261559156,0.0010800000000000002,0.00013000000000000002,0.005800000000000001,1.8996000000000002,0.1444,-10.008700000000001,2.347190195553179,5.250523636040728,6.5,6.429999828338623,6.429999828338623,6.389999866485596,5.2780599299999995,5.221219145209379,5.221219145209379,5.188738807385073,5.227309256950958,0.0044213455074120864,1.5,24.100000381469727,0.0,0.0,0.0,0.0,0.0,,,,,
arenacam6_1769712092324014081.png,1769712092324014081,1769712092.3240142,42.30116725321015,-83.6974527729466,239.2794189453125,0.7143833126934549,0.6996791563985266,0.00763772764907862,0.006872100328881277,-0.006240000000000001,-0.00135,0.00354,1.5809,0.5755,-9.547500000000001,2.381789283566308,5.327919719980818,6.549999713897705,6.529999732971191,6.589999675750732,6.539999961853027,5.318660158682299,5.302419989770145,5.351140496506606,5.310540267824307,5.320690228195839,0.0013569070415731974,1.5,23.950000762939453,0.0,0.0,0.0,0.0,0.0,,,,,
arenacam6_1769712092344574580.png,1769712092344574580,1769712092.3445745,42.301167687023195,-83.69745277009524,239.2802734375,0.7143891415435258,0.6996722757203002,0.0076788802933480975,0.006920681362486509,-0.008420000000000002,-0.006310000000000001,0.00124,1.9646000000000001,-0.1449,-10.087100000000001,2.4217951707452015,5.417410489246771,6.609999656677246,6.589999675750732,6.730000019073486,6.599999904632568,5.367380665418758,5.351140496506606,5.464822066087847,5.3592607745607665,5.385651000643494,0.0058624851608194885,1.5,24.17500114440918,0.0,0.0,0.0,0.0,0.0,,,,,
arenacam6_1769712092364097860.png,1769712092364097860,1769712092.3640978,42.30116812541713,-83.69745276651417,239.28125,0.7144039136640454,0.6996544009647362,0.007776996531356976,0.007091239463066525,-0.024110000000000003,-0.007320000000000001,0.0014200000000000003,1.8134000000000001,-0.5297000000000001,-10.2946,2.4593609435493904,5.501442869063374,6.710000038146973,6.699999809265137,6.799999713897705,6.730000019073486,5.4485818971756945,5.440461619121533,5.521662463682299,5.464822066087847,5.468882011516843,0.005918603232187038,1.5,24.125,0.0,0.0,0.0,0.0,0.0,,,,,
arenacam6_1769712092386180075.png,1769712092386180075,1769712092.3861802,42.3011685777215,-83.69745276635815,239.28233337402344,0.7144138202838575,0.6996401432881337,0.007964670583236038,0.007288848309894179,-0.026490000000000003,0.0032000000000000006,0.0007600000000000002,1.9676,0.23320000000000002,-9.8427,2.494266566568913,5.579524653420665,6.859999656677246,6.819999694824219,6.909999847412109,6.859999656677246,5.570382970418759,5.537902632594451,5.610983586297227,5.570382970418759,5.572413039932299,0.001274591283328415,1.5,24.225000381469727,0.0,0.0,0.0,0.0,0.0,,,,,
arenacam6_1769712092406868420.png,1769712092406868420,1769712092.4068685,42.301169031510526,-83.69745276617381,239.28338623046875,0.7143989398030474,0.6996523482561163,0.008084118136366019,0.007442675724606052,-0.016530000000000003,-0.0009400000000000002,-0.0021100000000000003,1.9400000000000002,-0.024900000000000002,-9.8119,2.53383877334835,5.668045305653859,6.989999771118164,6.949999809265137,6.940000057220459,6.96999979019165,5.675944261945839,5.643463924121533,5.63534403326354,5.659704093033686,5.653614078091149,0.0025460677860699144,1.5,24.200000762939453,0.0,0.0,0.0,0.0,0.0,,,,,
arenacam6_1769712092427610214.png,1769712092427610214,1769712092.4276102,42.30116948936863,-83.69745276550066,239.2845001220703,0.7143802110236342,0.6996673344438107,0.008269060684325067,0.007626129130805008,-0.02934,0.007450000000000001,-0.0032000000000000006,1.3232000000000002,-0.2204,-9.876100000000001,2.5624921035008037,5.732141086005088,7.069999694824219,7.069999694824219,7.009999752044678,7.069999694824219,5.740904937594452,5.740904937594452,5.692184430857993,5.740904937594452,5.728724810910338,0.0005959858704613789,1.399999976158142,24.25,0.0,0.0,0.0,0.0,0.0,,,,,
arenacam6_1769712092447896114.png,1769712092447896114,1769712092.447896,42.30116996044299,-83.69745276710096,239.28567504882812,0.7143518390536567,0.6996927167193637,0.008476553245306873,0.0077265940500409495,-0.016100000000000003,0.008960000000000003,-0.0028300000000000005,2.0401000000000002,0.5876,-9.776900000000001,2.599404906226557,5.814712810934435,7.159999847412109,7.170000076293945,7.109999656677246,7.199999809265137,5.813985891297226,5.822106169351388,5.773385275418759,5.846466229121533,5.813985891297227,0.00012501385035584798,1.399999976158142,23.950000762939453,0.0,0.0,0.0,0.0,0.0,,,,,
arenacam6_1769712092468451702.png,1769712092468451702,1769712092.4684515,42.30117043278163,-83.69745276954994,239.28695678710938,0.7143018765478943,0.6997427232913455,0.008506196170444506,0.007784278237460933,-0.006080000000000001,-0.0030800000000000003,-0.006640000000000001,1.7818,-0.2718,-10.0484,2.63815518587269,5.901394861486056,7.279999732971191,7.25,7.279999732971191,7.299999713897705,5.911426904770146,5.887066845,5.911426904770146,5.927667073682299,5.909396932055648,0.0013559625745119517,1.399999976158142,23.899999618530273,0.0,0.0,0.0,0.0,0.0,,,,,
arenacam6_1769712092488011335.png,1769712092488011335,1769712092.4880114,42.3011709098657,-83.69745276986754,239.28831481933594,0.714272409537492,0.6997701805454919,0.008626725023486805,0.007886634783255542,-0.018240000000000003,0.00262,-0.00316,1.2999,0.0465,-9.713600000000001,2.6670759127782953,5.9660887923302806,7.37999963760376,7.369999885559082,7.37999963760376,7.419999599456787,5.992627749330913,5.98450785847292,5.992627749330913,6.0251080871552185,5.998717861072491,0.005469088690761114,1.399999976158142,24.075000762939453,0.0,0.0,0.0,0.0,0.0,,,,,
arenacam6_1769712092508546147.png,1769712092508546147,1769712092.508546,42.30117140004088,-83.69745277227484,239.2896728515625,0.714230900772299,0.6998115568443652,0.008717821968306535,0.007874317061513461,0.0007000000000000001,0.0008700000000000001,-0.007220000000000001,2.0668,0.5548000000000001,-9.6752,2.7064467207711167,6.054158927561742,7.429999828338623,7.529999732971191,7.480000019073486,7.589999675750732,6.033228365209379,6.114429209770146,6.073828981087847,6.163149716506606,6.0961590681434945,0.006937403045457787,1.399999976158142,23.825000762939453,0.0,0.0,0.0,0.0,0.0,,,,,
arenacam6_1769712092529173795.png,1769712092529173795,1769712092.5291739,42.301171891406156,-83.69745277683994,239.2911376953125,0.7141939826734716,0.6998492745266464,0.00870039512838007,0.00788994183386311,-0.0018800000000000004,-0.009680000000000001,-0.0055000000000000005,1.76,-0.1879,-10.22,2.7461546264179955,6.142983130019471,7.599999904632568,7.589999675750732,7.659999847412109,7.699999809265137,6.171269994560767,6.163149716506606,6.219990501297226,6.252470839121533,6.201720262871532,0.009561662731096486,1.399999976158142,23.700000762939453,0.0,0.0,0.0,0.0,0.0,,,,,
arenacam6_1769712092549862058.png,1769712092549862058,1769712092.5498621,42.301172388209054,-83.69745277763693,239.2925567626953,0.7141919692741261,0.6998506850261602,0.008759187068143617,0.007882026050790854,-0.0021100000000000003,0.006680000000000001,-0.0004700000000000001,1.7398,0.30670000000000003,-9.7659,2.775653032749643,6.208969295078987,7.759999752044678,7.699999809265137,7.819999694824219,7.849999904632568,6.301191345857993,6.252470839121533,6.349911852594452,6.374272299560767,6.319461584283687,0.017795592787400696,1.5,23.575000762939453,0.0,0.0,0.0,0.0,0.0,,,,,
arenacam6_1769712092570530078.png,1769712092570530078,1769712092.57053,42.30117289808256,-83.69745277595118,239.2937774658203,0.7142080494485498,0.6998356546153008,0.008733105931205113,0.007787906834657904,0.014300000000000002,0.004280000000000001,0.0016500000000000002,2.1801,0.6647000000000001,-9.6653,2.8162910979795592,6.299874208714396,7.799999713897705,7.809999942779541,7.889999866485596,7.839999675750732,6.333671683682299,6.34179196173646,6.406752637385073,6.366152021506606,6.362092076077609,0.009876049156211559,1.600000023841858,23.575000762939453,0.0,0.0,0.0,0.0,0.0,,,,,
arenacam6_1769712092591359274.png,1769712092591359274,1769712092.5913591,42.301173407803525,-83.69745277853195,239.29501342773438,0.7142287200694742,0.6998156236617781,0.008678078477959334,0.007753661117647277,-0.0015,-0.0005600000000000002,0.0034700000000000004,1.5448000000000002,-0.34240000000000004,-9.7207,2.8492716649280108,6.373649758144065,7.929999828338623,7.889999866485596,8.010000228881836,7.889999866485596,6.4392329752093795,6.406752637385073,6.504194038054162,6.406752637385073,6.439233072008421,0.01028975804334958,1.899999976158142,23.42500114440918,0.0,0.0,0.0,0.0,0.0,,,,,
arenacam6_1769712092611921683.png,1769712092611921683,1769712092.6119215,42.30117392313593,-83.69745277632099,239.29623413085938,0.7143004280968906,0.6997439033014898,0.008701235462443833,0.007593201855669941,0.01616,0.007160000000000001,0.0035500000000000006,2.3147,0.6107,-9.5739,2.8992850704512274,6.485526745495169,8.050000190734863,8.019999504089355,8.079999923706055,8.039999961853027,6.536674375878468,6.512313541715985,6.5610344356486126,6.528554097824307,6.534644112766843,0.007573381345746676,2.200000047683716,23.30000114440918,0.0,0.0,0.0,0.0,0.0,,,,,
arenacam6_1769712092633074859.png,1769712092633074859,1769712092.633075,42.301174450817015,-83.69745277224143,239.29721069335938,0.7143332106175522,0.6997118914203247,0.00866151031759416,0.007504095736984272,0.005980000000000001,0.0066500000000000005,0.0068000000000000005,1.1223,0.234,-9.546800000000001,2.9273534118908655,6.548313941195153,8.139999389648438,8.109999656677246,8.170000076293945,8.149999618530273,6.609754555188903,6.585394495418758,6.634115389351387,6.617874833243065,6.611784818300528,0.009692705278847767,2.6000001430511475,23.475000381469727,0.0,0.0,0.0,0.0,0.0,,,,,
arenacam6_1769712092655779682.png,1769712092655779682,1769712092.6557796,42.301174976801256,-83.6974527682939,239.2982177734375,0.7143803887879784,0.6996643900885513,0.008718582393962799,0.007374800213701567,0.006210000000000001,0.010940000000000002,0.005350000000000001,1.6935,1.0105,-9.786900000000001,2.9584856864452584,6.617954971436857,8.179999351501465,8.170000076293945,8.239999771118164,8.220000267028809,6.64223489301321,6.634115389351387,6.690955786945839,6.674716005229855,6.660505518635072,0.006429561304340015,2.9000000953674316,23.524999618530273,0.0,0.0,0.0,0.0,0.0,,,,,
arenacam6_1769712092676284169.png,1769712092676284169,1769712092.676284,42.3011755093487,-83.69745276304752,239.2992401123047,0.714395734223794,0.6996507228972573,0.008697551876985891,0.007207875105648425,0.01327,0.009510000000000001,0.0024300000000000007,1.7153,0.0059,-9.5922,2.9938637574231364,6.697093593530111,8.359999656677246,8.25,8.34999942779541,8.34999942779541,6.7883968004187585,6.699076065,6.7802765223645975,6.7802765223645975,6.762006477536989,0.009692694763828396,3.1000001430511475,23.42500114440918,0.0,0.0,0.0,0.0,0.0,,,,,
arenacam6_1769712092696275050.png,1769712092696275050,1769712092.696275,42.30117605371162,-83.69745275598224,239.30010986328125,0.7144068183629222,0.699638914959743,0.008813685944524566,0.007113753621800621,-0.004900000000000001,0.013690000000000003,0.0031200000000000004,1.4451,0.1155,-9.5564,3.024276552726835,6.765125191856766,8.40999984741211,8.40999984741211,8.420000076293945,8.429999351501465,6.828997416297226,6.828997416297226,6.837117694351387,6.845237198013211,6.835087431239763,0.010341603059646329,3.200000047683716,23.375,0.0,0.0,0.0,0.0,0.0,,,,,
arenacam6_1769712092738508196.png,1769712092738508196,1769712092.7385082,42.301177709964,-83.69745273491196,239.30288696289062,0.714339337938704,0.6997039477807031,0.009174716310848603,0.007037067145394123,-0.015690000000000003,0.005930000000000001,-0.0085,1.7412,-0.06280000000000001,-10.005700000000001,3.0928321627800237,6.918479978209147,8.609999656677246,8.59000015258789,8.609999656677246,8.609999656677246,6.9913991054187585,6.9751593237027745,6.9913991054187585,6.9913991054187585,6.987339159989762,0.009952935037392342,2.9000000953674316,23.274999618530273,0.0,0.0,0.0,0.0,0.0,,,,,
arenacam6_1769712092759496794.png,1769712092759496794,1769712092.7594967,42.301178273063094,-83.69745272712198,239.30393981933594,0.7142842086210701,0.6997570895067354,0.009396738001303868,0.007055941791813519,-0.016250000000000004,0.01226,-0.008650000000000001,1.8357,0.2934,-10.1991,3.1267864737279307,6.994433734540958,8.619999885559082,8.729999542236328,8.679999351501465,8.670000076293945,6.9995193834729195,7.088840118891678,7.04823950301321,7.040119999351387,7.044179751182298,0.007112229313958238,2.6000001430511475,23.625,0.0,0.0,0.0,0.0,0.0,,,,,
arenacam6_1769712092778672633.png,1769712092778672633,1769712092.7786727,42.301178841462075,-83.69745272166786,239.30531311035156,0.7142032077088971,0.699837273746636,0.00951579829648469,0.007142685487898019,-0.015160000000000003,0.0008600000000000002,-0.012100000000000001,1.9748,-0.35800000000000004,-10.6234,3.164007557390657,7.077695065429457,8.699999809265137,8.769999504089355,8.6899995803833,8.760000228881836,7.064480059121533,7.121320456715984,7.056359781067372,7.113200953054162,7.088840312489762,0.0015747000905342397,2.4000000953674316,23.575000762939453,0.0,0.0,0.0,0.0,0.0,,,,,
arenacam6_1769712092799629197.png,1769712092799629197,1769712092.7996292,42.30117942228242,-83.69745271836211,239.306884765625,0.7141338379496305,0.6999053195617323,0.009580071514852755,0.007323071370035697,-0.01416,-0.0034100000000000007,-0.008290000000000002,1.5650000000000002,0.3095,-10.7041,3.1948108028643034,7.146600077359276,8.809999465942383,8.829999923706055,8.739999771118164,8.829999923706055,7.153800794540291,7.170041350648613,7.096960396945839,7.170041350648613,7.1477109731958395,0.0001554439627989157,2.299999952316284,23.625,0.0,0.0,0.0,0.0,0.0,,,,,
arenacam6_1769712092820060414.png,1769712092820060414,1769712092.8200605,42.30118000321129,-83.6974527154198,239.3085174560547,0.7140508839582517,0.6999898504013691,0.009455489369659958,0.007492541243708692,0.0009700000000000002,-0.02568,-0.013550000000000001,1.6006,0.2589,-10.7865,3.2298340217323345,7.224944916573929,8.869999885559082,8.869999885559082,8.859999656677246,8.929999351501465,7.2025216884729195,7.2025216884729195,7.1944014104187595,7.25124180801321,7.212671648844452,0.0016987351282528992,2.200000047683716,23.524999618530273,0.0,0.0,0.0,0.0,0.0,,,,,
arenacam6_1769712092840697786.png,1769712092840697786,1769712092.8406978,42.30118058973815,-83.69745271137907,239.31100463867188,0.7139871441493393,0.700056024943802,0.009258951317942068,0.0076283517122014265,0.00144,-0.028770000000000004,-0.007880000000000002,1.4717,-0.2025,-10.5427,3.2586671315505087,7.289442853250596,8.889999389648438,8.9399995803833,8.949999809265137,9.039999961853027,7.2187614701889045,7.259362086067371,7.267482364121533,7.340563317824307,7.271542309550529,0.002455680641228143,2.200000047683716,23.450000762939453,0.0,0.0,0.0,0.0,0.0,,,,,
arenacam6_1769712092861211811.png,1769712092861211811,1769712092.861212,42.30118118703415,-83.6974527111366,239.31350708007812,0.7139326289372605,0.7001140028978822,0.008973383147501743,0.007750011607996281,0.015520000000000003,-0.034210000000000004,-0.0076500000000000005,1.7057,0.1494,-10.5828,3.291546986245724,7.36299311541251,9.019999504089355,9.059999465942383,9.079999923706055,9.09000015258789,7.324322761715985,7.356803099540292,7.373043655648613,7.381163933702774,7.358833362651915,0.0005649540472728964,2.299999952316284,23.42500114440918,0.0,0.0,0.0,0.0,0.0,,,,,
arenacam6_1769712092882647148.png,1769712092882647148,1769712092.882647,42.30118178360334,-83.69745271149482,239.31588745117188,0.7139060183454737,0.7001446700552397,0.00851818706404648,0.007942194438166529,0.006750000000000001,-0.023030000000000002,0.0005700000000000001,1.0347,0.0297,-9.763300000000001,3.3278767364652544,7.4442605868685865,9.119999885559082,9.149999618530273,9.229999542236328,9.220000267028809,7.4055239934729205,7.4298840532430654,7.494844728891678,7.486725225229855,7.45424450020938,0.001341155810478285,2.5,23.575000762939453,0.0,0.0,0.0,0.0,0.0,,,,,
arenacam6_1769712092903382003.png,1769712092903382003,1769712092.903382,42.30118238586192,-83.69745271243981,239.31881713867188,0.7139042410951547,0.700147664211862,0.008328464340267993,0.008038627168741538,0.0054,-0.02099,-0.00037000000000000005,1.8239,0.1693,-9.6732,3.3599887861485627,7.516093315287166,9.210000038146973,9.279999732971191,9.300000190734863,9.289999961853027,7.478604947175694,7.535445344770146,7.551685900878468,7.543565622824306,7.5273254539121535,0.001494411811271994,2.700000047683716,23.625,0.0,0.0,0.0,0.0,0.0,,,,,
arenacam6_1769712092924236984.png,1769712092924236984,1769712092.924237,42.301182997326386,-83.6974527149098,239.32102966308594,0.7139191649355039,0.7001334663719873,0.008169886570338283,0.008112222701955182,0.004320000000000001,-0.00897,0.0026600000000000005,1.2291,-0.3005,-9.169500000000001,3.384967189898055,7.571968505770556,9.369999885559082,9.319999694824219,9.40999984741211,9.389999389648438,7.60852629847292,7.567925682594453,7.641006636297226,7.624766080188904,7.6105561743883765,0.0050961211194173505,2.9000000953674316,23.625,0.0,0.0,0.0,0.0,0.0,,,,,
arenacam6_1769712092942941024.png,1769712092942941024,1769712092.942941,42.30118360896347,-83.69745271622385,239.3231964111328,0.713948708071428,0.7001029787053227,0.008151377573919321,0.008161892839324803,-0.0012900000000000001,0.00039000000000000005,0.00553,1.1233,0.9089,-8.958300000000001,3.4076588786751114,7.622728452063504,9.5,9.40999984741211,9.469999313354492,9.5,7.714087590000001,7.641006636297226,7.689726755837517,7.714087590000001,7.689727143033687,0.008789331981522373,3.1000001430511475,23.55000114440918,0.0,0.0,0.0,0.0,0.0,,,,,
arenacam6_1769712093006667631.png,1769712093006667631,1769712093.0066676,42.30118547768445,-83.69745271327743,239.32859802246094,0.713971807426115,0.7000819008320781,0.008121842742288827,0.007976590656443119,0.014580000000000003,0.0038600000000000006,-0.00493,1.6006,0.5934,-9.6811,3.4947938640496328,7.817644186247186,9.699999809265137,9.65999984741211,9.679999351501465,9.739999771118164,7.876489279121533,7.844008941297226,7.8602487230132105,7.908969616945839,7.872429140094452,0.007007859726289868,3.700000047683716,23.450000762939453,0.0,0.0,0.0,0.0,0.0,,,,,
arenacam6_1769712093027129712.png,1769712093027129712,1769712093.0271297,42.30118610809251,-83.69745270739129,239.3302764892578,0.7139468047126553,0.7001091038240446,0.008085062236047694,0.00786349489236505,0.009070000000000002,0.0073300000000000014,-0.0038000000000000004,1.3039,0.5193,-9.622,3.5202962141101293,7.874691413191513,9.769999504089355,9.739999771118164,9.760000228881836,9.809999465942383,7.933329676715984,7.908969616945839,7.925210173054162,7.965810014540291,7.933329870314069,0.007446445079019365,3.799999952316284,23.700000762939453,0.0,0.0,0.0,0.0,0.0,,,,,
arenacam6_1769712093048262688.png,1769712093048262688,1769712093.0482626,42.30118674819136,-83.69745270222786,239.33155822753906,0.713893593362548,0.700165967450108,0.008045484936799102,0.007669781789264819,0.020300000000000002,0.012250000000000002,-0.009320000000000002,1.4105,0.6619,-9.6332,3.545017304538104,7.929991009213468,9.869999885559082,9.829999923706055,9.84999942779541,9.929999351501465,8.014530908472919,7.982050570648613,7.998290352364598,8.06325102801321,8.014530714874835,0.01066075681083943,3.799999952316284,23.325000762939453,0.0,0.0,0.0,0.0,0.0,,,,,
arenacam6_1769712093068277200.png,1769712093068277200,1769712093.0682774,42.3011873895842,-83.69745269802468,239.3328094482422,0.7138279383389073,0.7002360106085441,0.007976513420433966,0.007455141012067338,0.021680000000000005,0.010340000000000002,-0.007820000000000002,1.3469,0.2097,-9.279300000000001,3.573785318792595,7.994343331019908,9.920000076293945,9.929999351501465,9.920000076293945,9.979999542236328,8.055131524351388,8.06325102801321,8.055131524351388,8.103851643891678,8.069341430151917,0.009381395822843776,3.799999952316284,23.75,0.0,0.0,0.0,0.0,0.0,,,,,
arenacam6_1769712093087994932.png,1769712093087994932,1769712093.0879948,42.30118803472627,-83.69745268726766,239.33424377441406,0.7137635303334352,0.7003037366834988,0.007953392427378428,0.007283042082541344,0.013590000000000001,0.009770000000000003,-0.00855,1.1216000000000002,0.5803,-9.4847,3.600119357642458,8.05325099588472,10.019999504089355,10.069999694824219,10.010000228881836,10.069999694824219,8.136331981715985,8.176932597594453,8.128212478054161,8.176932597594453,8.154602413739763,0.012585155722432313,3.799999952316284,23.700000762939453,0.0,0.0,0.0,0.0,0.0,,,,,
arenacam6_1769712093108634706.png,1769712093108634706,1769712093.1086347,42.30118868967326,-83.69745268075239,239.33522033691406,0.7136807243238201,0.7003902998441817,0.007968084542388992,0.00705416483574759,0.012620000000000003,0.014280000000000003,-0.012090000000000002,1.526,-0.11950000000000001,-9.5032,3.628142599373318,8.11593730624215,10.050000190734863,10.229999542236328,10.149999618530273,10.149999618530273,8.160692815878468,8.306853948891678,8.241893273243065,8.241893273243065,8.23783332781407,0.015019339969293003,3.700000047683716,23.524999618530273,0.0,0.0,0.0,0.0,0.0,,,,,
arenacam6_1769712093129320215.png,1769712093129320215,1769712093.1293201,42.30118934475582,-83.69745267415637,239.33612060546875,0.7135950091969658,0.700479393979388,0.008010302999808452,0.006827628087621582,0.014860000000000002,0.02594,-0.010090000000000002,1.4501000000000002,-0.1316,-9.319,3.6544206659041683,8.174719764387671,10.149999618530273,10.219999313354492,10.25,10.229999542236328,8.241893273243065,8.298733670837517,8.323094505,8.306853948891678,8.292643849493064,0.01442545903764402,3.700000047683716,23.575000762939453,0.0,0.0,0.0,0.0,0.0,,,,,
arenacam6_1769712093149968576.png,1769712093149968576,1769712093.1499686,42.301190004697716,-83.69745266289871,239.33721923828125,0.7135260831550128,0.7005513377108866,0.008022316103333055,0.0066328224227152266,0.01665,0.017660000000000006,-0.00807,1.6016000000000001,0.7893,-9.887,3.685910069344771,8.245159670520092,10.25,10.34999942779541,10.279999732971191,10.329999923706055,8.323094505,8.404294962364597,8.347454564770146,8.388055180648614,8.365724803195839,0.014622534613467564,3.700000047683716,23.725000381469727,0.0,0.0,0.0,0.0,0.0,,,,,
arenacam6_1769712093170639277.png,1769712093170639277,1769712093.1706393,42.30119067590167,-83.69745265465924,239.33799743652344,0.7134608595149843,0.7006217110030534,0.007889214995454369,0.0063702667173053985,0.030700000000000005,0.00505,-0.007050000000000001,1.5019,0.61,-9.5914,3.7191792381757995,8.319580805044973,10.34999942779541,10.5,10.369999885559082,10.489999771118164,8.404294962364597,8.52609681,8.42053551847292,8.51797653194584,8.46722595569584,0.017746705526477374,3.700000047683716,23.55000114440918,0.0,0.0,0.0,0.0,0.0,,,,,
arenacam6_1769712093191198622.png,1769712093191198622,1769712093.1911988,42.30119134716064,-83.69745264367285,239.33871459960938,0.7133601445090408,0.7007361788884772,0.007369554633027557,0.005639280745553796,0.07013,0.005690000000000001,-0.012570000000000003,1.7424000000000002,0.7823,-9.758000000000001,3.767429575670155,8.427513914999597,10.40999984741211,10.479999542236328,10.389999389648438,10.529999732971191,8.453015856297226,8.509856253891678,8.436775300188904,8.550456869770146,8.487526070036989,0.00712097964389943,3.700000047683716,23.700000762939453,0.0,0.0,0.0,0.0,0.0,,,,,
arenacam6_1769712093212070170.png,1769712093212070170,1769712093.2120702,42.30119202398875,-83.6974526270501,239.33961486816406,0.7133057174274544,0.7008025830919532,0.006725081288784483,0.005046414431041183,0.09459000000000002,-0.0026400000000000004,-0.007610000000000001,1.2647000000000002,0.7195,-9.849300000000001,3.794154440257607,8.487295833589853,10.420000076293945,10.489999771118164,10.550000190734863,10.5,8.461136134351387,8.51797653194584,8.566697425878468,8.52609681,8.517976725543923,0.0036149195875375714,3.700000047683716,23.649999618530273,0.0,0.0,0.0,0.0,0.0,,,,,
arenacam6_1769712093232637048.png,1769712093232637048,1769712093.232637,42.30119271097164,-83.69745260953947,239.34030151367188,0.7132504638506066,0.7008701702856257,0.0059980973875535075,0.004336248196530698,0.10117000000000001,-0.00515,-0.007070000000000001,1.4200000000000002,0.183,-9.577300000000001,3.8218325117701135,8.549210018879037,10.59000015258789,10.579999923706055,10.639999389648438,10.539999961853027,8.599177763702775,8.591057485648614,8.639777605188904,8.558577147824307,8.59714750059115,0.00560724109084391,3.799999952316284,23.625,0.0,0.0,0.0,0.0,0.0,,,,,
arenacam6_1769712093255348639.png,1769712093255348639,1769712093.2553487,42.30119339829468,-83.69745259356318,239.34095764160156,0.7132063964316824,0.7009245170284703,0.0053182724815782735,0.003629530982271681,0.09680000000000001,0.004940000000000001,-0.006110000000000001,0.6975,0.4214,-9.7552,3.8368942737928178,8.582902276818107,10.630000114440918,10.59999942779541,10.760000228881836,10.59999942779541,8.631658101527082,8.607297267364597,8.737219393054161,8.607297267364597,8.64586800732761,0.007336181687582567,3.9000000953674316,23.875,0.0,0.0,0.0,0.0,0.0,,,,,
arenacam6_1769712093275789548.png,1769712093275789548,1769712093.2757895,42.30119408968353,-83.69745257173382,239.34182739257812,0.7131749971489457,0.7009636530441103,0.004787258498598337,0.0029090735165879923,0.08424000000000001,0.01454,-0.0028500000000000005,1.2912000000000001,-0.08600000000000001,-9.422,3.8613185998903172,8.637538028838646,10.889999389648438,10.760000228881836,10.819999694824219,10.65999984741211,8.842779910188904,8.737219393054161,8.785939512594451,8.656018161297226,8.755489244283686,0.013655652229979047,3.9000000953674316,23.774999618530273,0.0,0.0,0.0,0.0,0.0,,,,,
arenacam6_1769712093339059867.png,1769712093339059867,1769712093.33906,42.30119690117861,-83.69745251983471,239.34573364257812,0.7131563707170802,0.700987706195517,0.0045523111298247845,0.0018716655062966975,-0.01922,0.00727,0.0007400000000000001,1.8942,-1.3058,-10.8317,3.942320665279423,8.818734788990154,11.050000190734863,10.9399995803833,10.960000038146973,10.899999618530273,8.972702035878468,8.883380526067372,8.899621082175694,8.850900188243065,8.90165095809115,0.00940227493908911,3.6000001430511475,23.75,0.0,0.0,0.0,0.0,0.0,,,,,
arenacam6_1769712093378907643.png,1769712093378907643,1769712093.3789077,42.30119833323487,-83.69745251709045,239.34957885742188,0.7131730468522034,0.7009632683865827,0.005242448449481468,0.002686698829251082,-0.06580000000000001,-0.015110000000000002,-0.00281,1.7080000000000002,-1.1754,-10.8818,4.003144393139096,8.95479381878857,11.039999961853027,11.219999313354492,11.09999942779541,11.09000015258789,8.964581757824307,9.110742890837516,9.013301877364597,9.005182373702773,9.0234522249323,0.007667223560153139,2.799999952316284,23.950000762939453,0.0,0.0,0.0,0.0,0.0,,,,,
arenacam6_1769712093400228615.png,1769712093400228615,1769712093.4002285,42.30119906295772,-83.69745252486204,239.35227966308594,0.7131674199462157,0.7009636819430208,0.0055577230155152025,0.0033555087578864082,-0.06833,-0.030520000000000005,0.0004300000000000001,1.7021000000000002,-0.341,-10.803600000000001,4.03598662356653,9.028259917720915,11.15999984741211,11.15999984741211,11.149999618530273,11.239999771118164,9.062022771297226,9.062022771297226,9.053902493243067,9.12698344694584,9.07623287069584,0.005313643316887976,2.200000047683716,23.575000762939453,0.0,0.0,0.0,0.0,0.0,,,,,
arenacam6_1769712093420165134.png,1769712093420165134,1769712093.420165,42.30119979264633,-83.69745253421962,239.35491943359375,0.7131580379363743,0.7009695844810371,0.0056208061599382865,0.003957410433064107,-0.040600000000000004,-0.04354,-0.0038200000000000005,1.487,-0.3709,-10.3978,4.067420645643973,9.09857593906683,11.149999618530273,11.199999809265137,11.170000076293945,11.239999771118164,9.053902493243067,9.094503109121534,9.070143049351387,9.12698344694584,9.086383024665457,0.0013400904144812334,1.8000000715255737,23.975000381469727,0.0,0.0,0.0,0.0,0.0,,,,,
arenacam6_1769712093440976976.png,1769712093440976976,1769712093.4409769,42.30120052920526,-83.69745254283593,239.35804748535156,0.7131381207398784,0.7009867391510708,0.005569955467100457,0.00453738669697694,-0.03687000000000001,-0.047360000000000006,-0.0031800000000000005,1.2572,-0.5222,-10.2231,4.092938246897264,9.155657282014365,11.149999618530273,11.309999465942383,11.210000038146973,11.319999694824219,9.053902493243067,9.18382384454029,9.102623387175694,9.191944122594451,9.133073461888376,0.0024666519759704926,1.399999976158142,23.80000114440918,0.0,0.0,0.0,0.0,0.0,,,,,
arenacam6_1769712093461290053.png,1769712093461290053,1769712093.46129,42.30120127165483,-83.69745255241597,239.36094665527344,0.7131233072549409,0.7010003758560661,0.005375381693080705,0.004972622153655308,-0.00708,-0.0425,-0.0020800000000000003,1.0728,0.8045,-9.8378,4.112359333985884,9.199101088566383,11.4399995803833,11.40999984741211,11.300000190734863,11.40999984741211,9.289385136067372,9.265025076297226,9.175704340878468,9.265025076297226,9.248784907385073,0.005400942803035562,1.100000023841858,24.024999618530273,0.0,0.0,0.0,0.0,0.0,,,,,
arenacam6_1769712093482225082.png,1769712093482225082,1769712093.4822252,42.301202015346405,-83.69745256548407,239.3638458251953,0.7130771615392162,0.7010492114502568,0.004991326187455394,0.005104064952387966,0.019550000000000005,-0.03547,-0.008190000000000001,1.4741,-0.2591,-9.5798,4.137861010743133,9.256146809371744,11.359999656677246,11.389999389648438,11.369999885559082,11.429999351501465,9.224424460418758,9.248784520188904,9.23254473847292,9.28126485801321,9.246754644273448,0.0010146949148199043,1.0,23.80000114440918,0.0,0.0,0.0,0.0,0.0,,,,,
arenacam6_1769712093502988154.png,1769712093502988154,1769712093.502988,42.301202762792634,-83.69745257351084,239.36676025390625,0.7130591621112288,0.7010689064852539,0.004614956520690928,0.005265155754093338,0.015850000000000003,-0.03228,0.00024,0.1874,0.31020000000000003,-9.714400000000001,4.148318994466844,9.279540691482662,11.479999542236328,11.479999542236328,11.579999923706055,11.479999542236328,9.321865473891679,9.321865473891679,9.403066705648614,9.321865473891679,9.342165781830913,0.00674872738105794,1.100000023841858,23.774999618530273,0.0,0.0,0.0,0.0,0.0,,,,,
arenacam6_1769712093522484673.png,1769712093522484673,1769712093.5224848,42.30120351494267,-83.69745258273751,239.3693084716797,0.713033840738418,0.7010973265599251,0.0042948354240848795,0.005180254919039189,0.018040000000000004,-0.004950000000000001,-0.004560000000000001,1.4678,0.0557,-9.2208,4.176801965769061,9.343255389307444,11.710000038146973,11.65999984741211,11.619999885559082,11.559999465942383,9.508627997175694,9.468027381297226,9.435547043472921,9.38682614954029,9.449757142871533,0.011398784377228008,1.3000000715255737,23.899999618530273,0.0,0.0,0.0,0.0,0.0,,,,,
arenacam6_1769712093542836042.png,1769712093542836042,1769712093.542836,42.30120426956152,-83.69745259685155,239.3719024658203,0.7130601375124449,0.7010698414089045,0.004241811713801304,0.00532210400229276,-0.01518,-0.015540000000000003,0.0079,1.06,-0.2456,-9.7721,4.2042012491132885,9.404545942191481,11.630000114440918,11.619999885559082,11.75999927520752,11.670000076293945,9.44366732152708,9.435547043472921,9.549227838661823,9.476147659351389,9.476147465753304,0.007613501385600945,1.8000000715255737,23.875,0.0,0.0,0.0,0.0,0.0,,,,,
arenacam6_1769712093563671800.png,1769712093563671800,1769712093.5636718,42.301205027562126,-83.69745260508186,239.3743438720703,0.7131179892972326,0.7010084586888138,0.004423648560585115,0.005505045033258427,-0.025840000000000002,0.007640000000000001,0.00768,0.6488,0.6284000000000001,-9.4335,4.214449221749896,9.427470042101213,11.6899995803833,11.649999618530273,11.819999694824219,11.739999771118164,9.49238744106737,9.459907103243065,9.597948732594453,9.532988056945838,9.520807833462682,0.009900619248286202,2.4000000953674316,23.80000114440918,0.0,0.0,0.0,0.0,0.0,,,,,
arenacam6_1769712093584465475.png,1769712093584465475,1769712093.5844655,42.301205792481575,-83.6974526161181,239.376220703125,0.7131389520021183,0.700983721927762,0.004769790801912024,0.0056485241726134125,-0.03730000000000001,0.014220000000000002,0.005660000000000001,1.6451,0.0855,-8.6788,4.242817032653119,9.49092713302307,11.9399995803833,11.75,11.880000114440918,11.809999465942383,9.695389746067372,9.541108335,9.64666962652708,9.58982845454029,9.618249040533685,0.013415118009662918,2.9000000953674316,23.700000762939453,0.0,0.0,0.0,0.0,0.0,,,,,
arenacam6_1769712093627052750.png,1769712093627052750,1769712093.6270528,42.301207329421445,-83.69745263403442,239.37979125976562,0.7132291128502327,0.7008803776163963,0.005580692598008638,0.006307513400245305,-0.05545000000000001,0.01063,0.007020000000000001,0.9592,0.304,-10.076400000000001,4.291658633254603,9.600182863072552,12.019999504089355,11.889999389648438,11.960000038146973,11.979999542236328,9.760350421715986,9.654789130188902,9.711630302175694,9.727870083891679,9.713659984493065,0.011820308325272238,3.700000047683716,23.700000762939453,0.0,0.0,0.0,0.0,0.0,,,,,
arenacam6_1769712093647746344.png,1769712093647746344,1769712093.6477463,42.30120810874598,-83.69745264538722,239.3813934326172,0.7132546308947465,0.7008474050580716,0.006030584449857248,0.006661710122743327,-0.05862000000000001,0.006490000000000001,0.0031300000000000004,1.7731000000000001,-0.1991,-9.4902,4.322983188209368,9.670254013033064,12.0,11.949999809265137,11.989999771118164,12.00999927520752,9.74411064,9.703510024121533,9.73599036194584,9.752230143661823,9.7339602924323,0.006587859979001172,3.799999952316284,23.850000381469727,0.0,0.0,0.0,0.0,0.0,,,,,
arenacam6_1769712093668180383.png,1769712093668180383,1769712093.6681805,42.301208887556285,-83.6974526572708,239.383056640625,0.7132528280445317,0.7008404549635854,0.006450683837927593,0.007172771496110368,-0.06582000000000002,0.00051,7.000000000000002e-05,0.879,0.0351,-9.9764,4.344870993446754,9.719215720080783,12.079999923706055,12.219999313354492,11.960000038146973,12.079999923706055,9.809071315648612,9.922752110837518,9.711630302175694,9.809071315648612,9.813131261077608,0.009662872365594998,3.6000001430511475,23.75,0.0,0.0,0.0,0.0,0.0,,,,,
arenacam6_1769712093687823034.png,1769712093687823034,1769712093.687823,42.30120967251999,-83.69745266589285,239.38479614257812,0.713240411353857,0.700845050919104,0.006831385155983483,0.007593575628797381,-0.04968000000000001,-0.00030000000000000003,-0.0033900000000000007,1.1997,0.7237,-10.0807,4.367600547609305,9.77006036896916,12.059999465942383,12.219999313354492,12.09000015258789,12.199999809265137,9.79283075954029,9.922752110837518,9.817191593702775,9.906512329121533,9.859821698300529,0.009187387379556112,3.299999952316284,23.80000114440918,0.0,0.0,0.0,0.0,0.0,,,,,
arenacam6_1769712093708490738.png,1769712093708490738,1769712093.7084908,42.30121046464157,-83.69745267369402,239.38658142089844,0.7131742205882619,0.7009080276871212,0.006955443269171425,0.00787969675837449,-0.021650000000000003,-0.0171,-0.01101,1.1369,0.6759000000000001,-9.8735,4.394491018507626,9.83021273894045,12.00999927520752,12.1899995803833,12.15999984741211,12.269999504089355,9.752230143661823,9.898392051067372,9.874031991297226,9.963352726715986,9.872001728185602,0.004251076793039596,3.0,23.80000114440918,0.0,0.0,0.0,0.0,0.0,,,,,
arenacam6_1769712093729139137.png,1769712093729139137,1769712093.729139,42.30121125523527,-83.69745268017648,239.3883056640625,0.713089370035008,0.7009946483357,0.006886799579101512,0.007913617335993056,0.01276,-0.005960000000000001,-0.012700000000000001,0.7006,1.2547000000000001,-9.8438,4.408296352419041,9.86109444258025,12.300000190734863,12.34000015258789,12.1899995803833,12.329999923706055,9.987713560878468,10.020193898702775,9.898392051067372,10.012073620648613,9.979593282824307,0.012016804111760615,2.6000001430511475,23.700000762939453,0.0,0.0,0.0,0.0,0.0,,,,,
arenacam6_1769712093749940451.png,1769712093749940451,1769712093.7499404,42.30121205136175,-83.6974526802636,239.39016723632812,0.7129985655223133,0.7010932483913055,0.006607724981991934,0.007592140265649305,0.050690000000000006,0.0025900000000000003,-0.013870000000000002,1.3345,0.5407000000000001,-9.8039,4.431274664820936,9.912495548724547,12.469999313354492,12.279999732971191,12.4399995803833,12.420000076293945,10.125754415837518,9.971473004770145,10.101394356067372,10.085154574351387,10.070944087756605,0.015984727383049954,2.4000000953674316,24.149999618530273,0.0,0.0,0.0,0.0,0.0,,,,,
arenacam6_1769712093770584424.png,1769712093770584424,1769712093.7705843,42.301212852897265,-83.6974526775554,239.39190673828125,0.7129213579668379,0.7011794168541184,0.0062300754165406985,0.007193670491668085,0.05754000000000001,0.006220000000000002,-0.01024,0.6889000000000001,0.9916,-9.9539,4.447759976720583,9.949372202325343,12.5,12.469999313354492,12.479999542236328,12.4399995803833,10.15011525,10.125754415837518,10.133874693891677,10.101394356067372,10.127784678949142,0.017932033599275907,2.5,23.975000381469727,0.0,0.0,0.0,0.0,0.0,,,,,
arenacam6_1769712093791216678.png,1769712093791216678,1769712093.7912166,42.30121365422294,-83.69745267456572,239.39381408691406,0.7128219202975374,0.701289405291822,0.005834054008103824,0.006636548998107139,0.06831000000000001,0.012950000000000003,-0.01573,1.366,0.6422,-10.3358,4.4685340311101065,9.995842515551443,12.5,12.50999927520752,12.5,12.4399995803833,10.15011525,10.158234753661825,10.15011525,10.101394356067372,10.1399649024323,0.014418233046052206,2.5,24.05000114440918,0.0,0.0,0.0,0.0,0.0,,,,,
arenacam6_1769712093813633254.png,1769712093813633254,1769712093.8136332,42.30121445961406,-83.6974526659971,239.3958740234375,0.7127304570644447,0.701390672477491,0.005336022861695444,0.006160113172688402,0.03196,-0.0006600000000000001,-0.0030900000000000003,0.9682000000000001,0.3382,-10.2116,4.503419440276586,10.073879082732306,12.639999389648438,12.59000015258789,12.59000015258789,12.559999465942383,10.263796045188904,10.223196203702775,10.223196203702775,10.198835369540292,10.227255955533687,0.015225204863167884,2.799999952316284,23.850000381469727,0.0,0.0,0.0,0.0,0.0,,,,,
arenacam6_1769712093834445728.png,1769712093834445728,1769712093.8344457,42.30121527235014,-83.69745266116341,239.39816284179688,0.7126810412025202,0.7014440542323851,0.005155357407504364,0.005949334628951704,0.025750000000000006,0.00256,-0.00855,1.7735,0.117,-10.2507,4.532308738715476,10.138502709982196,12.649999618530273,12.630000114440918,12.630000114440918,12.59000015258789,10.271916323243065,10.255676541527082,10.255676541527082,10.223196203702775,10.251616402500002,0.0111568439397304,3.0,23.80000114440918,0.0,0.0,0.0,0.0,0.0,,,,,
arenacam6_1769712093855929794.png,1769712093855929794,1769712093.8559299,42.30121608801743,-83.69745265833924,239.40057373046875,0.7126681877557629,0.7014574983379533,0.004971798517427727,0.006059158842520236,-0.0014000000000000002,-0.024580000000000005,0.0024700000000000004,1.4599,-0.4001,-10.6461,4.565850530080948,10.213533684759277,12.519999504089355,12.679999351501465,12.649999618530273,12.739999771118164,10.166355031715984,10.29627638301321,10.271916323243065,10.34499727694584,10.269886253729524,0.005517440947430086,3.299999952316284,23.899999618530273,0.0,0.0,0.0,0.0,0.0,,,,,
arenacam6_1769712093875780031.png,1769712093875780031,1769712093.87578,42.30121690796658,-83.69745264941496,239.40321350097656,0.7126598994009976,0.7014639563751995,0.0049156385881679535,0.006326309309757429,-0.015130000000000001,-0.01913,-0.0012700000000000003,1.1046,0.7888000000000001,-9.6256,4.58636812512379,10.259430313814411,12.579999923706055,12.65999984741211,12.6899995803833,12.859999656677246,10.215075925648613,10.280036601297226,10.304396661067372,10.442438290418758,10.310486869607992,0.004976548817221638,3.700000047683716,23.450000762939453,0.0,0.0,0.0,0.0,0.0,,,,,
arenacam6_1769712093939094812.png,1769712093939094812,1769712093.9390948,42.30122023565075,-83.697452614785,239.41246032714844,0.7125439085201083,0.7015893948120628,0.003958146133160843,0.006150820865526661,0.043140000000000005,-0.0032000000000000006,-0.009330000000000001,0.7734000000000001,0.28550000000000003,-8.8582,4.640150119827912,10.37973740904785,12.84000015258789,12.899999618530273,12.779999732971191,12.960000038146973,10.426198508702774,10.474918628243065,10.377477614770147,10.523639522175694,10.45055856847292,0.006823020336076662,3.9000000953674316,23.67500114440918,0.0,0.0,0.0,0.0,0.0,,,,,
arenacam6_1769712093978880605.png,1769712093978880605,1769712093.9788804,42.30122191484574,-83.69745258652429,239.4167022705078,0.7123571493999382,0.7017910332266506,0.0029434368056761896,0.00528900380370654,0.06985000000000001,-0.003940000000000001,-0.01718,0.6625,-0.6847000000000001,-11.0263,4.6751727962287655,10.458081034795976,13.00999927520752,13.119999885559082,13.039999961853027,12.989999771118164,10.564239363661825,10.65356087347292,10.588600197824306,10.54799958194584,10.588600004226222,0.0124802025339052,3.6000001430511475,23.725000381469727,0.0,0.0,0.0,0.0,0.0,,,,,
arenacam6_1769712093999530966.png,1769712093999530966,1769712093.999531,42.30122276173657,-83.69745257832905,239.4190673828125,0.7122624184649798,0.7018914919754662,0.002575835029027614,0.004893445491139826,0.052180000000000004,0.0036900000000000006,-0.014610000000000001,1.1774,-0.3617,-10.1136,4.694522835213691,10.501365911002916,13.00999927520752,13.09999942779541,13.09999942779541,13.079999923706055,10.564239363661825,10.637320317364598,10.637320317364598,10.621080535648614,10.61499013350991,0.010819946992604355,3.299999952316284,24.17500114440918,0.0,0.0,0.0,0.0,0.0,,,,,
arenacam6_1769712094020219967.png,1769712094020219967,1769712094.0202198,42.301223609367376,-83.69745257409596,239.42123413085938,0.712153010852621,0.7020057608337675,0.002279176142837279,0.004561386396646532,0.04118,0.008600000000000002,-0.01668,1.1338000000000001,-1.0195,-9.3534,4.715573929708679,10.548455946322534,13.149999618530273,13.149999618530273,13.319999694824219,13.079999923706055,10.677920933243065,10.677920933243065,10.815962562594452,10.621080535648614,10.6982212411823,0.01419784048223451,3.1000001430511475,24.024999618530273,0.0,0.0,0.0,0.0,0.0,,,,,
arenacam6_1769712094040800035.png,1769712094040800035,1769712094.0408,42.30122446190393,-83.69745256918841,239.42330932617188,0.7120788054266003,0.7020820699895872,0.0022439164419695186,0.004416639034799387,0.0018600000000000003,0.010890000000000002,-0.005140000000000001,1.0328,-1.1892,-8.59,4.737058014778351,10.596514555578286,13.170000076293945,13.210000038146973,13.309999465942383,13.25,10.694161489351387,10.726641827175694,10.80784228454029,10.759122165,10.746941941516843,0.01419593066659521,2.9000000953674316,23.725000381469727,0.0,0.0,0.0,0.0,0.0,,,,,
arenacam6_1769712094062015972.png,1769712094062015972,1769712094.062016,42.30122531968241,-83.6974525850971,239.42474365234375,0.712041965749985,0.7021177907713009,0.002523043605179318,0.004525609825319072,-0.03694,0.013600000000000001,-0.0028700000000000006,0.8585,-1.1855,-8.6064,4.756761406316248,10.640589860245068,13.15999984741211,13.289999961853027,13.399999618530273,13.34000015258789,10.686041211297226,10.791602502824306,10.880923238243065,10.832203118702774,10.797692517766842,0.014764468848548937,2.9000000953674316,23.850000381469727,0.0,0.0,0.0,0.0,0.0,,,,,
arenacam6_1769712094081177091.png,1769712094081177091,1769712094.081177,42.30122617735192,-83.6974526008589,239.42623901367188,0.7120194732214055,0.7021348429131877,0.0033026146119863927,0.004901515837966921,-0.056760000000000005,0.026600000000000002,0.0021200000000000004,0.8147000000000001,-0.6335000000000001,-9.2086,4.784359671418211,10.702325523382253,13.420000076293945,13.309999465942383,13.460000038146973,13.369999885559082,10.897163794351389,10.80784228454029,10.929644132175694,10.85656317847292,10.872803347385073,0.015929044919289998,2.9000000953674316,23.575000762939453,0.0,0.0,0.0,0.0,0.0,,,,,
arenacam6_1769712094101606820.png,1769712094101606820,1769712094.1016068,42.30122704068631,-83.69745261355901,239.42709350585938,0.7120334406604777,0.7021184519106938,0.003594825136213554,0.005013591524315445,-0.05699000000000001,0.025850000000000005,0.0044,0.9171,-0.4842,-8.8849,4.793706369679632,10.723233526591157,13.559999465942383,13.389999389648438,13.449999809265137,13.479999542236328,11.01084458954029,10.872802960188904,10.921523854121533,10.945883913891679,10.937763829435601,0.020006120571044044,2.9000000953674316,23.649999618530273,0.0,0.0,0.0,0.0,0.0,,,,,
arenacam6_1769712094122467129.png,1769712094122467129,1769712094.122467,42.30122791057145,-83.69745263781368,239.42807006835938,0.7120720101459099,0.7020730474825375,0.0043218164832588045,0.005311333884320389,-0.04222,0.00885,0.007290000000000001,1.2573,-0.35500000000000004,-10.4776,4.834348287923108,10.814147059186718,13.460000038146973,13.469999313354492,13.449999809265137,13.529999732971191,10.929644132175694,10.937763635837516,10.921523854121533,10.986484529770147,10.943854037976221,0.011994194094051648,2.9000000953674316,23.700000762939453,0.0,0.0,0.0,0.0,0.0,,,,,
arenacam6_1769712094143265175.png,1769712094143265175,1769712094.1432652,42.30122877974699,-83.69745266285848,239.42933654785156,0.7120977639461054,0.7020430337602466,0.004671521263686929,0.005525415889230001,-0.03883,0.010080000000000002,0.007800000000000001,1.0499,0.0222,-10.9573,4.854296542748031,10.858770108334781,13.5,13.5,13.420000076293945,13.529999732971191,10.962124470000001,10.962124470000001,10.897163794351389,10.986484529770147,10.951974316030384,0.008583311624220038,2.9000000953674316,23.575000762939453,0.0,0.0,0.0,0.0,0.0,,,,,
arenacam6_1769712094163881855.png,1769712094163881855,1769712094.1638818,42.30122965603113,-83.69745267971838,239.43064880371094,0.7121288732140221,0.702009026047771,0.004803869827292945,0.005719975268277441,-0.016180000000000003,-0.00888,-0.0002800000000000001,1.2133,0.7228,-10.8069,4.879021578563006,10.914078529950732,13.519999504089355,13.519999504089355,13.460000038146973,13.559999465942383,10.978364251715986,10.978364251715986,10.929644132175694,11.01084458954029,10.974304306286989,0.005518173263183259,2.799999952316284,23.649999618530273,0.0,0.0,0.0,0.0,0.0,,,,,
arenacam6_1769712094207254615.png,1769712094207254615,1769712094.2072544,42.30123141847334,-83.6974527229643,239.4348907470703,0.7121036928556558,0.7020330460823014,0.004780339856396787,0.005922936822241483,-0.006180000000000001,-0.009430000000000001,-0.00033000000000000005,0.786,1.3828,-10.2684,4.912185334571684,10.988263862316783,13.679999351501465,13.75999927520752,13.609999656677246,13.719999313354492,11.108285603013211,11.173246278661823,11.051445205418759,11.140765940837518,11.118435756982828,0.011846447837174472,2.6000001430511475,23.899999618530273,0.0,0.0,0.0,0.0,0.0,,,,,
arenacam6_1769712094227136017.png,1769712094227136017,1769712094.227136,42.30123230467126,-83.69745273467711,239.43722534179688,0.7120718862624807,0.7020664030512249,0.0046915806447257674,0.005863750707661156,0.01119,-0.0041600000000000005,-0.007130000000000001,1.0035,0.49360000000000004,-9.8863,4.932603433977234,11.033937925601034,13.59999942779541,13.699999809265137,13.75,13.739999771118164,11.043324927364598,11.124526159121533,11.165126775000001,11.157006496945838,11.122496089607992,0.00802597989984018,2.6000001430511475,23.825000762939453,0.0,0.0,0.0,0.0,0.0,,,,,
arenacam6_1769712094248162186.png,1769712094248162186,1769712094.2481623,42.301233193252536,-83.69745274970512,239.43975830078125,0.7119943060910261,0.7021442570427551,0.004709312942959141,0.005947500940829601,-0.012050000000000002,0.006840000000000001,-0.009770000000000003,0.041,0.1632,-10.0218,4.937698924698827,11.045336232615794,13.90999984741211,13.84999942779541,13.819999694824219,13.719999313354492,11.295048126297226,11.246327232364598,11.221967172594454,11.140765940837518,11.226027118023449,0.01635902082130307,2.6000001430511475,24.225000381469727,0.0,0.0,0.0,0.0,0.0,,,,,
arenacam6_1769712094269061256.png,1769712094269061256,1769712094.2690613,42.301234084408485,-83.69745276249758,239.44219970703125,0.7119176965459516,0.7022204106102115,0.004971467915560638,0.005913778309788872,-0.015620000000000002,0.021640000000000003,-0.007250000000000001,1.8499,0.4928,-9.5051,4.963294273397093,11.102591491932893,13.859999656677246,13.84000015258789,14.019999504089355,13.869999885559082,11.254447510418759,11.238207728702776,11.384368861715986,11.26256778847292,11.28489797232761,0.016420173661904056,2.700000047683716,24.200000762939453,0.0,0.0,0.0,0.0,0.0,,,,,
arenacam6_1769712094289909780.png,1769712094289909780,1769712094.2899098,42.30123497717155,-83.6974527695497,239.4445037841797,0.7118498385681141,0.7022857342416262,0.005192224116465096,0.006131526724580958,-0.03971000000000001,8e-05,-0.007720000000000001,0.39480000000000004,-0.5323,-9.381,4.982975905347197,11.146618121707359,14.0,13.949999809265137,14.0,13.989999771118164,11.368129080000001,11.327528464121533,11.368129080000001,11.36000880194584,11.355948856516843,0.01877975297295106,2.9000000953674316,23.899999618530273,0.0,0.0,0.0,0.0,0.0,,,,,
arenacam6_1769712094330832462.png,1769712094330832462,1769712094.3308325,42.30123677344859,-83.69745280276675,239.44937133789062,0.71176564656221,0.7023588667086801,0.006222469307170884,0.006554967986142996,-0.04741,0.004570000000000001,0.0009100000000000001,1.7304000000000002,0.1515,-9.6559,5.025859052997452,11.242545150012122,14.019999504089355,14.059999465942383,13.869999885559082,14.09999942779541,11.384368861715986,11.416849199540291,11.26256778847292,11.449329537364598,11.37827884677345,0.012073217847933793,3.200000047683716,23.774999618530273,0.0,0.0,0.0,0.0,0.0,,,,,
arenacam6_1769712094351355392.png,1769712094351355392,1769712094.3513553,42.30123767780746,-83.69745280962077,239.45164489746094,0.7117625838395591,0.7023574436324426,0.006497524699533527,0.006769622804374943,-0.028900000000000006,0.00232,-0.0028700000000000006,0.48260000000000003,0.9234,-10.433,5.040239041551374,11.27471232160793,14.139999389648438,13.84000015258789,14.0,14.149999618530273,11.481809875188905,11.238207728702776,11.368129080000001,11.489930153243066,11.394519209283686,0.010626159165599848,3.299999952316284,24.125,0.0,0.0,0.0,0.0,0.0,,,,,
arenacam6_1769712094372322943.png,1769712094372322943,1769712094.3723228,42.301238585840345,-83.69745282080635,239.45468139648438,0.7117108570071147,0.7024096970382089,0.006580822498954137,0.006705691621842355,0.0066500000000000005,0.00935,-0.004130000000000001,1.272,0.7297,-11.1815,5.05769184592573,11.313753197825102,14.109999656677246,14.09000015258789,14.049999237060547,14.109999656677246,11.457449815418759,11.441210033702776,11.40872892148613,11.457449815418759,11.441209646506607,0.011265620387229803,3.299999952316284,24.149999618530273,0.0,0.0,0.0,0.0,0.0,,,,,
arenacam6_1769712094392661058.png,1769712094392661058,1769712094.392661,42.3012394962856,-83.69745282985376,239.45773315429688,0.7116624166973913,0.7024626156062764,0.006281534560557978,0.0065894354524265635,0.039220000000000005,-0.018770000000000002,-0.009800000000000001,1.3072000000000001,0.8062,-10.8347,5.0864597145715384,11.378105193913658,14.1899995803833,14.149999618530273,14.109999656677246,14.219999313354492,11.522410491067372,11.489930153243066,11.457449815418759,11.546770550837518,11.50414025264168,0.011076981323343692,3.299999952316284,23.899999618530273,0.0,0.0,0.0,0.0,0.0,,,,,
arenacam6_1769712094413259543.png,1769712094413259543,1769712094.4132595,42.30124041236002,-83.69745282893072,239.46099853515625,0.7115964969401293,0.7025354204251602,0.00584463584700879,0.006344195961368705,0.04975,-0.009510000000000001,-0.0083,0.5857,0.38520000000000004,-10.021600000000001,5.098274309442588,11.404533733764504,14.179999351501465,14.229999542236328,14.25,14.279999732971191,11.51429021301321,11.554890828891677,11.571131385000001,11.595491444770145,11.558950967918758,0.013539986619276056,3.200000047683716,23.950000762939453,0.0,0.0,0.0,0.0,0.0,,,,,
arenacam6_1769712094432822824.png,1769712094432822824,1769712094.4328227,42.30124133194702,-83.69745283391995,239.46450805664062,0.7115253658189435,0.7026135511454507,0.005372842272125008,0.006081456151030996,0.05191000000000001,-0.020360000000000003,-0.00969,1.1575,0.4888,-9.462100000000001,5.120988197144554,11.455343337720539,14.239999771118164,14.309999465942383,14.420000076293945,14.309999465942383,11.56301110694584,11.619851504540291,11.709173014351387,11.619851504540291,11.627971782594452,0.015069687549693647,3.1000001430511475,23.875,0.0,0.0,0.0,0.0,0.0,,,,,
arenacam6_1769712094453401356.png,1769712094453401356,1769712094.4534013,42.30124225112628,-83.69745283915294,239.4679718017578,0.7114560004673083,0.7026894048025317,0.004925812261110913,0.005804838575984836,0.04995,-0.01043,-0.010790000000000003,0.7885000000000001,-0.42960000000000004,-9.3208,5.137236193816975,11.491689131396944,14.130000114440918,14.329999923706055,14.479999542236328,14.359999656677246,11.47369037152708,11.636092060648613,11.757893133891677,11.66045212041876,11.632031921621532,0.012212546703961191,3.0,24.075000762939453,0.0,0.0,0.0,0.0,0.0,,,,,
arenacam6_1769712094474034998.png,1769712094474034998,1769712094.474035,42.301243177044526,-83.69745283792292,239.470947265625,0.7113941619333458,0.7027533549854128,0.004886472496038431,0.005673694602649248,-0.008820000000000001,0.017060000000000002,0.0011900000000000003,0.21830000000000002,0.47890000000000005,-7.724,5.149759613323224,11.519703269427254,14.369999885559082,14.380000114440918,14.4399995803833,14.469999313354492,11.66857239847292,11.67669267652708,11.725412796067372,11.749772855837517,11.705112681726224,0.016094981612159907,3.0,24.149999618530273,0.0,0.0,0.0,0.0,0.0,,,,,
arenacam6_1769712094496261194.png,1769712094496261194,1769712094.4962611,42.30124410369464,-83.69745284494158,239.47300720214844,0.7113230959526758,0.7028265326095764,0.005001051533163475,0.005413659378159898,0.018480000000000003,0.02111,-0.014300000000000002,1.3811,0.9878,-7.9118,5.173114364764608,11.571946447116543,14.559999465942383,14.489999771118164,14.469999313354492,14.4399995803833,11.822853809540293,11.76601341194584,11.749772855837517,11.725412796067372,11.766013218347755,0.016770451895719626,3.0,23.850000381469727,0.0,0.0,0.0,0.0,0.0,,,,,
arenacam6_1769712094516980571.png,1769712094516980571,1769712094.5169804,42.30124503280154,-83.69745285266639,239.47518920898438,0.7112525102102557,0.7028996331475901,0.0050242582056595755,0.005170035790599383,0.009120000000000001,0.023150000000000004,-0.005180000000000001,0.1426,-1.2697,-9.827300000000001,5.1837250450642545,11.595681902306033,14.569999694824219,14.50999927520752,14.549999237060547,14.489999771118164,11.830974087594452,11.782253193661825,11.81473353148613,11.76601341194584,11.798493556172064,0.01749027401533817,3.1000001430511475,23.975000381469727,0.0,0.0,0.0,0.0,0.0,,,,,
arenacam6_1769712094578913651.png,1769712094578913651,1769712094.5789135,42.30124877826002,-83.69745286816139,239.48143005371094,0.7111384274097903,0.7030144075014536,0.005556422104021527,0.004691063835884215,-0.00799,0.00905,-0.006180000000000001,0.9271,-1.3505,-10.3995,5.245099266332572,11.732972352829984,14.729999542236328,14.609999656677246,14.630000114440918,14.670000076293945,11.96089543889168,11.863454425418759,11.879694981527082,11.912175319351388,11.904055041297227,0.014581359550035715,3.1000001430511475,23.625,0.0,0.0,0.0,0.0,0.0,,,,,
arenacam6_1769712094599867699.png,1769712094599867699,1769712094.5998676,42.301249725454454,-83.69745288000146,239.48365783691406,0.7111540804924733,0.702997004121076,0.005731180449216335,0.004715884472185481,-0.010610000000000003,0.005260000000000001,0.004560000000000001,1.548,0.40180000000000005,-10.657,5.270022588371516,11.78872432883178,14.649999618530273,14.699999809265137,14.719999313354492,14.6899995803833,11.895934763243066,11.936535379121532,11.952775160837517,11.928415101067372,11.928415101067372,0.011849524031531538,2.9000000953674316,23.850000381469727,0.0,0.0,0.0,0.0,0.0,,,,,
arenacam6_1769712094620203525.png,1769712094620203525,1769712094.6202035,42.3012506712631,-83.69745289599317,239.48574829101562,0.7111191536821179,0.7030313064192009,0.005710606712059521,0.004890851860380766,-0.014460000000000002,-0.018150000000000003,-0.007300000000000002,0.9464,-0.6695,-9.9968,5.294806490232334,11.844164430260319,14.889999389648438,14.75999927520752,14.789999961853027,14.739999771118164,12.090816790188905,11.985255498661825,12.009616332824306,11.96901571694584,12.01367608465522,0.014311828866696614,2.6000001430511475,23.67500114440918,0.0,0.0,0.0,0.0,0.0,,,,,
arenacam6_1769712094640715243.png,1769712094640715243,1769712094.6407154,42.30125162916191,-83.697452908827,239.48805236816406,0.7110973897316082,0.7030499720779678,0.005904510699815846,0.005135740594855774,-0.03977,-0.0036700000000000005,0.0028000000000000004,1.5037,-1.2187000000000001,-9.994,5.315211558371755,11.889809343384114,14.6899995803833,14.739999771118164,14.839999198913574,14.789999961853027,11.928415101067372,11.96901571694584,12.050216174310437,12.009616332824306,11.989315831286989,0.008369056645827886,2.299999952316284,23.725000381469727,0.0,0.0,0.0,0.0,0.0,,,,,
arenacam6_1769712094660512201.png,1769712094660512201,1769712094.6605122,42.30125258683885,-83.69745292563967,239.49050903320312,0.7111296968196995,0.7030116563290236,0.006061195757374536,0.005694494941236944,-0.04925000000000001,-0.029730000000000003,0.006410000000000002,0.6397,0.899,-9.9582,5.3360694114411045,11.936467109229065,14.829999923706055,14.880000114440918,14.75,14.869999885559082,12.042096670648615,12.082697286527083,11.977135995,12.07457700847292,12.044126740162154,0.00901938822835178,2.200000047683716,23.725000381469727,0.0,0.0,0.0,0.0,0.0,,,,,
arenacam6_1769712094680989638.png,1769712094680989638,1769712094.6809897,42.301253545903705,-83.69745294755582,239.4929962158203,0.7110695422211416,0.7030673679538377,0.00619652571136842,0.006163222613808083,-0.031240000000000004,-0.015860000000000003,-0.00578,1.3584,-1.2494,-10.3017,5.349052792909945,11.965510154571973,14.809999465942383,14.809999465942383,14.929999351501465,15.039999961853027,12.025856114540291,12.025856114540291,12.123297128013212,12.212618637824306,12.096906998729525,0.010981298955092632,1.8000000715255737,23.825000762939453,0.0,0.0,0.0,0.0,0.0,,,,,
arenacam6_1769712094701566028.png,1769712094701566028,1769712094.701566,42.30125451071882,-83.69745296061271,239.49542236328125,0.7110892456384736,0.7030411661407631,0.006382941225083699,0.006667946464966438,-0.048830000000000005,-0.007440000000000001,0.005190000000000001,0.1806,0.595,-9.325800000000001,5.3706728192196,12.013872856225092,14.809999465942383,15.0,15.0,14.960000038146973,12.025856114540291,12.180138300000001,12.180138300000001,12.147657962175694,12.133447669178997,0.009953061297127547,1.8000000715255737,23.75,0.0,0.0,0.0,0.0,0.0,,,,,
arenacam6_1769712094722239092.png,1769712094722239092,1769712094.722239,42.30125547540293,-83.69745297623614,239.49745178222656,0.7110748364778857,0.703053246387898,0.006538703593063303,0.006779013697251567,-0.007820000000000002,0.008830000000000003,-0.0032800000000000004,0.5973,1.1685,-8.4642,5.379252948456958,12.033066090521308,15.09999942779541,14.960000038146973,15.109999656677246,15.029999732971191,12.261338757364596,12.147657962175694,12.269459035418759,12.204498359770147,12.220738528682299,0.015596393865801545,1.8000000715255737,23.649999618530273,0.0,0.0,0.0,0.0,0.0,,,,,
arenacam6_1769712094743071773.png,1769712094743071773,1769712094.7430718,42.3012564420546,-83.69745299684111,239.4996795654297,0.7110605669149711,0.7030677801054555,0.006581565590106333,0.006726793480564335,0.0006700000000000001,0.00949,0.0005600000000000002,0.766,-0.3186,-9.6567,5.396904995005129,12.072552659526774,15.149999618530273,15.130000114440918,15.029999732971191,15.079999923706055,12.301939373243066,12.28569959152708,12.204498359770147,12.245098975648615,12.259309075047227,0.015469505148364638,1.899999976158142,23.5,0.0,0.0,0.0,0.0,0.0,,,,,
arenacam6_1769712094826960840.png,1769712094826960840,1769712094.8269608,42.30126034628211,-83.69745304766334,239.50997924804688,0.7110213979404717,0.703104291652654,0.006780268598337501,0.006852349095860683,-0.02136,-0.016220000000000002,-0.0013200000000000002,0.7212000000000001,0.35500000000000004,-10.6569,5.469076965094187,12.233997026297791,15.149999618530273,15.179999351501465,15.319999694824219,15.25999927520752,12.301939373243066,12.326299433013212,12.439981002594452,12.391260108661823,12.364869979378138,0.010697481191063481,2.1000001430511475,22.975000381469727,0.0,0.0,0.0,0.0,0.0,,,,,
arenacam6_1769712094847832871.png,1769712094847832871,1769712094.847833,42.301261330210195,-83.69745306344471,239.51368713378906,0.7110138092441656,0.703108342909447,0.006875669891470886,0.007123647855979432,-0.031720000000000005,-0.018880000000000004,0.00075,1.0271000000000001,-0.16920000000000002,-10.003300000000001,5.486567090855339,12.273121388217943,15.269999504089355,15.359999656677246,15.199999809265137,15.25999927520752,12.399380386715984,12.472461340418759,12.342539989121533,12.391260108661823,12.401410456229526,0.010452847645973642,2.0,23.05000114440918,0.0,0.0,0.0,0.0,0.0,,,,,
arenacam6_1769712094867330639.png,1769712094867330639,1769712094.8673306,42.301262314527705,-83.69745307681474,239.51734924316406,0.7109979000108552,0.7031196983929611,0.007021808425314334,0.007441110023622798,-0.028050000000000005,-0.012360000000000001,-0.0002800000000000001,0.7594000000000001,1.0944,-9.783900000000001,5.502834200408764,12.309509936262382,15.25999927520752,15.389999389648438,15.429999351501465,15.380000114440918,12.391260108661823,12.496821400188903,12.529301738013212,12.48870189652708,12.476521285847754,0.013567668449040095,2.0,23.350000381469727,0.0,0.0,0.0,0.0,0.0,,,,,
arenacam6_1769712094887964611.png,1769712094887964611,1769712094.8879647,42.30126330693066,-83.69745309005982,239.5209503173828,0.7109509983377377,0.703165126544447,0.006958352237614972,0.007685317719104886,-0.011070000000000002,-0.027330000000000004,-0.008780000000000001,0.6134000000000001,0.4893,-9.9677,5.520955612898207,12.350046448716515,15.380000114440918,15.299999237060547,15.319999694824219,15.420000076293945,12.48870189652708,12.42374044648613,12.439981002594452,12.521182234351388,12.468401394989762,0.009583360416069253,2.1000001430511475,23.149999618530273,0.0,0.0,0.0,0.0,0.0,,,,,
arenacam6_1769712094908632422.png,1769712094908632422,1769712094.9086323,42.30126429851624,-83.69745309592611,239.5247802734375,0.7109184874782717,0.7032003593189092,0.006809268143301256,0.0076021498745948435,0.029290000000000004,0.0027100000000000006,-0.0022700000000000003,0.5465,1.3235000000000001,-9.368400000000001,5.5278975019420304,12.365575037994207,15.449999809265137,15.40999984741211,15.4399995803833,15.449999809265137,12.545542294121534,12.513061956297227,12.53742201606737,12.545542294121534,12.535392140151917,0.01373305338699846,2.200000047683716,23.125,0.0,0.0,0.0,0.0,0.0,,,,,
arenacam6_1769712094929293842.png,1769712094929293842,1769712094.9292939,42.3012652940084,-83.697453106717,239.5283966064453,0.7108564527118426,0.703268794077763,0.0064118072267730685,0.007415904694080815,0.040080000000000005,-0.025030000000000004,-0.010730000000000002,1.1638,-0.2336,-9.437000000000001,5.555812338608741,12.428018852727437,15.460000038146973,15.4399995803833,15.479999542236328,15.479999542236328,12.553662572175694,12.53742201606737,12.56990235389168,12.56990235389168,12.557722324006605,0.010436375484794445,2.200000047683716,23.350000381469727,0.0,0.0,0.0,0.0,0.0,,,,,
arenacam6_1769712094949985575.png,1769712094949985575,1769712094.9499855,42.3012662941951,-83.69745310983528,239.53173828125,0.7108449019674971,0.7032848115329369,0.006130407250245195,0.007239980721454379,0.032150000000000005,-0.0038200000000000005,-0.0025700000000000007,0.5785,0.3924,-9.754900000000001,5.565097385352306,12.448788945189989,15.489999771118164,15.649999618530273,15.559999465942383,15.519999504089355,12.578022631945839,12.707943983243066,12.634863029540291,12.602382691715986,12.630803084111296,0.014621031790536889,2.200000047683716,23.0,0.0,0.0,0.0,0.0,0.0,,,,,
arenacam6_1769712094970703637.png,1769712094970703637,1769712094.9707036,42.30126729707452,-83.69745311566747,239.5352783203125,0.7107933041259312,0.7033412947163848,0.005799054762790008,0.007090339926913154,0.03332,-0.021690000000000004,-0.006270000000000001,1.2585,0.31170000000000003,-10.035300000000001,5.5892097306429225,12.50272681486438,15.519999504089355,15.529999732971191,15.609999656677246,15.59999942779541,12.602382691715986,12.610502969770145,12.675463645418759,12.667343367364598,12.638923168567374,0.010893331968276822,2.299999952316284,23.25,0.0,0.0,0.0,0.0,0.0,,,,,
arenacam6_1769712094991409612.png,1769712094991409612,1769712094.9914098,42.30126829921014,-83.69745312355633,239.5387420654297,0.7107613425141746,0.7033767788175097,0.005405196221829178,0.007085538903708428,0.008530000000000001,-0.017970000000000003,-0.00487,0.6112000000000001,-0.16340000000000002,-9.3289,5.610228649779206,12.549744875837098,15.639999389648438,15.579999923706055,15.670000076293945,15.59999942779541,12.699823705188903,12.651103585648613,12.724184539351388,12.667343367364598,12.685613799388374,0.010826429134258707,2.299999952316284,23.125,0.0,0.0,0.0,0.0,0.0,,,,,
arenacam6_1769712095012065013.png,1769712095012065013,1769712095.012065,42.30126930986095,-83.69745312867697,239.54193115234375,0.7107488039185942,0.7033894527183133,0.005281087932994782,0.007178136468699905,-0.0004000000000000001,-0.01947,-0.00042000000000000007,0.9850000000000001,-0.10250000000000001,-9.721400000000001,5.628453767807539,12.590513371359396,15.670000076293945,15.579999923706055,15.559999465942383,15.630000114440918,12.724184539351388,12.651103585648613,12.634863029540291,12.691704201527081,12.675463839016844,0.00674718060747954,2.299999952316284,23.42500114440918,0.0,0.0,0.0,0.0,0.0,,,,,
arenacam6_1769712095032809749.png,1769712095032809749,1769712095.0328097,42.301270321655956,-83.69745313759863,239.54525756835938,0.7107507745857724,0.7033870294425831,0.005225120009951124,0.0072609474963634246,-0.0038700000000000006,-0.019530000000000002,0.00039000000000000005,0.8397,0.2018,-9.965300000000001,5.637119004732901,12.609896986447218,15.579999923706055,15.719999313354492,15.729999542236328,15.75,12.651103585648613,12.764784380837519,12.772904658891678,12.789145215000001,12.744484460094451,0.01067316202439118,2.299999952316284,23.524999618530273,0.0,0.0,0.0,0.0,0.0,,,,,
arenacam6_1769712095053566294.png,1769712095053566294,1769712095.0535662,42.30127133243682,-83.69745314177383,239.5489044189453,0.7107460397417809,0.7033896447943452,0.005062963999894388,0.007578982978976621,-0.01675,-0.026620000000000005,-0.0018400000000000003,0.5054000000000001,-0.30760000000000004,-9.5016,5.656485792669833,12.653219329054856,15.670000076293945,15.75,15.719999313354492,15.789999961853027,12.724184539351388,12.789145215000001,12.764784380837519,12.821625552824306,12.774934922003304,0.009619337955279033,2.4000000953674316,23.524999618530273,0.0,0.0,0.0,0.0,0.0,,,,,
arenacam6_1769712095074097215.png,1769712095074097215,1769712095.0740972,42.30127235051894,-83.69745314953516,239.55197143554688,0.7107665300692007,0.7033674504610805,0.005036105951578497,0.007733498698009841,-0.0027300000000000007,-0.00941,0.00169,0.3521,1.0995000000000001,-9.1914,5.6632901194132765,12.668440199720335,15.75,15.829999923706055,15.84999942779541,15.799999237060547,12.789145215000001,12.854105890648613,12.870345672364598,12.82974505648613,12.835835458624837,0.013213565069218041,2.4000000953674316,23.30000114440918,0.0,0.0,0.0,0.0,0.0,,,,,
arenacam6_1769712095095782348.png,1769712095095782348,1769712095.0957825,42.30127336844608,-83.69745315333681,239.5552520751953,0.7107225905228227,0.7034124585165545,0.004954223710105007,0.007730989047648133,0.004570000000000001,-0.00854,-0.006550000000000001,0.9400000000000001,-0.2106,-8.9281,5.683204924000129,12.712988422692849,15.829999923706055,15.789999961853027,15.960000038146973,15.960000038146973,12.854105890648613,12.821625552824306,12.959667182175693,12.959667182175693,12.898766451956076,0.01461324616103726,2.4000000953674316,23.25,0.0,0.0,0.0,0.0,0.0,,,,,
arenacam6_1769712095116933149.png,1769712095116933149,1769712095.116933,42.30127438708707,-83.6974531596041,239.5584259033203,0.7107347323364864,0.7034003843381167,0.00490239064515329,0.007746362342094112,0.004600000000000001,-0.009850000000000003,0.0018200000000000002,0.2641,0.4305,-9.0526,5.686145950748811,12.719567323068047,15.889999389648438,15.960000038146973,16.010000228881836,15.9399995803833,12.902826010188903,12.959667182175693,13.00026779805416,12.943426626067373,12.951546904121532,0.01823800882226316,2.4000000953674316,23.725000381469727,0.0,0.0,0.0,0.0,0.0,,,,,
arenacam6_1769712095137517389.png,1769712095137517389,1769712095.1375172,42.30127541279407,-83.69745316721564,239.56080627441406,0.7107235914549465,0.7034138722518299,0.0048532295452586634,0.0075727825830036065,0.017310000000000002,0.011040000000000001,-0.00578,0.9321,0.0806,-9.1865,5.699632016951518,12.749734843999528,15.969999313354492,15.920000076293945,15.920000076293945,15.9399995803833,12.967786685837519,12.927186844351388,12.927186844351388,12.943426626067373,12.941396750151917,0.015032618991491525,2.4000000953674316,23.649999618530273,0.0,0.0,0.0,0.0,0.0,,,,,
arenacam6_1769712095158954187.png,1769712095158954187,1769712095.1589541,42.30127643967378,-83.6974531749864,239.56326293945312,0.7106698535221718,0.7034692225370868,0.004814240166966667,0.007499021899968036,0.0015900000000000003,-0.0024100000000000002,-0.0070100000000000015,0.8608,-0.8490000000000001,-9.3396,5.721723061324163,12.799151184798475,15.9399995803833,15.969999313354492,16.100000381469727,15.979999542236328,12.943426626067373,12.967786685837519,13.073348751756935,12.975906963891678,12.990117256888375,0.014920213796420327,2.200000047683716,23.75,0.0,0.0,0.0,0.0,0.0,,,,,
arenacam6_1769712095178985058.png,1769712095178985058,1769712095.1789849,42.30127746470952,-83.69745318101269,239.56581115722656,0.7106827470453382,0.7034551782773002,0.004943087422084661,0.007510731900499556,-0.010330000000000002,0.013280000000000002,0.00099,0.24500000000000002,0.0688,-9.3794,5.728013038733651,12.813221486864853,16.029998779296875,15.989999771118164,16.010000228881836,16.010000228881836,13.016506805377809,12.98402724194584,13.00026779805416,13.00026779805416,13.000267410857992,0.014597884238939022,2.200000047683716,23.80000114440918,0.0,0.0,0.0,0.0,0.0,,,,,
arenacam6_1769712095199434094.png,1769712095199434094,1769712095.199434,42.30127849876623,-83.69745319597811,239.56759643554688,0.7106448048005397,0.7034888075888561,0.00534888532360551,0.00767127323247775,-0.034550000000000004,0.009010000000000002,0.0024200000000000003,0.4071,0.19820000000000002,-9.5067,5.753065602068389,12.869262567890864,16.1299991607666,16.19999885559082,16.029998779296875,16.100000381469727,13.097708037134742,13.154548434729195,13.016506805377809,13.073348751756935,13.085528007249671,0.016804804332642555,2.1000001430511475,23.625,0.0,0.0,0.0,0.0,0.0,,,,,
arenacam6_1769712095218950098.png,1769712095218950098,1769712095.21895,42.301279533153156,-83.69745321029562,239.56968688964844,0.7106329471601074,0.7034946589722743,0.005776937926052812,0.0079187244062346,-0.05795000000000001,0.0054800000000000005,-0.005300000000000001,0.8621000000000001,-1.1474,-9.9633,5.770867898517473,12.909085236909677,15.989999771118164,16.239999771118164,16.049999237060547,16.06999969482422,12.98402724194584,13.18702954694584,13.03274736148613,13.048987917594452,13.063198016993066,0.011938319195751374,2.1000001430511475,23.774999618530273,0.0,0.0,0.0,0.0,0.0,,,,,
arenacam6_1769712095262041544.png,1769712095262041544,1769712095.2620416,42.3012826504269,-83.6974532592822,239.57632446289062,0.7106017728476955,0.7035124972410105,0.006653222088449736,0.00842741284564369,-0.026740000000000003,0.007970000000000001,-0.009010000000000002,0.7935,0.8085,-10.7825,5.794215570522663,12.961312578324968,16.229999542236328,16.270000457763672,16.209999084472656,16.19999885559082,13.178909268891678,13.211390381108323,13.162668712783356,13.154548434729195,13.176879199378138,0.016631542503932804,2.200000047683716,23.75,0.0,0.0,0.0,0.0,0.0,,,,,
arenacam6_1769712095282425370.png,1769712095282425370,1769712095.2824254,42.30128369010113,-83.69745327065368,239.5789794921875,0.7105665172070803,0.7035467427757202,0.006824521837151577,0.00840424033263086,-0.0048400000000000006,0.028200000000000003,-0.0036800000000000005,0.18730000000000002,0.7938000000000001,-10.655800000000001,5.799169548225948,12.972394329208553,16.279998779296875,16.239999771118164,16.170000076293945,16.350000381469727,13.219509110377807,13.18702954694584,13.130189149351388,13.276351056756935,13.203269715857992,0.017797438220760946,2.299999952316284,23.850000381469727,0.0,0.0,0.0,0.0,0.0,,,,,
arenacam6_1769712095301799611.png,1769712095301799611,1769712095.3017998,42.30128473660501,-83.69745328129395,239.58169555664062,0.7105015850271443,0.7036153382340843,0.006785409054547003,0.008179957188964311,0.027400000000000004,0.013310000000000002,-0.007980000000000001,1.071,0.9631000000000001,-10.0617,5.817942466696854,13.014388221452862,16.350000381469727,16.279998779296875,16.299999237060547,16.329999923706055,13.276351056756935,13.219509110377807,13.23574966648613,13.260110500648613,13.247930083567372,0.01794489745814873,2.299999952316284,24.225000381469727,0.0,0.0,0.0,0.0,0.0,,,,,
arenacam6_1769712095322544314.png,1769712095322544314,1769712095.3225443,42.301285784344515,-83.69745328953226,239.58480834960938,0.7104322279434836,0.7036970907586355,0.006362554477381313,0.007481434194923808,0.05102000000000001,0.00974,-0.013060000000000002,0.652,-0.8339000000000001,-10.0219,5.8396077881303174,13.062852245580233,16.35999870300293,16.329999923706055,16.440000534057617,16.34000015258789,13.28446978602642,13.260110500648613,13.34943201045971,13.268230778702774,13.290560768959379,0.017431761387042433,2.299999952316284,23.80000114440918,0.0,0.0,0.0,0.0,0.0,,,,,
arenacam6_1769712095343194610.png,1769712095343194610,1769712095.3431947,42.30128683198934,-83.69745329799348,239.58802795410156,0.7104392745574953,0.7036935952973629,0.00631660845953581,0.00717367139334552,0.018940000000000002,0.021840000000000005,0.0031000000000000003,0.9769000000000001,0.0145,-10.3179,5.852965636494834,13.092732950900755,16.40999984741211,16.309999465942383,16.420000076293945,16.350000381469727,13.325071176297227,13.24386994454029,13.333191454351388,13.276351056756935,13.29462090798646,0.01541984838786578,2.299999952316284,23.950000762939453,0.0,0.0,0.0,0.0,0.0,,,,,
arenacam6_1769712095363917513.png,1769712095363917513,1769712095.3639176,42.30128788653127,-83.69745331106455,239.5908966064453,0.7104443046015566,0.7036896801701726,0.00627770673893833,0.007093270001251192,0.01692,0.00578,0.00124,0.9179,0.5206000000000001,-10.031,5.8623025828834345,13.11361913975527,16.459999084472656,16.459999084472656,16.469999313354492,16.459999084472656,13.365671017783358,13.365671017783358,13.373791295837517,13.365671017783358,13.367701087296897,0.01937542526085354,2.299999952316284,23.92500114440918,0.0,0.0,0.0,0.0,0.0,,,,,
arenacam6_1769712095384765146.png,1769712095384765146,1769712095.3847651,42.30128894308033,-83.69745332388995,239.59457397460938,0.7104558819252174,0.7036777102855433,0.006383982906495775,0.007025997965146385,-0.020430000000000004,0.011120000000000001,0.0053100000000000005,0.9244,-0.379,-10.4283,5.88689600948848,13.168633159465163,16.3799991607666,16.43000030517578,16.35999870300293,16.5,13.300710342134742,13.341311732405547,13.28446978602642,13.39815213,13.331160997641678,0.0123420431117178,2.299999952316284,23.774999618530273,0.0,0.0,0.0,0.0,0.0,,,,,
arenacam6_1769712095411129347.png,1769712095411129347,1769712095.4111292,42.301289999772834,-83.69745333276859,239.5982666015625,0.7104757198316849,0.7036541064153145,0.006517343493900025,0.007257705442960649,-0.023670000000000004,-0.004810000000000001,0.0030400000000000006,0.3912,1.0323,-10.5432,5.899449927707866,13.196715521286833,16.510000228881836,16.489999771118164,16.479999542236328,16.520000457763672,13.406272408054162,13.39003185194584,13.381911573891678,13.414392686108322,13.398152130000001,0.015264147233320494,2.299999952316284,24.125,0.0,0.0,0.0,0.0,0.0,,,,,
arenacam6_1769712095510280798.png,1769712095510280798,1769712095.5102806,42.30129533960863,-83.69745338201648,239.61593627929688,0.7103391788786889,0.7037928810860177,0.006257182189651491,0.007394535390280428,0.009300000000000001,-0.011940000000000001,-0.0028000000000000004,0.3453,-0.2041,-9.253300000000001,5.9800287933389695,13.376965608971675,16.579999923706055,16.75,16.770000457763672,16.729999542236328,13.463112805648613,13.601154435,13.617394991108322,13.58491387889168,13.566644027662154,0.014179480177721682,2.299999952316284,23.950000762939453,0.0,0.0,0.0,0.0,0.0,,,,,
arenacam6_1769712095531215544.png,1769712095531215544,1769712095.5312157,42.301296412971034,-83.69745338828821,239.61915588378906,0.7103182593347518,0.7038152748484676,0.00617492133533483,0.007341640969599916,0.011780000000000002,-0.0030300000000000006,-0.0036400000000000004,0.5314,0.6744,-9.3073,5.989774060979115,13.398765187966623,16.69999885559082,16.65999984741211,16.809999465942383,16.760000228881836,13.560553044729195,13.528073481297227,13.649874554540292,13.609274713054162,13.586943948405219,0.014044485278956815,2.299999952316284,24.25,0.0,0.0,0.0,0.0,0.0,,,,,
arenacam6_1769712095551654639.png,1769712095551654639,1769712095.5516546,42.30129749260769,-83.69745339913909,239.6217041015625,0.7102990463333915,0.7038379877067935,0.006013010623969873,0.007155106006343552,0.029920000000000006,0.00117,-0.00316,0.5861000000000001,-0.0823,-8.933,6.002735970163292,13.427760201097076,16.729999542236328,16.78999900817871,16.739999771118164,16.729999542236328,13.58491387889168,13.63363399843197,13.593034156945839,13.58491387889168,13.599123978290294,0.012761903297857296,2.299999952316284,24.100000381469727,0.0,0.0,0.0,0.0,0.0,,,,,
arenacam6_1769712095572131346.png,1769712095572131346,1769712095.5721314,42.30129856922305,-83.69745340325854,239.6240234375,0.710322950954335,0.7038171366351823,0.005916701584289472,0.006909136598822655,0.023080000000000003,0.010920000000000003,0.0026500000000000004,0.0697,0.6017,-9.3306,6.006407869679117,13.435974020000005,16.959999084472656,16.760000228881836,16.869998931884766,16.84000015258789,13.771675627783356,13.609274713054162,13.698594674080582,13.674235388702774,13.688445100905218,0.01879067944976668,2.4000000953674316,23.950000762939453,0.0,0.0,0.0,0.0,0.0,,,,,
arenacam6_1769712095592831781.png,1769712095592831781,1769712095.5928319,42.30129964600523,-83.69745340551124,239.6264190673828,0.7103033967154943,0.7038418225833782,0.005895204356706063,0.00640468285957587,0.04143000000000001,0.03642,-0.005330000000000001,0.7186,0.3834,-9.564300000000001,6.012982145754914,13.450680281124999,16.85999870300293,16.94999885559082,16.899999618530273,16.809999465942383,13.690474396026422,13.763555349729195,13.722955508243064,13.649874554540292,13.706714952134742,0.019035072253485233,2.4000000953674316,24.30000114440918,0.0,0.0,0.0,0.0,0.0,,,,,
arenacam6_1769712095612430545.png,1769712095612430545,1769712095.6124306,42.30130072919711,-83.69745341164511,239.62835693359375,0.7102975766473918,0.7038521444559199,0.005807061404225395,0.0059824235467731334,0.03407,0.021270000000000004,0.0017500000000000003,0.6559,-0.2393,-9.9376,6.031263410877546,13.491574374328419,17.010000228881836,17.10999870300293,17.010000228881836,16.989999771118164,13.812277018054163,13.89347670102642,13.812277018054163,13.796036461945839,13.828516799770146,0.02497428514220373,2.5,23.92500114440918,0.0,0.0,0.0,0.0,0.0,,,,,
arenacam6_1769712095633132750.png,1769712095633132750,1769712095.6331327,42.30130181241473,-83.69745341569002,239.63050842285156,0.7102841992009138,0.7038682260820772,0.005880732149803124,0.005594074272699665,0.018730000000000004,0.03458,-0.0034700000000000004,0.6445000000000001,0.2136,-9.6617,6.041416183138298,13.514285516709386,17.09000015258789,17.0,17.059999465942383,16.940000534057617,13.877237693702774,13.80415674,13.852876859540292,13.75543662045971,13.822426978425694,0.022801165576627435,2.5,23.92500114440918,0.0,0.0,0.0,0.0,0.0,,,,,
arenacam6_1769712095653718047.png,1769712095653718047,1769712095.653718,42.30130289823723,-83.69745342001023,239.632568359375,0.7102581604577304,0.7038968149768361,0.005944497209211128,0.005223248184462624,0.019880000000000002,0.02415,-0.003650000000000001,1.6518000000000002,-0.6415000000000001,-10.102400000000001,6.068120235578847,13.574020879775746,16.989999771118164,17.03999900817871,17.029998779296875,17.020000457763672,13.796036461945839,13.83663630343197,13.828516025377809,13.820397296108322,13.820396521715985,0.018150527697162983,2.4000000953674316,23.975000381469727,0.0,0.0,0.0,0.0,0.0,,,,,
arenacam6_1769712095675734966.png,1769712095675734966,1769712095.675735,42.30130399076077,-83.69745342972034,239.63442993164062,0.7102419808063978,0.7039123758568956,0.006077067218881994,0.005173496856302847,-0.01589,0.00987,0.00079,0.9523,-0.9209,-10.223,6.089462893556077,13.621763125111332,17.0,17.010000228881836,17.049999237060547,17.059999465942383,13.80415674,13.812277018054163,13.844756581486129,13.852876859540292,13.828516799770146,0.015178187490110491,2.299999952316284,23.850000381469727,0.0,0.0,0.0,0.0,0.0,,,,,
arenacam6_1769712095696280633.png,1769712095696280633,1769712095.6962805,42.30130508411666,-83.69745344226357,239.63674926757812,0.7102426305715991,0.7039081309059807,0.0063567426315289275,0.005323606512487735,-0.031970000000000005,0.009800000000000001,-0.00203,0.33140000000000003,-0.062200000000000005,-10.1982,6.095728335048489,13.635778541803367,17.100000381469727,17.06999969482422,17.119998931884766,17.0,13.885357971756937,13.860997137594453,13.901596979080582,13.80415674,13.863027207107994,0.016665617192883262,2.0,23.67500114440918,0.0,0.0,0.0,0.0,0.0,,,,,
arenacam6_1769712095717059344.png,1769712095717059344,1769712095.7170594,42.30130618107987,-83.69745345984741,239.63912963867188,0.7102412993690729,0.7039037593380488,0.006750105046868943,0.005588411415564097,-0.05821000000000001,-0.0013900000000000002,0.004130000000000001,1.4638,-1.7100000000000002,-10.0427,6.123375245899538,13.697623022562514,16.989999771118164,17.149999618530273,17.06999969482422,17.06999969482422,13.796036461945839,13.925957813243066,13.860997137594453,13.860997137594453,13.860997137594453,0.011927187276422445,2.0,23.850000381469727,0.0,0.0,0.0,0.0,0.0,,,,,
arenacam6_1769712095737945982.png,1769712095737945982,1769712095.7379458,42.30130728266258,-83.69745348102704,239.6415557861328,0.7103370954525616,0.7037910570713134,0.007531204796415519,0.006529913075682261,-0.06382000000000002,0.005690000000000001,0.00491,-0.09960000000000001,1.5241,-10.4221,6.129282034262218,13.710836153722527,17.270000457763672,17.15999984741211,17.079999923706055,17.10999870300293,14.023399601108322,13.934078091297227,13.869117415648613,13.89347670102642,13.930017952270147,0.015986027116815297,2.0,24.125,0.0,0.0,0.0,0.0,0.0,,,,,
arenacam6_1769712095758619196.png,1769712095758619196,1769712095.758619,42.30130838363446,-83.69745349997272,239.64451599121094,0.7103387513772743,0.7037830841433853,0.007870355453934282,0.006803401386684638,-0.04691000000000001,-0.006010000000000001,0.0015300000000000003,1.5708,-0.9159,-11.009500000000001,6.151723995262883,13.761037473963356,17.28999900817871,17.139999389648438,17.079999923706055,17.239999771118164,14.03963860843197,13.917837535188903,13.869117415648613,13.999038766945839,13.95640808155383,0.014197374868001517,1.899999976158142,23.850000381469727,0.0,0.0,0.0,0.0,0.0,,,,,
arenacam6_1769712095780406239.png,1769712095780406239,1769712095.7804062,42.30130948877994,-83.69745352557493,239.64768981933594,0.7104125123096148,0.7037017117029319,0.008060729272772795,0.007279281825563967,-0.039830000000000004,-0.023760000000000003,0.013820000000000002,0.1554,0.9639000000000001,-10.780100000000001,6.167181097827535,13.795614084974327,17.06999969482422,17.260000228881836,17.18000030517578,17.149999618530273,13.860997137594453,14.01527932305416,13.950318647405549,13.925957813243066,13.938138230324308,0.010331120055410425,1.8000000715255737,24.100000381469727,0.0,0.0,0.0,0.0,0.0,,,,,
