image_filename,timestamp_ns,timestamp_sec,latitude,longitude,altitude,orientation_x,orientation_y,orientation_z,orientation_w,angular_velocity_x,angular_velocity_y,angular_velocity_z,linear_acceleration_x,linear_acceleration_y,linear_acceleration_z,vehicle_speed_mps,vehicle_speed_mph,wheel_speed_fl_rads,wheel_speed_fr_rads,wheel_speed_rl_rads,wheel_speed_rr_rads,wheel_speed_fl_mph,wheel_speed_fr_mph,wheel_speed_rl_mph,wheel_speed_rr_mph,avg_wheel_speed_mph,wheel_slip,steering_angle_deg,throttle_pedal,brake_pedal,brake_torque_actual,abs_active,esc_active,trac_active,marwis_road_condition,marwis_friction,marwis_surface_temp_c,marwis_ice_percent,marwis_water_film_height
arenacam6_1769615125128223897.png,1769615125128223897,1769615125.128224,42.299432159178,-83.69754834855411,234.30201721191406,0.726522185034057,0.6870484442352176,0.006062587070351238,0.009653753949665427,-9e-05,0.00109,0.0014600000000000004,-0.1038,0.189,-9.8283,-0.010925199864228432,0.02443901658428715,4.170000076293945,4.210000038146973,4.259999752044678,4.289999961853027,3.386078509351387,3.4185588471756936,3.4591590758579924,3.4835195228243068,3.436828988802345,0.0,1.3000000715255737,28.700000762939453,0.0,0.0,0.0,0.0,0.0,snow covered,0.22406142950058,-9.99979400634766,100.0,480.957305908203
arenacam6_1769615125148369909.png,1769615125148369909,1769615125.14837,42.29943216015609,-83.6975483504122,234.3020477294922,0.7265309595180056,0.6870389816135091,0.006064609286291864,0.009665563590572754,-0.00030000000000000003,-9e-05,0.0008500000000000001,-0.049,0.2836,-9.769,-0.010967277693414348,0.024533142163506293,4.170000076293945,4.210000038146973,4.259999752044678,4.289999961853027,3.386078509351387,3.4185588471756936,3.4591590758579924,3.4835195228243068,3.436828988802345,0.0,1.3000000715255737,28.700000762939453,0.0,0.0,0.0,0.0,0.0,snow covered,0.22406142950058,-9.99979400634766,100.0,480.957305908203
arenacam6_1769615125167861626.png,1769615125167861626,1769615125.1678615,42.29943216085262,-83.69754835233113,234.30210876464844,0.7265355428337725,0.6870342210066182,0.006068680968066474,0.009656877154280359,0.00075,0.0015300000000000003,0.00136,-0.1364,0.21730000000000002,-9.8274,-0.012276713144189376,0.027462270700762983,4.170000076293945,4.210000038146973,4.259999752044678,4.289999961853027,3.386078509351387,3.4185588471756936,3.4591590758579924,3.4835195228243068,3.436828988802345,0.0,1.3000000715255737,28.700000762939453,0.0,0.0,0.0,0.0,0.0,snow covered,0.22406142950058,-9.99979400634766,100.0,480.957305908203
arenacam6_1769615125188495065.png,1769615125188495065,1769615125.1884952,42.29943215865684,-83.6975483508648,234.30215454101562,0.7265301305854752,0.6870399865301066,0.006073883696756606,0.009650606043239996,0.0007100000000000001,0.0015400000000000001,-0.00144,-0.0307,0.25370000000000004,-9.7818,-0.012543650259585001,0.028059393011676075,4.170000076293945,4.210000038146973,4.259999752044678,4.289999961853027,3.386078509351387,3.4185588471756936,3.4591590758579924,3.4835195228243068,3.436828988802345,0.0,1.3000000715255737,28.700000762939453,0.0,0.0,0.0,0.0,0.0,snow covered,0.22406142950058,-9.99979400634766,100.0,480.957305908203
arenacam6_1769615125209320311.png,1769615125209320311,1769615125.2093203,42.2994321591521,-83.69754835229533,234.30218505859375,0.7265351527946122,0.687034617260509,0.006065052949387874,0.009660309111852236,0.00025000000000000006,-0.0020800000000000003,0.0008700000000000001,-0.078,0.2442,-9.7842,-0.012328758341596887,0.02757869268465174,4.170000076293945,4.210000038146973,4.259999752044678,4.289999961853027,3.386078509351387,3.4185588471756936,3.4591590758579924,3.4835195228243068,3.436828988802345,0.0,1.3000000715255737,28.700000762939453,0.0,0.0,0.0,0.0,0.0,snow covered,0.22406142950058,-9.99979400634766,100.0,480.957305908203
arenacam6_1769615125229942053.png,1769615125229942053,1769615125.229942,42.299432159807296,-83.69754835368292,234.3022003173828,0.7265349103602451,0.6870348635519683,0.006077997652840141,0.00965288746908791,0.00031,-0.00034,-0.0006700000000000001,-0.0485,0.22030000000000002,-9.7894,-0.013011263212766347,0.029105415131165553,4.170000076293945,4.210000038146973,4.259999752044678,4.289999961853027,3.386078509351387,3.4185588471756936,3.4591590758579924,3.4835195228243068,3.436828988802345,0.0,1.3000000715255737,28.700000762939453,0.0,0.0,0.0,0.0,0.0,snow covered,0.22406142950058,-9.99979400634766,100.0,480.957305908203
arenacam6_1769615125250581130.png,1769615125250581130,1769615125.2505813,42.29943215775595,-83.69754835195604,234.30223083496094,0.7265464035855993,0.6870227377683894,0.006093017449823967,0.00964138809584425,-0.0004500000000000001,0.0006000000000000001,0.0012100000000000001,0.09430000000000001,0.2406,-9.6973,-0.010784534706038185,0.024124357065325057,4.170000076293945,4.210000038146973,4.259999752044678,4.289999961853027,3.386078509351387,3.4185588471756936,3.4591590758579924,3.4835195228243068,3.436828988802345,0.0,1.3000000715255737,28.700000762939453,0.0,0.0,0.0,0.0,0.0,snow covered,0.22406142950058,-9.99979400634766,100.0,480.957305908203
arenacam6_1769615125271300123.png,1769615125271300123,1769615125.2713,42.299432158625386,-83.69754835300428,234.30221557617188,0.7265426895747064,0.6870266746609441,0.0060995701151441645,0.009636585198474571,0.0009500000000000001,0.0017600000000000003,-0.0006600000000000001,-0.0297,0.2364,-9.7809,-0.009666496379480118,0.021623372411114256,4.170000076293945,4.210000038146973,4.259999752044678,4.289999961853027,3.386078509351387,3.4185588471756936,3.4591590758579924,3.4835195228243068,3.436828988802345,0.0,1.3000000715255737,28.700000762939453,0.0,0.0,0.0,0.0,0.0,snow covered,0.22406142950058,-9.99979400634766,100.0,480.957305908203
arenacam6_1769615125292256488.png,1769615125292256488,1769615125.2922566,42.29943215974613,-83.6975483540162,234.30218505859375,0.726541308489511,0.6870283540764217,0.006114442067450033,0.00961152181477606,0.0008700000000000001,0.0035300000000000006,-4e-05,-0.0076,0.2082,-9.7959,-0.009567538346195848,0.021402009228139344,4.170000076293945,4.210000038146973,4.259999752044678,4.289999961853027,3.386078509351387,3.4185588471756936,3.4591590758579924,3.4835195228243068,3.436828988802345,0.0,1.3000000715255737,28.700000762939453,0.0,0.0,0.0,0.0,0.0,snow covered,0.22406142950058,-9.99979400634766,100.0,480.957305908203
arenacam6_1769615125312778329.png,1769615125312778329,1769615125.3127782,42.29943215865723,-83.69754835223974,234.3021697998047,0.7265351452867834,0.6870351543288903,0.006165172981553844,0.009558766735201483,0.0005900000000000001,0.005200000000000001,-0.0012000000000000001,0.23750000000000002,0.1902,-9.7414,-0.003579456519716896,0.008007029467215515,4.170000076293945,4.210000038146973,4.259999752044678,4.289999961853027,3.386078509351387,3.4185588471756936,3.4591590758579924,3.4835195228243068,3.436828988802345,0.0,1.3000000715255737,28.700000762939453,0.0,0.0,0.0,0.0,0.0,snow covered,0.22406142950058,-9.99979400634766,100.0,480.957305908203
arenacam6_1769615125333545005.png,1769615125333545005,1769615125.333545,42.29943216216715,-83.69754835352646,234.3021240234375,0.7265360224046954,0.6870344471604064,0.006202361505018903,0.009518785380498973,0.0009300000000000002,0.006370000000000001,-0.0009400000000000002,0.3396,0.1913,-9.7128,0.0035996254568108933,0.00805214616935856,4.170000076293945,4.210000038146973,4.259999752044678,4.289999961853027,3.386078509351387,3.4185588471756936,3.4591590758579924,3.4835195228243068,3.436828988802345,0.0,1.3000000715255737,28.700000762939453,0.0,0.0,0.0,0.0,0.0,snow covered,0.22406142950058,-9.99979400634766,100.0,480.957305908203
arenacam6_1769615125354000079.png,1769615125354000079,1769615125.354,42.29943216562341,-83.69754835474866,234.3020782470703,0.7265398224664725,0.6870306870948956,0.0062550938523075195,0.009465472053794232,0.00019000000000000004,0.007570000000000001,0.0016500000000000002,0.36260000000000003,0.1824,-9.7301,0.011477061557516904,0.025673498080471865,4.170000076293945,4.210000038146973,4.259999752044678,4.289999961853027,3.386078509351387,3.4185588471756936,3.4591590758579924,3.4835195228243068,3.436828988802345,0.0,1.3000000715255737,28.700000762939453,0.0,0.0,0.0,0.0,0.0,snow covered,0.22406142950058,-9.99979400634766,100.0,480.957305908203
arenacam6_1769615125374889828.png,1769615125374889828,1769615125.3748896,42.299432168523964,-83.69754835314615,234.3019561767578,0.7265423771173338,0.6870281819170635,0.006328639232601719,0.009402118372582355,-0.00102,0.00982,0.0008400000000000001,0.5707,0.1691,-9.6892,0.02215109479360346,0.04955066998760333,4.170000076293945,4.210000038146973,4.259999752044678,4.289999961853027,3.386078509351387,3.4185588471756936,3.4591590758579924,3.4835195228243068,3.436828988802345,0.0,1.3000000715255737,28.700000762939453,0.0,0.0,0.0,0.0,0.0,snow covered,0.22406142950058,-9.99979400634766,100.0,480.957305908203
arenacam6_1769615125395475548.png,1769615125395475548,1769615125.3954754,42.29943217813505,-83.6975483543688,234.3017578125,0.7265455404821267,0.6870251987196576,0.006413375382936398,0.009317861661700552,0.0,0.01086,-0.00015000000000000001,0.8163,0.192,-9.623700000000001,0.03844086872822795,0.08598991689292225,4.170000076293945,4.210000038146973,4.259999752044678,4.289999961853027,3.386078509351387,3.4185588471756936,3.4591590758579924,3.4835195228243068,3.436828988802345,0.0,1.3000000715255737,28.700000762939453,0.0,0.0,0.0,0.0,0.0,snow covered,0.22406142950058,-9.99979400634766,100.0,480.957305908203
arenacam6_1769615125416176467.png,1769615125416176467,1769615125.4161763,42.29943218758582,-83.69754835541076,234.30157470703125,0.7265549185096346,0.6870155646345051,0.006508729724935278,0.009230426683431464,8e-05,0.013510000000000003,0.0018900000000000002,0.78,0.22130000000000002,-9.6784,0.05457694304887266,0.12208534698374521,4.170000076293945,4.210000038146973,4.259999752044678,4.289999961853027,3.386078509351387,3.4185588471756936,3.4591590758579924,3.4835195228243068,3.436828988802345,0.0,1.3000000715255737,28.700000762939453,0.0,0.0,0.0,0.0,0.0,snow covered,0.22406142950058,-9.99979400634766,100.0,480.957305908203
arenacam6_1769615125436649076.png,1769615125436649076,1769615125.4366488,42.29943219889007,-83.69754835358631,234.30128479003906,0.7265631737822933,0.6870071856783976,0.006623074721936422,0.009122291974960174,0.0011400000000000002,0.017720000000000003,0.00012,0.9874,0.2127,-9.6705,0.07407638215231688,0.16570442229180374,4.170000076293945,4.210000038146973,4.259999752044678,4.289999961853027,3.386078509351387,3.4185588471756936,3.4591590758579924,3.4835195228243068,3.436828988802345,0.0,1.3000000715255737,28.700000762939453,0.0,0.0,0.0,0.0,0.0,snow covered,0.22406142950058,-9.99979400634766,100.0,480.957305908203
arenacam6_1769615125457725288.png,1769615125457725288,1769615125.4577253,42.299432218872994,-83.69754835378203,234.30096435546875,0.7265702996098423,0.6870001794268452,0.006743687952875669,0.00899310097467392,0.00128,0.019180000000000003,0.00041000000000000005,1.1735,0.2503,-9.7447,0.09705728270788132,0.21711131798056804,4.170000076293945,4.210000038146973,4.259999752044678,4.289999961853027,3.386078509351387,3.4185588471756936,3.4591590758579924,3.4835195228243068,3.436828988802345,0.0,1.3000000715255737,28.700000762939453,0.0,0.0,0.0,0.0,0.0,snow covered,0.22406142950058,-9.99979400634766,100.0,480.957305908203
arenacam6_1769615125478286247.png,1769615125478286247,1769615125.4782863,42.29943223944299,-83.69754835408132,234.30064392089844,0.7265793702761045,0.6869912419500134,0.006873699998101262,0.008843326381716168,0.00198,0.02014,0.0014500000000000003,1.3305,0.2258,-9.7474,0.12349043862296054,0.2762407017732454,4.170000076293945,4.210000038146973,4.259999752044678,4.289999961853027,3.386078509351387,3.4185588471756936,3.4591590758579924,3.4835195228243068,3.436828988802345,0.0,1.3000000715255737,28.700000762939453,0.0,0.0,0.0,0.0,0.0,snow covered,0.22406142950058,-9.99979400634766,100.0,480.957305908203
arenacam6_1769615125498833988.png,1769615125498833988,1769615125.498834,42.29943226355513,-83.69754835102174,234.30027770996094,0.7265881754542807,0.686982552404145,0.007012821650633405,0.00868425672134251,0.0020100000000000005,0.021580000000000005,0.0011400000000000002,1.4464000000000001,0.2541,-9.779,0.15166860047093578,0.3392735591374551,4.170000076293945,4.210000038146973,4.259999752044678,4.289999961853027,3.386078509351387,3.4185588471756936,3.4591590758579924,3.4835195228243068,3.436828988802345,0.0,1.3000000715255737,28.700000762939453,0.0,0.0,0.0,0.0,0.0,snow covered,0.22406142950058,-9.99979400634766,100.0,480.957305908203
arenacam6_1769615125520034104.png,1769615125520034104,1769615125.520034,42.299432299311675,-83.69754834959477,234.29989624023438,0.7265863456244263,0.686985478411599,0.007150549620288093,0.008491433557183315,0.004570000000000001,0.023080000000000003,-0.00025000000000000006,1.7695,0.2175,-9.7779,0.1857361195309246,0.41548055522350646,4.170000076293945,4.210000038146973,4.259999752044678,4.289999961853027,3.386078509351387,3.4185588471756936,3.4591590758579924,3.4835195228243068,3.436828988802345,0.0,1.3000000715255737,28.700000762939453,0.0,0.0,0.0,0.0,0.0,snow covered,0.22406142950058,-9.99979400634766,100.0,480.957305908203
arenacam6_1769615125540308200.png,1769615125540308200,1769615125.5403082,42.299432335882635,-83.697548347973,234.29949951171875,0.7265837020742882,0.6869890157560891,0.0072969498995881015,0.00830485596893805,0.0036900000000000006,0.024210000000000002,7.000000000000002e-05,1.9702000000000002,0.2333,-9.7637,0.22411341958646597,0.5013282728097492,4.170000076293945,4.210000038146973,4.259999752044678,4.289999961853027,3.386078509351387,3.4185588471756936,3.4591590758579924,3.4835195228243068,3.436828988802345,0.0,1.3000000715255737,28.700000762939453,0.0,0.0,0.0,0.0,0.0,snow covered,0.22406142950058,-9.99979400634766,100.0,480.957305908203
arenacam6_1769615125561403903.png,1769615125561403903,1769615125.561404,42.299432379054934,-83.69754834331921,234.29908752441406,0.7265796994497822,0.6869939738520413,0.007443885164644106,0.008112263068989415,0.0041800000000000006,0.0216,-0.00151,2.0647,0.21450000000000002,-9.8321,0.26574452893458467,0.5944545665549299,4.170000076293945,4.210000038146973,4.259999752044678,4.289999961853027,3.386078509351387,3.4185588471756936,3.4591590758579924,3.4835195228243068,3.436828988802345,0.0,1.3000000715255737,28.700000762939453,0.0,0.0,0.0,0.0,0.0,snow covered,0.22406142950058,-9.99979400634766,100.0,480.957305908203
arenacam6_1769615125581764547.png,1769615125581764547,1769615125.5817647,42.29943243703371,-83.69754833987916,234.2987823486328,0.7265717565194275,0.6870029589924682,0.007585635749361344,0.007929381700035031,0.0044,0.024470000000000006,-0.0005600000000000002,1.9907000000000001,0.2066,-10.005700000000001,0.3059121923419421,0.684307219537384,4.170000076293945,4.210000038146973,4.259999752044678,4.289999961853027,3.386078509351387,3.4185588471756936,3.4591590758579924,3.4835195228243068,3.436828988802345,0.0,1.3000000715255737,28.700000762939453,0.0,0.0,0.0,0.0,0.0,snow covered,0.22406142950058,-9.99979400634766,100.0,480.957305908203
arenacam6_1769615125602633724.png,1769615125602633724,1769615125.6026337,42.29943249621545,-83.69754833641827,234.2984619140625,0.7265666436505744,0.687009028998577,0.0077259288961919696,0.007734108317228811,0.00464,0.02313,-0.0011300000000000001,2.2109,0.20900000000000002,-9.9792,0.3487618649078536,0.7801593660869741,4.170000076293945,4.210000038146973,4.259999752044678,4.289999961853027,3.386078509351387,3.4185588471756936,3.4591590758579924,3.4835195228243068,3.436828988802345,0.0,1.3000000715255737,28.700000762939453,0.0,0.0,0.0,0.0,0.0,snow covered,0.22406142950058,-9.99979400634766,100.0,480.957305908203
arenacam6_1769615125623124631.png,1769615125623124631,1769615125.6231248,42.29943256210438,-83.69754833005706,234.2982177734375,0.7265489544219419,0.6870284110875399,0.007907422518216483,0.0074867787486739045,0.0014900000000000002,0.017720000000000003,-0.0027600000000000003,2.4332000000000003,0.12510000000000002,-10.1155,0.4193026670235096,0.9379549079715697,4.170000076293945,4.210000038146973,4.259999752044678,4.289999961853027,3.386078509351387,3.4185588471756936,3.4591590758579924,3.4835195228243068,3.436828988802345,0.0,1.3000000715255737,28.700000762939453,0.0,0.0,0.0,0.0,0.0,snow covered,0.22406142950058,-9.99979400634766,100.0,480.957305908203
arenacam6_1769615125644106500.png,1769615125644106500,1769615125.6441064,42.299432644291336,-83.69754832452217,234.29820251464844,0.7265562210155077,0.687022124479601,0.007980762897080579,0.007277747095157755,0.01007,0.026320000000000003,-0.0018200000000000002,2.9027000000000003,-0.3441,-9.8655,0.47048717506516674,1.0524515813902742,4.170000076293945,4.210000038146973,4.259999752044678,4.289999961853027,3.386078509351387,3.4185588471756936,3.4591590758579924,3.4835195228243068,3.436828988802345,2.2655459401394418,1.3000000715255737,28.700000762939453,0.0,0.0,0.0,0.0,0.0,snow covered,0.22406142950058,-9.99979400634766,100.0,480.957305908203
arenacam6_1769615125664199693.png,1769615125664199693,1769615125.6641996,42.29943272866644,-83.69754832075702,234.2981719970703,0.7265641629708688,0.6870139290330534,0.007998389415709132,0.007239072299829226,0.0053100000000000005,0.02059,0.00321,1.5949,0.8799,-9.8686,0.5118541447459757,1.1449870105480628,4.170000076293945,4.210000038146973,4.259999752044678,4.289999961853027,3.386078509351387,3.4185588471756936,3.4591590758579924,3.4835195228243068,3.436828988802345,2.0016314221392455,1.3000000715255737,28.700000762939453,0.0,0.0,0.0,0.0,0.0,snow covered,0.22406142950058,-9.99979400634766,100.0,480.957305908203
arenacam6_1769615125685035405.png,1769615125685035405,1769615125.6850355,42.29943281945641,-83.69754831266421,234.2982635498047,0.7265482929547135,0.6870320691688885,0.008032635858141948,0.007070410120914108,0.009120000000000001,0.020160000000000004,-0.00496,2.3072,-0.09000000000000001,-10.1636,0.5569707835750911,1.2459102246104643,4.170000076293945,4.210000038146973,4.259999752044678,4.289999961853027,3.386078509351387,3.4185588471756936,3.4591590758579924,3.4835195228243068,3.436828988802345,1.758488469646258,1.3000000715255737,28.700000762939453,0.0,0.0,0.0,0.0,0.0,snow covered,0.22406142950058,-9.99979400634766,100.0,480.957305908203
arenacam6_1769615125705625157.png,1769615125705625157,1769615125.705625,42.299432926125576,-83.69754830630202,234.29864501953125,0.7265363342892186,0.6870452236271481,0.00808901588127442,0.006955822796730181,0.007560000000000001,0.028490000000000005,0.0030800000000000003,3.088,-0.1912,-10.2026,0.6091648608574756,1.3626652438465214,4.170000076293945,4.210000038146973,4.259999752044678,4.289999961853027,3.386078509351387,3.4185588471756936,3.4591590758579924,3.4835195228243068,3.436828988802345,1.522137409992853,1.3000000715255737,28.700000762939453,0.0,0.0,0.0,0.0,0.0,snow covered,0.22406142950058,-9.99979400634766,100.0,480.957305908203
arenacam6_1769615125726386466.png,1769615125726386466,1769615125.7263865,42.299433035785185,-83.69754829965801,234.299072265625,0.7265395253407209,0.6870423812049231,0.008052488498739838,0.006945644313281736,0.0032200000000000006,0.0025700000000000007,-0.0016200000000000001,2.6354,0.1522,-10.1364,0.6653877664038648,1.4884325101794613,4.170000076293945,4.210000038146973,4.259999752044678,4.289999961853027,3.386078509351387,3.4185588471756936,3.4591590758579924,3.4835195228243068,3.436828988802345,1.3090257470847397,1.3000000715255737,28.700000762939453,0.0,0.0,0.0,0.0,0.0,snow covered,0.22406142950058,-9.99979400634766,100.0,480.957305908203
arenacam6_1769615125746869418.png,1769615125746869418,1769615125.7468696,42.29943315286532,-83.69754829128955,234.299560546875,0.7265377016093159,0.6870448276268559,0.008092395565037304,0.0068473429486029845,0.004710000000000001,0.019160000000000003,0.0013300000000000002,2.1291,0.29710000000000003,-10.007800000000001,0.7063617641671293,1.5800888847360182,4.170000076293945,4.210000038146973,4.259999752044678,4.289999961853027,3.386078509351387,3.4185588471756936,3.4591590758579924,3.4835195228243068,3.436828988802345,1.1750858587784625,1.3000000715255737,28.700000762939453,0.0,0.0,0.0,0.0,0.0,snow covered,0.22406142950058,-9.99979400634766,100.0,480.957305908203
arenacam6_1769615125767865857.png,1769615125767865857,1769615125.767866,42.29943342445755,-83.69754827551687,234.30075073242188,0.7265256226633194,0.6870580020065725,0.008115639041359732,0.006779225277497197,0.00234,-0.00316,-0.0017900000000000004,2.9622,0.2315,-9.9349,0.7652655542740836,1.7118531289778687,4.170000076293945,4.210000038146973,4.259999752044678,4.289999961853027,3.386078509351387,3.4185588471756936,3.4591590758579924,3.4835195228243068,3.436828988802345,1.0076658041653628,1.3000000715255737,28.700000762939453,0.0,0.0,0.0,0.0,0.0,snow covered,0.22406142950058,-9.99979400634766,100.0,480.957305908203
arenacam6_1769615125788639540.png,1769615125788639540,1769615125.7886395,42.29943356974327,-83.6975482649674,234.30133056640625,0.7265227684587291,0.687061427214142,0.008133703864884595,0.006716026129250789,0.0034400000000000008,0.0007000000000000001,0.0005600000000000002,2.4737,0.19240000000000002,-9.9128,0.8165349253427779,1.8265396358962738,4.170000076293945,4.210000038146973,4.259999752044678,4.289999961853027,3.386078509351387,3.4185588471756936,3.4591590758579924,3.4835195228243068,3.436828988802345,0.8816065752199844,1.3000000715255737,28.700000762939453,0.0,0.0,0.0,0.0,0.0,snow covered,0.22406142950058,-9.99979400634766,100.0,480.957305908203
arenacam6_1769615125809405563.png,1769615125809405563,1769615125.8094053,42.29943373289447,-83.697548255092,234.30184936523438,0.7265092021327751,0.6870767553864263,0.008159483000353886,0.0065828763641726335,0.007850000000000001,0.009580000000000002,-0.0035200000000000006,2.6607000000000003,0.127,-9.841000000000001,0.8666952659118348,1.9387453081288197,4.170000076293945,4.210000038146973,4.259999752044678,4.289999961853027,3.386078509351387,3.4185588471756936,3.4591590758579924,3.4835195228243068,3.436828988802345,0.7727078303644748,1.3000000715255737,28.700000762939453,0.0,0.0,0.0,0.0,0.0,snow covered,0.22406142950058,-9.99979400634766,100.0,480.957305908203
arenacam6_1769615125831370539.png,1769615125831370539,1769615125.8313706,42.299433896919524,-83.697548246274,234.3023681640625,0.7265114835538833,0.6870760219602271,0.008161311305995367,0.006402914134347881,0.013940000000000003,0.019370000000000002,-0.0019400000000000003,2.7334,-0.2494,-9.735800000000001,0.9190542895720616,2.0558693025153274,4.170000076293945,4.210000038146973,4.259999752044678,4.289999961853027,3.386078509351387,3.4185588471756936,3.4591590758579924,3.4835195228243068,3.436828988802345,0.6717156993381986,1.3000000715255737,28.700000762939453,0.0,0.0,0.0,0.0,0.0,snow covered,0.22406142950058,-9.99979400634766,100.0,480.957305908203
arenacam6_1769615125852136275.png,1769615125852136275,1769615125.8521361,42.29943406984375,-83.69754823099586,234.3029327392578,0.7265047588200755,0.6870834391751836,0.00824159814522418,0.006265706903335266,0.010260000000000002,0.032470000000000006,0.00205,2.4250000000000003,1.489,-9.236600000000001,0.9651374338671952,2.1589545313148837,4.170000076293945,4.210000038146973,4.259999752044678,4.289999961853027,3.386078509351387,3.4185588471756936,3.4591590758579924,3.4835195228243068,3.436828988802345,0.5918950301881477,1.3000000715255737,28.700000762939453,0.0,0.0,0.0,0.0,0.0,snow covered,0.22406142950058,-9.99979400634766,100.0,480.957305908203
arenacam6_1769615125871212947.png,1769615125871212947,1769615125.871213,42.29943426038965,-83.697548220284,234.3035888671875,0.726471398051624,0.6871224300064508,0.008141572208966793,0.005982373852826861,0.02162,0.02126,-0.01043,2.6882,-1.1432,-10.0076,1.0182826598258026,2.277837213070731,4.170000076293945,4.210000038146973,4.259999752044678,4.289999961853027,3.386078509351387,3.4185588471756936,3.4591590758579924,3.4835195228243068,3.436828988802345,0.5088123809204029,1.3000000715255737,28.700000762939453,0.0,0.0,0.0,0.0,0.0,snow covered,0.22406142950058,-9.99979400634766,100.0,480.957305908203
arenacam6_1769615125892032821.png,1769615125892032821,1769615125.8920329,42.29943445086419,-83.69754820144978,234.30398559570312,0.7264865026422048,0.6871068210214286,0.008203350227100021,0.005855171182469696,0.012220000000000002,0.01631,0.00974,2.0423,1.2306000000000001,-9.183300000000001,1.0651199719103461,2.38260946996513,4.170000076293945,4.210000038146973,4.259999752044678,4.289999961853027,3.386078509351387,3.4185588471756936,3.4591590758579924,3.4835195228243068,3.436828988802345,0.4424642527978553,1.3000000715255737,28.700000762939453,0.0,0.0,0.0,0.0,0.0,snow covered,0.22406142950058,-9.99979400634766,100.0,480.957305908203
arenacam6_1769615125912683301.png,1769615125912683301,1769615125.9126832,42.29943465034823,-83.69754818552174,234.3046417236328,0.7264358495466599,0.6871643440460867,0.008134476936862381,0.005472755256513299,0.01922,0.026010000000000005,-0.0027800000000000004,2.2704,-0.38120000000000004,-10.161100000000001,1.1475692288329955,2.5670435107456813,4.170000076293945,4.210000038146973,4.259999752044678,4.289999961853027,3.386078509351387,3.4185588471756936,3.4591590758579924,3.4835195228243068,3.436828988802345,0.33882771149601837,1.3000000715255737,28.700000762939453,0.0,0.0,0.0,0.0,0.0,snow covered,0.22406142950058,-9.99979400634766,100.0,480.957305908203
arenacam6_1769615125933173182.png,1769615125933173182,1769615125.9331732,42.299434868687115,-83.69754817025826,234.30535888671875,0.7264472594720978,0.6871534830758541,0.008132922227448804,0.005322168565793293,0.012250000000000002,0.010520000000000002,0.00393,2.7829,0.899,-9.845500000000001,1.2011273300753675,2.6868497697387927,4.170000076293945,4.210000038146973,4.259999752044678,4.289999961853027,3.386078509351387,3.4185588471756936,3.4591590758579924,3.4835195228243068,3.436828988802345,0.27912956932328337,1.3000000715255737,28.700000762939453,0.0,0.0,0.0,0.0,0.0,snow covered,0.22406142950058,-9.99979400634766,100.0,480.957305908203
arenacam6_1769615125953836709.png,1769615125953836709,1769615125.953837,42.29943508866968,-83.69754815477896,234.30601501464844,0.7264218352539064,0.6871833652017774,0.008065585757089946,0.005028536835167032,0.028050000000000005,0.015760000000000003,-0.0017800000000000001,2.8963,0.2122,-8.7903,1.2577959856964271,2.813614152243766,4.170000076293945,4.210000038146973,4.259999752044678,4.289999961853027,3.386078509351387,3.4185588471756936,3.4591590758579924,3.4835195228243068,3.436828988802345,0.2214997518624171,1.3000000715255737,28.700000762939453,0.0,0.0,0.0,0.0,0.0,snow covered,0.22406142950058,-9.99979400634766,100.0,480.957305908203
arenacam6_1769615125974598839.png,1769615125974598839,1769615125.974599,42.29943531828105,-83.69754813753697,234.30690002441406,0.7264352722437777,0.6871715443244105,0.007990710825780303,0.004817930199999206,0.016270000000000003,0.006530000000000001,0.0016600000000000002,2.4382,-0.1227,-9.5618,1.3125051403463603,2.9359952486463876,4.170000076293945,4.210000038146973,4.259999752044678,4.289999961853027,3.386078509351387,3.4185588471756936,3.4591590758579924,3.4835195228243068,3.436828988802345,0.17058397502068917,1.3000000715255737,28.700000762939453,0.0,0.0,0.0,0.0,0.0,snow covered,0.22406142950058,-9.99979400634766,100.0,480.957305908203
arenacam6_1769615125995241221.png,1769615125995241221,1769615125.9952412,42.299435566080284,-83.6975481216612,234.30767822265625,0.7264587452865059,0.6871487389643455,0.007954954226895392,0.004584827119243563,0.018000000000000002,0.012170000000000002,0.00048,2.4591000000000003,0.1827,-9.295200000000001,1.3655168386453844,3.0545792370394063,4.170000076293945,4.210000038146973,4.259999752044678,4.289999961853027,3.386078509351387,3.4185588471756936,3.4591590758579924,3.4835195228243068,3.436828988802345,0.12513990376410314,1.3000000715255737,28.700000762939453,0.0,0.0,0.0,0.0,0.0,snow covered,0.22406142950058,-9.99979400634766,100.0,480.957305908203
arenacam6_1769615126016266928.png,1769615126016266928,1769615126.016267,42.29943581612687,-83.69754810598164,234.308349609375,0.7264971341020349,0.6871107137310555,0.007851283266687836,0.004374764976072071,0.027790000000000006,-0.0035300000000000006,0.0024600000000000004,2.1062000000000003,0.6133000000000001,-9.8033,1.4205517665190748,3.1776890685971795,4.170000076293945,4.210000038146973,4.259999752044678,4.289999961853027,3.386078509351387,3.4185588471756936,3.4591590758579924,3.4835195228243068,3.436828988802345,0.08154980383891536,1.3000000715255737,28.700000762939453,0.0,0.0,0.0,0.0,0.0,snow covered,0.22406142950058,-9.99979400634766,100.0,480.957305908203
arenacam6_1769615126036818165.png,1769615126036818165,1769615126.0368183,42.2994360766313,-83.69754808828897,234.30926513671875,0.7265256921774768,0.68708203681087,0.007852735949850002,0.004126479851694242,0.01634,0.00406,0.00404,3.2123,-0.09860000000000001,-10.1796,1.47890159239912,3.308214128101288,4.170000076293945,4.210000038146973,4.259999752044678,4.289999961853027,3.386078509351387,3.4185588471756936,3.4591590758579924,3.4835195228243068,3.436828988802345,0.03887742924756638,1.3000000715255737,28.700000762939453,0.0,0.0,0.0,0.0,0.0,snow covered,0.22406142950058,-9.99979400634766,100.0,480.957305908203
arenacam6_1769615126057567804.png,1769615126057567804,1769615126.0575678,42.299436354079305,-83.697548071051,234.3101806640625,0.7265695436246531,0.6870373533718338,0.007823618488346026,0.0038941420927030585,0.017300000000000003,0.017920000000000005,0.00572,3.3286000000000002,-0.14400000000000002,-10.3711,1.5310031465096108,3.424762178553209,4.170000076293945,4.210000038146973,4.259999752044678,4.289999961853027,3.386078509351387,3.4185588471756936,3.4591590758579924,3.4835195228243068,3.436828988802345,0.0035234009312243002,1.3000000715255737,28.700000762939453,0.0,0.0,0.0,0.0,0.0,snow covered,0.22406142950058,-9.99979400634766,100.0,480.957305908203
arenacam6_1769615126078171512.png,1769615126078171512,1769615126.0781715,42.29943663229645,-83.69754805505893,234.31088256835938,0.7265897906745243,0.687017050584168,0.00778928256930363,0.003765019420598724,0.009190000000000002,0.010290000000000002,0.0016000000000000003,2.5653,-0.2853,-9.7677,1.5824760042716257,3.5399038729953705,4.299999713897705,4.210000038146973,4.380000114440918,4.289999961853027,3.4916394136822984,3.4185588471756936,3.556600476527081,3.4835195228243068,3.4875795650523447,0.014781279328568427,1.3000000715255737,28.725000381469727,0.0,0.0,0.0,0.0,0.0,snow covered,0.22406142950058,-9.99979400634766,100.0,480.957305908203
arenacam6_1769615126098925296.png,1769615126098925296,1769615126.0989254,42.299436920886926,-83.69754803391075,234.3118896484375,0.7266132706021508,0.6869927169195837,0.007756205715634717,0.0037420792603517173,0.007100000000000001,-0.015340000000000003,0.005770000000000001,2.1419,1.1262,-9.4192,1.638294137930665,3.664765688902622,4.440000057220459,4.329999923706055,4.429999828338623,4.559999942779541,3.6053209832635402,3.5159998606486127,3.5972007052093797,3.7027619967364602,3.605320886464498,0.016220628406921195,1.3000000715255737,29.075000762939453,0.0,0.0,0.0,0.0,0.0,snow covered,0.22406142950058,-9.99979400634766,100.0,480.957305908203
arenacam6_1769615126120790965.png,1769615126120790965,1769615126.120791,42.29943722790735,-83.69754801727561,234.312744140625,0.7266156147977914,0.6869899810971029,0.007807008607835609,0.0036830450481958573,-0.004410000000000001,-0.01958,0.0022,2.9947000000000004,0.13240000000000002,-9.6922,1.6979096948701697,3.798122112842878,4.579999923706055,4.549999713897705,4.610000133514404,4.659999847412109,3.719002165648613,3.694641718682299,3.7433626126149275,3.7839628412972264,3.7352423345607666,0.016555491480774454,1.3000000715255737,29.05000114440918,0.0,0.0,0.0,0.0,0.0,snow covered,0.22406142950058,-9.99979400634766,100.0,480.957305908203
arenacam6_1769615126140289182.png,1769615126140289182,1769615126.1402893,42.29943753497789,-83.69754799876563,234.3135223388672,0.7266156605343488,0.6869898848433761,0.007815767168974466,0.0036733870851517227,-0.004090000000000001,-0.011020000000000002,-0.0048000000000000004,2.9362,-0.6896,-10.308,1.752657491539924,3.920589649125318,4.75,4.659999847412109,4.769999980926514,4.730000019073486,3.8570437950000005,3.7839628412972264,3.8732839639121535,3.8408036260878466,3.8387735565743073,0.02086831315520712,1.3000000715255737,29.55000114440918,0.0,0.0,0.0,0.0,0.0,snow covered,0.22406142950058,-9.99979400634766,100.0,480.957305908203
arenacam6_1769615126161053906.png,1769615126161053906,1769615126.161054,42.29943785318312,-83.69754797753987,234.3145751953125,0.7266184874596093,0.6869867224043865,0.00783886455702356,0.003656381331911647,0.010490000000000001,-0.003,-0.0005300000000000001,2.468,0.388,-9.595600000000001,1.804247050974875,4.035992398207737,4.849999904632568,4.769999980926514,4.940000057220459,5.089999675750732,3.9382446395607666,3.8732839639121535,4.01132559326354,4.133126666506605,3.9889952158107667,0.01164451707536432,1.3000000715255737,30.075000762939453,0.0,0.0,0.0,0.0,0.0,snow covered,0.22406142950058,-9.99979400634766,100.0,480.957305908203
arenacam6_1769615126181644831.png,1769615126181644831,1769615126.181645,42.29943819006527,-83.69754796211235,234.31558227539062,0.7265712813010986,0.6870353051275013,0.007877623414954214,0.0038217464820631737,-0.027900000000000005,-0.020760000000000004,-0.005270000000000001,2.7961,0.367,-10.4962,1.863869213243669,4.169363597873293,4.940000057220459,5.039999961853027,5.170000076293945,5.21999979019165,4.01132559326354,4.092526437824306,4.198087729351387,4.238687958033686,4.13515692961823,0.008204290043811758,1.3000000715255737,30.475000381469727,0.0,0.0,0.0,0.0,0.0,snow covered,0.22406142950058,-9.99979400634766,100.0,480.957305908203
arenacam6_1769615126202264002.png,1769615126202264002,1769615126.202264,42.29943852667213,-83.69754794432991,234.3163604736328,0.7265337687063678,0.6870742711659746,0.007933391863016061,0.003832769835807736,-0.00855,0.0068000000000000005,-0.013710000000000003,3.9232,-1.8489,-10.316600000000001,1.9219202644972426,4.299220316464462,5.150000095367432,5.109999656677246,5.319999694824219,5.440000057220459,4.181847560439234,4.149366835418759,4.319888802594452,4.41733020326354,4.267108350428996,0.0074692534161341214,1.3000000715255737,31.05000114440918,0.0,0.0,0.0,0.0,0.0,snow covered,0.22406142950058,-9.99979400634766,100.0,480.957305908203
arenacam6_1769615126223257100.png,1769615126223257100,1769615126.223257,42.29943887210807,-83.69754792316824,234.31739807128906,0.7264648138194463,0.6871440984071152,0.007918614142390956,0.00437696888426613,-0.004130000000000001,-0.021590000000000005,-0.00897,1.8844,1.0061,-10.0837,1.9773544117008894,4.423223177710188,5.259999752044678,5.319999694824219,7.889999866485596,5.639999866485596,4.271168295857993,4.319888802594452,6.406752637385073,4.579731892385073,4.894385407055648,0.10652011223846286,1.2000000476837158,32.17499923706055,0.0,0.0,0.0,0.0,0.0,snow covered,0.22406142950058,-9.99979400634766,100.0,480.957305908203
arenacam6_1769615126243776375.png,1769615126243776375,1769615126.2437763,42.299439232916335,-83.69754790418166,234.31826782226562,0.7262874236852723,0.6873305571873124,0.007904722757762089,0.00456056041641153,-0.020510000000000004,-0.021800000000000003,-0.030370000000000005,2.6586000000000003,-1.2665,-10.701500000000001,2.023859571430771,4.5272524297163494,5.329999923706055,5.409999847412109,9.269999504089355,5.75,4.328009080648613,4.392969756297226,7.527325066715985,4.669053015,5.229339229665456,0.155080108928915,1.100000023841858,33.10000228881836,0.0,0.0,0.0,0.0,0.0,snow covered,0.22406142950058,-9.99979400634766,100.0,480.957305908203
arenacam6_1769615126264386627.png,1769615126264386627,1769615126.2643867,42.29943959648346,-83.69754789127612,234.31932067871094,0.7262156697019603,0.6874029836142466,0.007981885806480191,0.004922265386759097,-0.026780000000000005,-0.01634,-0.011680000000000003,2.1662,0.8252,-10.360100000000001,2.060901449386072,4.61011288818968,5.380000114440918,5.519999980926514,11.329999923706055,5.819999694824219,4.368609696527081,4.482290878912154,9.200064400648614,4.725893412594452,5.694214597170575,0.23515730206047183,1.0,34.32500076293945,0.0,0.0,0.0,0.0,0.0,snow covered,0.22406142950058,-9.99979400634766,100.0,480.957305908203
arenacam6_1769615126285047262.png,1769615126285047262,1769615126.2850473,42.29943996668049,-83.69754787034749,234.320556640625,0.7260844837100312,0.6875407831016933,0.007899645553317514,0.005156518940120641,-0.00525,-0.02212,-0.019430000000000003,2.1354,0.38780000000000003,-9.693100000000001,2.100930804823779,4.699656154542505,5.599999904632568,5.659999847412109,14.059999465942383,6.589999675750732,4.547251554560767,4.595972061297226,11.416849199540291,5.351140496506606,6.477803327976223,0.37835686589858913,1.0,35.0,0.0,0.0,0.0,0.0,0.0,snow covered,0.22406142950058,-9.99979400634766,100.0,480.957305908203
arenacam6_1769615126305712844.png,1769615126305712844,1769615126.305713,42.29944034804952,-83.69754785232439,234.3213653564453,0.7259951152379381,0.6876342861932967,0.007848080066725797,0.005346844055569157,-0.019370000000000002,-0.00949,-0.007980000000000001,1.6507,-1.3693,-9.8194,2.1281809995246523,4.760613205076676,5.62999963760376,5.710000038146973,15.779999732971191,7.589999675750732,4.571611614330912,4.636572677175694,12.813505274770145,6.163149716506606,7.0462098206958395,0.48010550682458797,1.0,35.85000228881836,0.0,0.0,0.0,0.0,0.0,snow covered,0.22406142950058,-9.99979400634766,100.0,480.957305908203
arenacam6_1769615126326633943.png,1769615126326633943,1769615126.326634,42.29944072967001,-83.6975478353345,234.32220458984375,0.72597279873881,0.6876565706592447,0.007866499877245772,0.005482198481234967,-0.00025000000000000006,0.0024700000000000004,-0.0013900000000000002,1.2686,0.8556,-9.145900000000001,2.152700122041164,4.815461010998762,5.920000076293945,5.940000057220459,18.639999389648438,11.380000114440918,4.807094644351388,4.82333481326354,15.135851365188906,9.240665016527082,8.501736459832728,0.7655083159046085,1.0,36.20000076293945,0.0,0.0,0.0,0.0,0.0,snow covered,0.22406142950058,-9.99979400634766,100.0,480.957305908203
arenacam6_1769615126347018146.png,1769615126347018146,1769615126.3470182,42.29944111695702,-83.69754781694859,234.3230438232422,0.7259804044449797,0.6876514489636036,0.007676302342459778,0.005386230825629361,0.02223,-0.0014200000000000003,0.0029100000000000003,1.1244,-0.3783,-9.1686,2.1791283824016077,4.874579443729453,6.019999980926514,6.0,19.35999870300293,14.359999656677246,4.888295488912154,4.87205532,15.720497446026421,11.66045212041876,9.285325093839333,0.9048463977305288,1.100000023841858,36.67499923706055,0.0,0.0,0.0,0.0,0.0,snow covered,0.22406142950058,-9.99979400634766,100.0,480.957305908203
arenacam6_1769615126368204397.png,1769615126368204397,1769615126.3682044,42.29944190842649,-83.69754778795371,234.32366943359375,0.726054051228194,0.6875749074470408,0.007638957659747911,0.005282771071441774,0.00506,0.005350000000000001,0.014000000000000002,1.1354,-0.7474000000000001,-9.526200000000001,2.2021203798734326,4.926011162554077,6.109999656677246,6.089999675750732,19.889999389648438,16.639999389648438,4.961376055418759,4.9451358865066055,16.150862890188904,13.511832925188905,9.892301939325794,1.008176923049593,1.2000000476837158,37.150001525878906,0.0,0.0,0.0,0.0,0.0,snow covered,0.22406142950058,-9.99979400634766,100.0,480.957305908203
arenacam6_1769615126388736560.png,1769615126388736560,1769615126.3887365,42.29944231088916,-83.69754777502885,234.32403564453125,0.7262185937898942,0.687402993384347,0.007589904891188142,0.0051060810619138995,0.02299,0.005030000000000001,0.02313,2.0809,0.5078,-9.3971,2.2379953330699456,5.006261280357484,6.239999771118164,6.170000076293945,20.84000015258789,19.35999870300293,5.0669373469458385,5.010096949351388,16.922272268702773,15.720497446026421,10.679951002756605,1.1333187392077102,1.2000000476837158,37.57500076293945,0.0,0.0,0.0,0.0,0.0,snow covered,0.22406142950058,-9.99979400634766,100.0,480.957305908203
arenacam6_1769615126410839086.png,1769615126410839086,1769615126.410839,42.29944272121144,-83.69754776561575,234.32431030273438,0.7263651074460946,0.6872509550653944,0.00744521722983647,0.004942083257847857,0.0177,-0.00072,0.024070000000000005,0.9710000000000001,-0.466,-10.2248,2.2654994595273017,5.067786360995003,6.37999963760376,6.369999885559082,20.770000457763672,20.579999923706055,5.180618529330912,5.17249863847292,16.86543187110832,16.711149685648614,10.982424681140191,1.1671049051451956,1.2000000476837158,37.900001525878906,0.0,0.0,0.0,0.0,0.0,snow covered,0.22406142950058,-9.99979400634766,100.0,480.957305908203
arenacam6_1769615126452064075.png,1769615126452064075,1769615126.452064,42.299443557952905,-83.69754774236581,234.32469177246094,0.7267812967668233,0.6868129051871699,0.007576166347331593,0.004425114887994273,0.018090000000000002,0.009150000000000002,0.029460000000000004,3.1897,-0.2948,-9.5161,2.349566600466833,5.255839511248277,7.029999732971191,6.839999675750732,20.299999237060547,20.03999900817871,5.7084245997701455,5.554142801506606,16.48378654648613,16.27266396343197,11.004754477798713,1.0938147852967928,0.699999988079071,37.79999923706055,0.0,20.0,0.0,0.0,0.0,snow covered,0.22406142950058,-9.99979400634766,100.0,480.957305908203
arenacam6_1769615126471593256.png,1769615126471593256,1769615126.4715931,42.29944399443376,-83.69754773726704,234.32455444335938,0.7270203737949241,0.6865595843777385,0.007709430828775919,0.004228222138470674,-0.0005600000000000002,0.027180000000000003,0.036770000000000004,2.2952,-0.7413000000000001,-8.916500000000001,2.399706109668597,5.367998584962072,7.119999885559082,7.71999979019165,20.529998779296875,20.420000076293945,5.78150555347292,6.268711008033685,16.670548295377806,16.581228334351387,11.325498297808949,1.1098176757229847,-0.10000000149011612,37.650001525878906,0.0,32.0,0.0,0.0,0.0,snow covered,0.22406142950058,-9.99979400634766,100.0,480.957305908203
arenacam6_1769615126492216874.png,1769615126492216874,1769615126.4922168,42.299444432598925,-83.69754772783051,234.32485961914062,0.7272805999244504,0.686281660862117,0.007981876837748684,0.004086634313565733,-0.006520000000000001,0.029860000000000005,0.03943000000000001,1.9097000000000002,0.3302,-10.4059,2.4364973358805657,5.450298350524673,6.599999904632568,8.359999656677246,19.639999389648438,20.1299991607666,5.3592607745607665,6.7883968004187585,15.947860585188904,16.34574491713474,11.110315769325794,1.0384784565520635,-0.6000000238418579,37.54999923706055,0.0,32.0,0.0,0.0,0.0,snow covered,0.22406142950058,-9.99979400634766,100.0,480.957305908203
arenacam6_1769615126512681739.png,1769615126512681739,1769615126.5126817,42.299444878993896,-83.6975477200305,234.3253936767578,0.7276449799092254,0.6858932050816953,0.008231702953894625,0.003941256416592535,-0.008860000000000002,0.01378,0.025230000000000002,2.3769,-0.27540000000000003,-10.5477,2.5056606714813205,5.605012582463425,6.909999847412109,7.819999694824219,19.760000228881836,19.69999885559082,5.610983586297227,6.349911852594452,16.04530237305416,15.996580704729196,11.000694629168759,0.962652976656461,-0.9000000357627869,37.47500228881836,0.0,24.0,0.0,0.0,0.0,snow covered,0.22406142950058,-9.99979400634766,100.0,480.957305908203
arenacam6_1769615126533356601.png,1769615126533356601,1769615126.5333564,42.29944533787533,-83.69754771500925,234.3260955810547,0.7278815566167472,0.6856390286653511,0.008489110271767644,0.003936612097796405,-0.01795,0.021820000000000003,0.039950000000000006,1.6699000000000002,-0.25720000000000004,-9.6005,2.542536532262526,5.687501670479335,7.440000057220459,6.839999675750732,19.549999237060547,19.10999870300293,6.041348643263541,5.554142801506606,15.874779631486131,15.517495141026421,10.746941554320674,0.8895715864317163,-2.299999952316284,37.57500076293945,0.0,16.0,0.0,0.0,0.0,snow covered,0.22406142950058,-9.99979400634766,100.0,480.957305908203
arenacam6_1769615126554152651.png,1769615126554152651,1769615126.5541527,42.29944580150898,-83.69754770573151,234.32720947265625,0.7281221926973193,0.6853794951383214,0.008781215668828373,0.003988783895497292,-0.026220000000000004,0.00393,0.030170000000000006,3.2432000000000003,0.5555,-11.057400000000001,2.602138335688442,5.820827328634904,7.609999656677246,7.329999923706055,18.649999618530273,18.78999900817871,6.179389885418758,5.952027520648613,15.143971643243065,15.25765243843197,10.6332603719356,0.8267610034790888,-2.5,37.775001525878906,0.0,16.0,0.0,0.0,0.0,snow covered,0.22406142950058,-9.99979400634766,100.0,480.957305908203
arenacam6_1769615126574607458.png,1769615126574607458,1769615126.5746074,42.29944627366714,-83.69754769791727,234.32862854003906,0.7283021624601813,0.6851857400105655,0.00892581743765354,0.004097758541796302,-0.018420000000000002,-0.006090000000000001,0.029300000000000007,2.7321,-0.2146,-10.9985,2.6576728704145944,5.945054750745223,7.309999942779541,7.440000057220459,18.329999923706055,18.5,5.93578735173646,6.041348643263541,14.884128940648614,15.02217057,10.470858876412153,0.7612720682008206,-2.700000047683716,37.75,0.0,0.0,0.0,0.0,0.0,snow covered,0.22406142950058,-9.99979400634766,100.0,480.957305908203
arenacam6_1769615126595444858.png,1769615126595444858,1769615126.5954447,42.29944675838272,-83.69754768798403,234.33053588867188,0.7284572711523535,0.6850171197638404,0.00908979055590209,0.004350338305075812,-0.027220000000000005,0.0010700000000000002,0.018330000000000003,1.2662,1.2048,-10.819700000000001,2.68413760145326,6.0042547661948555,7.299999713897705,7.279999732971191,17.389999389648438,17.5,5.927667073682299,5.911426904770146,14.120839840188903,14.210161350000002,10.042523792160338,0.6725679011326664,-2.700000047683716,37.525001525878906,0.0,0.0,0.0,0.0,0.0,snow covered,0.22406142950058,-9.99979400634766,100.0,480.957305908203
arenacam6_1769615126616252726.png,1769615126616252726,1769615126.6162527,42.29944724953622,-83.697547676791,234.33250427246094,0.7285550156783338,0.6849120285214744,0.009187291352892795,0.004323886462281573,-0.00255,-0.00117,0.01195,3.7444,-0.1008,-10.7843,2.743550290347816,6.137157386490644,7.669999599456787,7.759999752044678,15.739999771118164,15.960000038146973,6.2281103921552186,6.301191345857993,12.781024936945839,12.959667182175693,9.567498464283686,0.5589462452672381,-2.5,37.35000228881836,0.0,0.0,0.0,0.0,0.0,snow covered,0.22406142950058,-9.99979400634766,100.0,480.957305908203
arenacam6_1769615126636984575.png,1769615126636984575,1769615126.6369846,42.29944774619724,-83.6975476617769,234.33497619628906,0.7286356281826828,0.684826270361939,0.009025250032081617,0.004652486092617258,-0.011890000000000001,-0.03731,0.015550000000000001,2.1882,0.6348,-10.413400000000001,2.7993584193314973,6.2619968225394,7.799999713897705,7.889999866485596,15.299999237060547,15.399999618530273,6.333671683682299,6.406752637385073,12.42374044648613,12.504941678243066,9.417276611449141,0.503877577445048,-2.200000047683716,37.47500228881836,0.0,0.0,0.0,0.0,0.0,snow covered,0.22406142950058,-9.99979400634766,100.0,480.957305908203
arenacam6_1769615126657757702.png,1769615126657757702,1769615126.6577578,42.29944825904468,-83.69754764662449,234.3375244140625,0.7287064242736309,0.6847514559924495,0.008948664766004604,0.004723572532008452,-0.0007300000000000002,-0.00931,0.006,2.7645,0.0422,-9.941,2.8420028660667764,6.357389891219415,8.010000228881836,7.71999979019165,14.170000076293945,14.559999465942383,6.504194038054162,6.268711008033685,11.506170709351387,11.822853809540293,9.025482391244882,0.4196836352149071,-1.600000023841858,37.54999923706055,0.0,0.0,0.0,0.0,0.0,snow covered,0.22406142950058,-9.99979400634766,100.0,480.957305908203
arenacam6_1769615126678132910.png,1769615126678132910,1769615126.678133,42.2994487751434,-83.69754763214509,234.34014892578125,0.7288069610356199,0.6846456355624473,0.008786156769221495,0.004854966585228777,0.0029400000000000003,-0.01665,0.017650000000000002,2.6894,-0.13090000000000002,-9.866200000000001,2.892680243903599,6.470752144797717,7.989999771118164,8.039999961853027,13.59000015258789,13.84999942779541,6.487953481945839,6.528554097824307,11.035205423702774,11.246327232364598,8.82451005895938,0.3637533723268957,-1.0,37.45000076293945,0.0,4.0,0.0,0.0,0.0,snow covered,0.22406142950058,-9.99979400634766,100.0,480.957305908203
arenacam6_1769615126698806819.png,1769615126698806819,1769615126.6988068,42.29944929907638,-83.6975476179697,234.3426513671875,0.7289353207918208,0.6845082178838581,0.008696458021499404,0.005115600597216935,-0.019060000000000004,-0.020050000000000005,0.018790000000000005,2.1742,-0.3876,-8.9764,2.940255427675245,6.577174976383863,8.1899995803833,8.069999694824219,13.529999732971191,13.119999885559082,6.650355171067371,6.5529141575944525,10.986484529770147,10.65356087347292,8.710828682976222,0.3244027586697176,0.0,37.400001525878906,0.0,8.0,0.0,0.0,0.0,snow covered,0.22406142950058,-9.99979400634766,100.0,480.957305908203
arenacam6_1769615126721116463.png,1769615126721116463,1769615126.7211163,42.29944983741261,-83.69754760412496,234.344482421875,0.7291134402211025,0.6843172423762645,0.008690385819338352,0.005289637965339452,-0.007420000000000001,-0.010750000000000001,0.027290000000000005,2.2492,0.314,-8.5283,2.982885316787188,6.6725354805339325,8.269999504089355,8.289999961853027,12.679999351501465,12.59999942779541,6.715315846715985,6.731556402824307,10.29627638301321,10.231315707364598,8.493616084979525,0.27292183155238475,0.6000000238418579,37.42499923706055,0.0,8.0,0.0,0.0,0.0,snow covered,0.22406142950058,-9.99979400634766,100.0,480.957305908203
arenacam6_1769615126740228518.png,1769615126740228518,1769615126.7402287,42.29945037824146,-83.69754759423769,234.34661865234375,0.7293006508276376,0.684116351460029,0.008686043595291869,0.005470924424867312,-0.017610000000000004,-0.019490000000000004,0.026870000000000005,2.192,-0.4551,-9.4588,3.0308063252346553,6.77973190117041,8.630000114440918,8.309999465942383,12.059999465942383,12.069999694824219,7.00763966152708,6.747796184540291,9.79283075954029,9.800951037594453,8.33730441080053,0.22973954314642286,1.5,37.47500228881836,0.0,12.0,0.0,0.0,0.0,snow covered,0.22406142950058,-9.99979400634766,100.0,480.957305908203
arenacam6_1769615126760985029.png,1769615126760985029,1769615126.7609851,42.29945092746602,-83.69754758146782,234.34829711914062,0.7295365816675399,0.6838610241504189,0.008857138962580209,0.00565921780627306,-0.02704,-0.00221,0.038040000000000004,2.3046,0.0112,-9.034600000000001,3.0750266993627826,6.878650224872583,8.609999656677246,8.420000076293945,11.309999465942383,11.630000114440918,6.9913991054187585,6.837117694351387,9.18382384454029,9.44366732152708,8.114001991459379,0.1795921766918565,1.899999976158142,37.150001525878906,0.0,16.0,0.0,0.0,0.0,snow covered,0.22406142950058,-9.99979400634766,100.0,480.957305908203
arenacam6_1769615126781572201.png,1769615126781572201,1769615126.781572,42.29945149135641,-83.69754756806854,234.3494110107422,0.7297951191142626,0.683582580910674,0.009030195497770758,0.0056916396383736,-0.009980000000000001,0.013950000000000002,0.033510000000000005,2.8706,0.403,-9.245700000000001,3.124379337869531,6.989049116053868,8.84999942779541,8.59999942779541,10.449999809265137,10.789999961853027,7.186281132364598,6.983278827364597,8.485496194121533,8.761579452824307,7.854158901668759,0.12378075633031836,2.5,37.17499923706055,0.0,8.0,0.0,0.0,0.0,snow covered,0.22406142950058,-9.99979400634766,100.0,480.957305908203
arenacam6_1769615126802348777.png,1769615126802348777,1769615126.8023489,42.299452057444405,-83.69754755964695,234.3506622314453,0.7299822714641242,0.6833785621344696,0.009277221505247667,0.005792868395311097,-0.032490000000000005,0.009850000000000003,0.02568,3.1524,-0.8480000000000001,-9.384400000000001,3.1838126941618454,7.121997968078399,8.869999885559082,8.84000015258789,8.760000228881836,9.399999618530273,7.2025216884729195,7.1781616287027745,7.113200953054162,7.632886358243065,7.28169265711823,0.02242273723688215,2.6000001430511475,37.32500076293945,0.0,8.0,0.0,0.0,0.0,snow covered,0.22406142950058,-9.99979400634766,100.0,480.957305908203
arenacam6_1769615126822980012.png,1769615126822980012,1769615126.8229802,42.29945263298693,-83.697547537872,234.35174560546875,0.7302788459450007,0.6830537578324535,0.009690739707231874,0.006038264662030468,0.005710000000000001,0.023370000000000005,0.01007,2.9677000000000002,1.5448000000000002,-9.6324,3.2600322453973676,7.292496531019188,9.09999942779541,9.019999504089355,9.0,8.769999504089355,7.389283437364598,7.324322761715985,7.30808298,7.121320456715984,7.285752408949142,0.0009248029178154967,2.799999952316284,37.25,0.0,8.0,0.0,0.0,0.0,snow covered,0.22406142950058,-9.99979400634766,100.0,480.957305908203
arenacam6_1769615126843825141.png,1769615126843825141,1769615126.843825,42.29945322728403,-83.69754751636503,234.35276794433594,0.7302930973382937,0.6830315377713271,0.009939496133566646,0.006412238796899111,-0.05961,-0.00019000000000000004,0.009510000000000001,0.5746,0.8839,-9.7516,3.2889602339768835,7.35720670579225,9.239999771118164,9.449999809265137,8.779999732971191,9.050000190734863,7.502965006945839,7.673486974121532,7.129440734770146,7.348683595878468,7.413644077928996,0.007671032552655292,2.799999952316284,37.275001525878906,0.0,8.0,0.0,0.0,0.0,snow covered,0.22406142950058,-9.99979400634766,100.0,480.957305908203
arenacam6_1769615126864412350.png,1769615126864412350,1769615126.8644123,42.299453816862076,-83.69754748839449,234.353759765625,0.7303322055600263,0.6829845267999927,0.010282917603712104,0.006423961330267953,-0.01007,0.018990000000000003,-0.0034300000000000003,2.5092000000000003,2.3384,-10.148100000000001,3.322043514336022,7.4312120189588216,9.420000076293945,9.59999942779541,8.989999771118164,9.069999694824219,7.649126914351387,7.795288047364597,7.299962701945839,7.364923377594453,7.527325260314068,0.01293372347741373,2.799999952316284,37.5,0.0,8.0,0.0,0.0,0.0,snow covered,0.22406142950058,-9.99979400634766,100.0,480.957305908203
arenacam6_1769615126885156648.png,1769615126885156648,1769615126.8851566,42.29945441546841,-83.69754745423577,234.35487365722656,0.730167163287531,0.6831589252597019,0.010415491361048506,0.006427599424156166,-0.017090000000000004,0.007980000000000001,-0.019780000000000002,1.6453,0.48250000000000004,-9.9559,3.3612673200274985,7.518953318862313,9.300000190734863,9.40999984741211,9.389999389648438,9.5,7.551685900878468,7.641006636297226,7.624766080188904,7.714087590000001,7.632886551841151,0.015152804938025143,2.9000000953674316,37.57500076293945,0.0,8.0,0.0,0.0,0.0,snow covered,0.22406142950058,-9.99979400634766,100.0,480.957305908203
arenacam6_1769615126905712551.png,1769615126905712551,1769615126.9057126,42.2994550252764,-83.69754741196387,234.35606384277344,0.7300645937251609,0.6832662220398457,0.010661122570090314,0.006268913291605153,0.0019900000000000004,0.021920000000000002,-0.017820000000000003,2.6554,1.3661,-9.6281,3.402402491371682,7.610970229048971,9.319999694824219,9.569999694824219,9.699999809265137,9.699999809265137,7.567925682594453,7.770927987594452,7.876489279121533,7.876489279121533,7.772958057107992,0.02128346625779174,3.0,37.35000228881836,0.0,8.0,0.0,0.0,0.0,snow covered,0.22406142950058,-9.99979400634766,100.0,480.957305908203
arenacam6_1769615126926714736.png,1769615126926714736,1769615126.9267147,42.29945563959816,-83.6975473653785,234.35733032226562,0.7298562527005057,0.6834885355716064,0.010708632070811686,0.006212675376100468,0.0005400000000000001,0.00034,-0.031490000000000004,2.3225000000000002,0.7489,-10.145000000000001,3.4609018955260913,7.741829886178135,9.460000038146973,9.65999984741211,9.619999885559082,9.920000076293945,7.681607252175693,7.844008941297226,7.81152860347292,8.055131524351388,7.848069080324307,0.01372274975143093,3.5,37.47500228881836,0.0,8.0,0.0,0.0,0.0,snow covered,0.22406142950058,-9.99979400634766,100.0,480.957305908203
arenacam6_1769615126947093370.png,1769615126947093370,1769615126.9470932,42.29945625843379,-83.69754731381275,234.358642578125,0.7297198386300515,0.6836377216089535,0.01059759017859277,0.006009474640673894,0.03513000000000001,-0.004090000000000001,-0.018380000000000004,2.266,1.3323,-10.3839,3.503752747551763,7.837684671108441,9.65999984741211,9.729999542236328,9.729999542236328,9.979999542236328,7.844008941297226,7.900849338891678,7.900849338891678,8.103851643891678,7.937389815743066,0.012721249810184528,4.200000286102295,37.70000076293945,0.0,8.0,0.0,0.0,0.0,snow covered,0.22406142950058,-9.99979400634766,100.0,480.957305908203
arenacam6_1769615126968042977.png,1769615126968042977,1769615126.968043,42.29945753290048,-83.69754720774316,234.36207580566406,0.7295503095173166,0.6838262117439087,0.010296946599019223,0.0056595853116433,0.04385,-0.0014100000000000002,-0.023590000000000003,2.7894,-0.3069,-10.417,3.5536946155157625,7.9494016332318305,10.0,9.899999618530273,9.800000190734863,9.929999351501465,8.1200922,8.038890968243065,7.957690510878468,8.06325102801321,8.044981176783686,0.012023489057628348,5.300000190734863,37.57500076293945,0.0,0.0,0.0,0.0,0.0,snow covered,0.22406142950058,-9.99979400634766,100.0,480.957305908203
arenacam6_1769615126988480511.png,1769615126988480511,1769615126.9884806,42.29945817955696,-83.69754715101342,234.3640899658203,0.7294502286723129,0.6839410262296699,0.009932441200641634,0.0053275830929232285,0.052340000000000005,0.0007100000000000001,-0.011280000000000002,2.8160000000000003,0.1621,-10.0136,3.6017742198390894,8.056952823326853,10.09000015258789,10.199999809265137,9.920000076293945,9.989999771118164,8.193173153702775,8.282493889121533,8.055131524351388,8.11197192194584,8.160692622280383,0.012875810648062614,6.300000190734863,37.25,0.0,0.0,0.0,0.0,0.0,snow covered,0.22406142950058,-9.99979400634766,100.0,480.957305908203
arenacam6_1769615127009861554.png,1769615127009861554,1769615127.0098617,42.29945884154734,-83.69754709690598,234.3664093017578,0.7293814328009373,0.6840236007778795,0.00942851214804961,0.005053931419213797,0.05711000000000001,-0.011830000000000002,-0.009190000000000002,1.7649000000000001,0.24400000000000002,-10.076400000000001,3.646035600650156,8.15596287651836,10.170000076293945,10.380000114440918,10.09000015258789,10.109999656677246,8.258133829351388,8.428655796527082,8.193173153702775,8.20941293541876,8.27234392875,0.014269443595275537,7.800000190734863,37.29999923706055,0.0,0.0,0.0,0.0,0.0,snow covered,0.22406142950058,-9.99979400634766,100.0,480.957305908203
arenacam6_1769615127031218842.png,1769615127031218842,1769615127.031219,42.29945950605756,-83.69754704275701,234.36859130859375,0.7293277898206713,0.6840889047707988,0.008991016486995797,0.0047441529607144236,0.04845000000000001,-0.017150000000000002,-0.007210000000000001,2.5159000000000002,-0.1477,-9.7802,3.695620570381334,8.266881478708822,10.219999313354492,10.269999504089355,10.260000228881836,10.279999732971191,8.298733670837517,8.339334286715985,8.331214783054161,8.347454564770146,8.329184326344453,0.007536438957797016,9.199999809265137,37.275001525878906,0.0,0.0,0.0,0.0,0.0,snow covered,0.22406142950058,-9.99979400634766,100.0,480.957305908203
arenacam6_1769615127050490957.png,1769615127050490957,1769615127.0504909,42.29946017737521,-83.69754698718903,234.37103271484375,0.7293071289302162,0.684118982617678,0.008487344440517318,0.004504919318490809,0.051570000000000005,-0.030600000000000002,-0.0029800000000000004,2.5026,-0.21580000000000002,-10.5114,3.7462135122642324,8.380054854124353,10.319999694824219,10.300000190734863,10.429999351501465,10.329999923706055,8.379934902594453,8.363695120878468,8.46925563801321,8.388055180648614,8.400235210533687,0.0024081413261157693,10.600000381469727,37.25,0.0,0.0,0.0,0.0,0.0,snow covered,0.22406142950058,-9.99979400634766,100.0,480.957305908203
arenacam6_1769615127071380463.png,1769615127071380463,1769615127.0713804,42.29946086460726,-83.69754693683788,234.37353515625,0.7292989295636791,0.6841350295944187,0.00799816952347381,0.004285079157875023,0.05251000000000001,-0.024200000000000003,-0.0014200000000000003,2.2112000000000003,-0.11380000000000001,-10.154,3.7888475054048527,8.475424538740333,10.449999809265137,10.670000076293945,10.40999984741211,10.529999732971191,8.485496194121533,8.664138439351387,8.453015856297226,8.550456869770146,8.538276839885073,0.0074158292434141695,11.699999809265137,37.525001525878906,0.0,0.0,0.0,0.0,0.0,snow covered,0.22406142950058,-9.99979400634766,100.0,480.957305908203
arenacam6_1769615127092037007.png,1769615127092037007,1769615127.0920372,42.29946155420838,-83.69754688499232,234.3762969970703,0.7292887098457951,0.6841515469847748,0.007601061851938978,0.004106374132761288,0.03563000000000001,-0.024590000000000004,-0.006170000000000001,3.1435,-0.0762,-10.4838,3.843182843219413,8.596969429311235,10.59999942779541,10.779999732971191,10.529999732971191,10.639999389648438,8.607297267364597,8.753459174770146,8.550456869770146,8.639777605188904,8.637747729273448,0.004743334299082167,12.600000381469727,37.54999923706055,0.0,0.0,0.0,0.0,0.0,snow covered,0.22406142950058,-9.99979400634766,100.0,480.957305908203
arenacam6_1769615127112593859.png,1769615127112593859,1769615127.112594,42.29946225174183,-83.69754682899675,234.3793182373047,0.7292048507202887,0.6842507512854654,0.006791975656189943,0.0038812521127741455,0.052320000000000005,-0.02679,-0.011550000000000003,2.5069,0.1182,-10.642800000000001,3.9080195152787915,8.74200517450774,10.729999542236328,10.760000228881836,10.829999923706055,10.699999809265137,8.712858558891678,8.737219393054161,8.794059790648614,8.688498499121533,8.733159060428996,0.001011909041708263,13.0,37.625,0.0,0.0,0.0,0.0,0.0,snow covered,0.22406142950058,-9.99979400634766,100.0,480.957305908203
arenacam6_1769615127133246198.png,1769615127133246198,1769615127.1332462,42.299462965250406,-83.69754677291654,234.38270568847656,0.7290814120765482,0.6843888117690502,0.006223626267639772,0.003676325052901366,0.057030000000000004,-0.030370000000000005,-0.020520000000000004,2.9145000000000003,0.2467,-10.2575,3.960024226927668,8.858336594183578,10.84999942779541,10.829999923706055,10.779999732971191,10.859999656677246,8.810299572364597,8.794059790648614,8.753459174770146,8.81841985041876,8.794059597050529,0.007256102367486692,13.199999809265137,37.400001525878906,0.0,0.0,0.0,0.0,0.0,snow covered,0.22406142950058,-9.99979400634766,100.0,480.957305908203
arenacam6_1769615127153953891.png,1769615127153953891,1769615127.1539538,42.29946367884457,-83.69754671902955,234.386474609375,0.7289241935869868,0.6845615299492426,0.005587916250670619,0.003715764939956599,0.0357,-0.05148000000000001,-0.022200000000000004,1.6725,-0.035300000000000005,-10.4634,4.004329538637473,8.957444918159709,10.9399995803833,11.010000228881836,11.059999465942383,10.979999542236328,8.883380526067372,8.940221698054161,8.980821539540292,8.915860863891679,8.930071156888376,0.003055978744098919,13.0,37.32500076293945,0.0,0.0,0.0,0.0,0.0,snow covered,0.22406142950058,-9.99979400634766,100.0,480.957305908203
arenacam6_1769615127174498263.png,1769615127174498263,1769615127.1744983,42.299464402294724,-83.6975466610086,234.39012145996094,0.7287612003411835,0.6847382896894088,0.005213384747260819,0.003661711345489018,0.025330000000000002,-0.02909,-0.025610000000000004,2.4978000000000002,0.1557,-9.0454,4.0492695562930034,9.05797304125407,11.010000228881836,11.15999984741211,11.309999465942383,11.199999809265137,8.940221698054161,9.062022771297226,9.18382384454029,9.094503109121534,9.070142855753303,0.0013435472200906105,12.699999809265137,37.60000228881836,0.0,0.0,0.0,0.0,0.0,snow covered,0.22406142950058,-9.99979400634766,100.0,480.957305908203
arenacam6_1769615127195290261.png,1769615127195290261,1769615127.1952903,42.29946514175347,-83.69754660954204,234.3934326171875,0.7285506719329377,0.6849651922280267,0.004822817128686012,0.0036529846743116427,0.02706,-0.03255000000000001,-0.03490000000000001,2.5820000000000003,-1.6113000000000002,-8.8846,4.102993285873567,9.178149800902018,11.149999618530273,11.300000190734863,11.399999618530273,11.34999942779541,9.053902493243067,9.175704340878468,9.256904798243067,9.216304182364599,9.1757039536823,0.0002664858683694413,12.40000057220459,37.650001525878906,0.0,0.0,0.0,0.0,0.0,snow covered,0.22406142950058,-9.99979400634766,100.0,480.957305908203
arenacam6_1769615127216012109.png,1769615127216012109,1769615127.216012,42.29946587963971,-83.69754656193672,234.39678955078125,0.7283779917485484,0.6851473782286134,0.004864002742622452,0.00386169912454082,-0.029980000000000003,-0.00222,-0.017990000000000003,1.9004,-1.0044,-8.1582,4.141456008168352,9.264188602912114,11.4399995803833,11.34999942779541,11.59999942779541,11.519999504089355,9.289385136067372,9.216304182364599,9.419306487364599,9.354345811715985,9.31983540437814,0.0060066567997690955,12.0,37.275001525878906,0.0,0.0,0.0,0.0,0.0,snow covered,0.22406142950058,-9.99979400634766,100.0,480.957305908203
arenacam6_1769615127236909197.png,1769615127236909197,1769615127.2369094,42.29946662887181,-83.697546513675,234.39927673339844,0.7282500631995962,0.6852809946434963,0.005070223879658561,0.004012064308406606,-0.0206,0.011590000000000001,-0.022140000000000003,2.948,-0.25930000000000003,-8.0721,4.192948878680952,9.37937506467657,11.619999885559082,11.800000190734863,11.6899995803833,11.779999732971191,9.435547043472921,9.581708950878468,9.49238744106737,9.565468394770146,9.518777957547226,0.014862705874259988,11.699999809265137,37.20000076293945,0.0,0.0,0.0,0.0,0.0,snow covered,0.22406142950058,-9.99979400634766,100.0,480.957305908203
arenacam6_1769615127257634833.png,1769615127257634833,1769615127.2576349,42.29946739272064,-83.69754647795,234.40084838867188,0.7280762800609593,0.6854622865293861,0.005361958799258073,0.004199232827171173,-0.042210000000000004,0.026340000000000002,-0.022590000000000006,2.0594,-2.083,-8.7919,4.234854169983461,9.473114687002806,11.800000190734863,11.859999656677246,11.869999885559082,11.779999732971191,9.581708950878468,9.630429070418758,9.638549348472921,9.565468394770146,9.604038941135073,0.013820613225753162,11.300000190734863,36.775001525878906,0.0,0.0,0.0,0.0,0.0,snow covered,0.22406142950058,-9.99979400634766,100.0,480.957305908203
arenacam6_1769615127278213970.png,1769615127278213970,1769615127.278214,42.29946815809224,-83.697546438587,234.40245056152344,0.7280133731085476,0.6855233792468433,0.005861414491813887,0.004457454571670445,-0.051140000000000005,0.024870000000000003,-0.0027800000000000004,2.1567000000000003,0.3461,-9.0832,4.279359914473137,9.572671367081538,11.929999351501465,11.969999313354492,11.90999984741211,11.969999313354492,9.687269468013211,9.719749805837518,9.671029686297226,9.719749805837518,9.699449691496367,0.013243776951415445,11.100000381469727,37.025001525878906,0.0,0.0,0.0,0.0,0.0,snow covered,0.22406142950058,-9.99979400634766,100.0,480.957305908203
arenacam6_1769615127298892373.png,1769615127298892373,1769615127.2988923,42.29946893249625,-83.69754640323274,234.4037628173828,0.7279106673449737,0.6856291147837801,0.006175334641372049,0.004543409322559715,-0.02274,0.012870000000000003,-0.017030000000000003,2.2447,-0.38630000000000003,-9.1983,4.331334383222641,9.688935135206055,12.15999984741211,12.139999389648438,12.079999923706055,12.139999389648438,9.874031991297226,9.857791435188904,9.809071315648612,9.857791435188904,9.849671544330912,0.016589687812110454,10.800000190734863,36.72500228881836,0.0,0.0,0.0,0.0,0.0,snow covered,0.22406142950058,-9.99979400634766,100.0,480.957305908203
arenacam6_1769615127319896404.png,1769615127319896404,1769615127.3198962,42.2994697221666,-83.6975463762435,234.40481567382812,0.7278440828258751,0.6856954803305824,0.006595550207621444,0.004604135861550865,-0.03912000000000001,0.024780000000000003,-0.005510000000000001,2.3393,-1.1711,-9.556600000000001,4.376472248055143,9.789905830564473,12.239999771118164,12.199999809265137,12.179999351501465,12.300000190734863,9.93899266694584,9.906512329121533,9.890271773013211,9.987713560878468,9.930872582489762,0.01439919385998434,10.5,36.22500228881836,0.0,0.0,0.0,0.0,0.0,snow covered,0.22406142950058,-9.99979400634766,100.0,480.957305908203
arenacam6_1769615127340423974.png,1769615127340423974,1769615127.3404238,42.29947051458052,-83.69754634124506,234.40615844726562,0.7278054200385624,0.6857312931734835,0.007023764880686331,0.004746667464092913,-0.03724,0.014960000000000003,-0.00898,2.8887,0.17470000000000002,-10.2547,4.432408218963072,9.915031241327256,12.34999942779541,12.369999885559082,12.329999923706055,12.300000190734863,10.028313402364597,10.04455395847292,10.012073620648613,9.987713560878468,10.018163635591149,0.010401620706349634,10.100000381469727,36.025001525878906,0.0,0.0,0.0,0.0,0.0,snow covered,0.22406142950058,-9.99979400634766,100.0,480.957305908203
arenacam6_1769615127360906318.png,1769615127360906318,1769615127.3609061,42.29947131519787,-83.69754630969604,234.40740966796875,0.727765054167365,0.6857704060075333,0.007287652696243299,0.0048853142389891245,-0.024350000000000004,0.012220000000000002,-0.005680000000000001,2.3527,0.2073,-10.7561,4.480219460703884,10.021982120426946,12.59000015258789,12.539999961853027,12.429999351501465,12.380000114440918,10.223196203702775,10.182595587824308,10.09327407801321,10.05267423652708,10.137935026516843,0.011569857608662028,9.800000190734863,36.29999923706055,0.0,0.0,0.0,0.0,0.0,snow covered,0.22406142950058,-9.99979400634766,100.0,480.957305908203
arenacam6_1769615127381546708.png,1769615127381546708,1769615127.3815467,42.299472132582764,-83.6975462822212,234.40940856933594,0.7277117324043071,0.6858213378444069,0.007658120657016139,0.005106884219627297,-0.04887000000000001,0.011050000000000003,-0.007280000000000001,2.7953,-0.4204,-11.176400000000001,4.5286240858509945,10.130260362603524,12.769999504089355,12.59000015258789,12.579999923706055,12.609999656677246,10.369357336715984,10.223196203702775,10.215075925648613,10.23943598541876,10.261766362871533,0.012981502504463949,9.5,36.04999923706055,0.0,0.0,0.0,0.0,0.0,snow covered,0.22406142950058,-9.99979400634766,100.0,480.957305908203
arenacam6_1769615127402210556.png,1769615127402210556,1769615127.4022105,42.29947295075625,-83.69754624844697,234.41139221191406,0.7276969520231545,0.6858309181914974,0.007999108508155356,0.005395547413668764,-0.04268000000000001,0.01297,-0.00255,3.1251,0.45930000000000004,-11.0131,4.579549478328267,10.244177410051634,12.75,12.779999732971191,12.6899995803833,12.739999771118164,10.353117554999999,10.377477614770147,10.304396661067372,10.34499727694584,10.34499727694584,0.009841675213012303,9.199999809265137,36.025001525878906,0.0,0.0,0.0,0.0,0.0,snow covered,0.22406142950058,-9.99979400634766,100.0,480.957305908203
arenacam6_1769615127422896691.png,1769615127422896691,1769615127.4228966,42.29947377754322,-83.6975462170807,234.41371154785156,0.7276066291929267,0.6859180108571141,0.008291306930605551,0.006027417830970197,-0.04623000000000001,-0.00918,-0.007600000000000001,2.4105000000000003,0.20600000000000002,-11.0267,4.651049951263083,10.404119677978441,13.039999961853027,12.90999984741211,12.779999732971191,12.929999351501465,10.588600197824306,10.483038906297226,10.377477614770147,10.499278688013211,10.487098851726222,0.007975607385929617,8.90000057220459,36.125,0.0,0.0,0.0,0.0,0.0,snow covered,0.22406142950058,-9.99979400634766,100.0,480.957305908203
arenacam6_1769615127443735282.png,1769615127443735282,1769615127.4437354,42.29947462093262,-83.6975461832121,234.41683959960938,0.7275634400576867,0.6859584215898983,0.008466370567892956,0.006387887814244173,-0.033990000000000006,-0.013430000000000003,-0.00931,3.1017,0.7761,-9.8846,4.705907649572363,10.526833057634402,13.029999732971191,12.979999542236328,12.960000038146973,13.109999656677246,10.580479919770147,10.539879303891679,10.523639522175694,10.645440595418759,10.57235983531407,0.004324831355300285,8.600000381469727,36.0,0.0,0.0,0.0,0.0,0.0,snow covered,0.22406142950058,-9.99979400634766,100.0,480.957305908203
arenacam6_1769615127464371058.png,1769615127464371058,1769615127.464371,42.2994754669078,-83.69754614974858,234.41990661621094,0.7274641060336482,0.6860594400901893,0.008532189982308319,0.006754319351869949,-0.030540000000000005,-0.015310000000000002,-0.012120000000000002,2.2549,0.3909,-10.204600000000001,4.752391175432032,10.63081391597093,13.239999771118164,12.979999542236328,13.179999351501465,13.119999885559082,10.751001886945838,10.539879303891679,10.702280993013211,10.65356087347292,10.661680764330912,0.0029035263531055466,8.40000057220459,36.04999923706055,0.0,0.0,0.0,0.0,0.0,snow covered,0.22406142950058,-9.99979400634766,100.0,480.957305908203
arenacam6_1769615127485265348.png,1769615127485265348,1769615127.4852655,42.2994763213462,-83.69754611147485,234.4229736328125,0.7274012449999397,0.6861225528376564,0.0085445449619038,0.00708957061246,-0.022900000000000004,-0.026160000000000003,-0.010350000000000002,2.0032,1.0318,-9.6613,4.796954827427469,10.730500131665604,13.229999542236328,13.269999504089355,13.279999732971191,13.309999465942383,10.742881608891679,10.775361946715984,10.783482224770147,10.80784228454029,10.777392016229525,0.004369962628819483,8.199999809265137,35.875,0.0,0.0,0.0,0.0,0.0,snow covered,0.22406142950058,-9.99979400634766,100.0,480.957305908203
arenacam6_1769615127507538031.png,1769615127507538031,1769615127.5075378,42.29947806025933,-83.6975460269573,234.42950439453125,0.7272882729835483,0.6862415881630717,0.008506271135168482,0.007203749538102854,0.0005200000000000001,-0.012600000000000002,-0.015870000000000002,2.075,1.1529,-9.2165,4.839521826305417,10.825719954135641,13.380000114440918,13.420000076293945,13.460000038146973,13.519999504089355,10.86468345652708,10.897163794351389,10.929644132175694,10.978364251715986,10.917463908692538,0.008474628472339962,8.100000381469727,35.72500228881836,0.0,0.0,0.0,0.0,0.0,snow covered,0.22406142950058,-9.99979400634766,100.0,480.957305908203
arenacam6_1769615127526763329.png,1769615127526763329,1769615127.5267632,42.29947806025933,-83.6975460269573,234.42950439453125,0.7271754818667272,0.6863639677865245,0.008342123219702943,0.007122589165413039,0.01736,-0.0105,-0.01856,1.9207,0.12390000000000001,-9.8735,4.879468536499047,10.915078348036179,13.579999923706055,13.559999465942383,13.59999942779541,13.75999927520752,11.027085145648613,11.01084458954029,11.043324927364598,11.173246278661823,11.063625235303832,0.01360932853902776,8.100000381469727,35.775001525878906,0.0,0.0,0.0,0.0,0.0,snow covered,0.22406142950058,-9.99979400634766,100.0,480.957305908203
arenacam6_1769615127547208668.png,1769615127547208668,1769615127.5472088,42.29947893662252,-83.69754597960141,234.43251037597656,0.7270701313404818,0.6864776939669832,0.008289353697398786,0.006977565018456082,0.015510000000000001,0.00973,-0.016250000000000004,1.8904,0.7687,-9.7987,4.91408472322873,10.992512680779276,13.859999656677246,13.789999961853027,13.710000038146973,13.799999237060547,11.254447510418759,11.197607112824306,11.132646437175694,11.20572661648613,11.197606919226223,0.018657630371039707,8.0,35.97500228881836,0.0,0.0,0.0,0.0,0.0,snow covered,0.22406142950058,-9.99979400634766,100.0,480.957305908203
arenacam6_1769615127567998897.png,1769615127567998897,1769615127.567999,42.299480717624014,-83.69754587549913,234.4385528564453,0.7269685441773982,0.6865894710094069,0.008185685617618184,0.006680466045599047,0.03146,0.00657,-0.015790000000000002,2.4015,0.4061,-9.8228,4.96206926760454,11.0998512274753,13.84000015258789,14.019999504089355,13.889999389648438,13.949999809265137,11.238207728702776,11.384368861715986,11.278807570188903,11.327528464121533,11.3072281561823,0.01868285659484176,7.900000095367432,35.75,0.0,0.0,0.0,0.0,0.0,snow covered,0.22406142950058,-9.99979400634766,100.0,480.957305908203
arenacam6_1769615127588667504.png,1769615127588667504,1769615127.5886674,42.29948161539969,-83.69754582138496,234.44140625,0.7269006416363634,0.6866639028427837,0.008194979267760496,0.006401877549621771,0.013840000000000002,0.020050000000000005,-0.01314,1.6125,0.3337,-9.4745,4.995838986568775,11.175392062615156,14.170000076293945,13.989999771118164,14.0,14.019999504089355,11.506170709351387,11.36000880194584,11.368129080000001,11.384368861715986,11.404669363253303,0.02051626460651384,7.900000095367432,36.17499923706055,0.0,0.0,0.0,0.0,0.0,snow covered,0.22406142950058,-9.99979400634766,100.0,480.957305908203
arenacam6_1769615127609417802.png,1769615127609417802,1769615127.6094177,42.299482527903244,-83.69754576338269,234.44439697265625,0.7267976939749227,0.6867748980217885,0.008308402716509893,0.006026767308984227,0.022570000000000003,0.03466,-0.017560000000000003,2.2659000000000002,0.2516,-10.1838,5.0355307878717905,11.264180240621924,14.479999542236328,14.139999389648438,14.09000015258789,14.269999504089355,11.757893133891677,11.481809875188905,11.441210033702776,11.587371166715984,11.567071052374835,0.026889734120251283,7.800000190734863,35.67499923706055,0.0,0.0,0.0,0.0,0.0,snow covered,0.22406142950058,-9.99979400634766,100.0,480.957305908203
arenacam6_1769615127629986027.png,1769615127629986027,1769615127.629986,42.29948344005893,-83.69754570586474,234.44728088378906,0.72671081721711,0.6868687124214267,0.008336622036934022,0.005767215028470254,0.014390000000000002,0.017240000000000002,-0.012410000000000001,2.5671,0.1593,-10.5755,5.087643495705252,11.380753241282907,14.699999809265137,14.569999694824219,14.199999809265137,14.429999351501465,11.936535379121532,11.830974087594452,11.530530769121533,11.71729251801321,11.753833188462682,0.032781656826233005,7.700000286102295,35.75,0.0,0.0,0.0,0.0,0.0,snow covered,0.22406142950058,-9.99979400634766,100.0,480.957305908203
arenacam6_1769615127650473317.png,1769615127650473317,1769615127.650473,42.29948436320726,-83.69754564918404,234.45016479492188,0.7266064579728568,0.6869807739170122,0.008387742463378978,0.005487920998885175,0.018830000000000003,0.029920000000000006,-0.020970000000000003,2.7209000000000003,0.6393,-9.1793,5.133620398343438,11.483600813870371,14.449999809265137,15.0,14.34999942779541,14.420000076293945,11.733533074121533,12.180138300000001,11.652331842364598,11.709173014351387,11.818794057709379,0.02918886238488433,7.599999904632568,36.025001525878906,0.0,0.0,0.0,0.0,0.0,snow covered,0.22406142950058,-9.99979400634766,100.0,480.957305908203
arenacam6_1769615127671251298.png,1769615127671251298,1769615127.6712513,42.29948529977507,-83.69754558388912,234.4529266357422,0.726497105492262,0.6871001906111592,0.00824821624805554,0.005220220512514744,0.033100000000000004,0.0018200000000000002,-0.014980000000000004,2.2455000000000003,0.5134000000000001,-9.7156,5.1828008525414555,11.593614539084085,14.549999237060547,15.0,14.420000076293945,14.649999618530273,11.81473353148613,12.180138300000001,11.709173014351387,11.895934763243066,11.899994902270144,0.02642664737155082,7.400000095367432,35.85000228881836,0.0,0.0,0.0,0.0,0.0,snow covered,0.22406142950058,-9.99979400634766,100.0,480.957305908203
arenacam6_1769615127691909302.png,1769615127691909302,1769615127.6919093,42.299486238501025,-83.69754551934365,234.45558166503906,0.726401141199905,0.6872096164608102,0.007902911653767669,0.004676440382864138,0.07465000000000001,0.022600000000000006,-0.017720000000000003,2.221,1.2461,-9.9742,5.220096482688682,11.67704262598562,14.899999618530273,14.559999465942383,14.579999923706055,14.710000038146973,12.098937068243064,11.822853809540293,11.839094365648613,11.944655657175694,11.926385225151916,0.02135323190577541,7.300000190734863,35.60000228881836,0.0,0.0,0.0,0.0,0.0,snow covered,0.22406142950058,-9.99979400634766,100.0,480.957305908203
arenacam6_1769615127712826267.png,1769615127712826267,1769615127.7128263,42.29948718265903,-83.69754545586567,234.4580078125,0.7262378389419474,0.6873959112140682,0.00728689039689323,0.0035162143641491385,0.07388,0.02645,-0.013700000000000002,1.7429000000000001,-0.7447,-8.8607,5.274293358319749,11.79827778495978,15.059999465942383,14.920000076293945,14.769999504089355,14.6899995803833,12.228858419540291,12.115177624351388,11.993375776715984,11.928415101067372,12.066456730418759,0.022730346780006214,7.099999904632568,35.75,0.0,0.0,0.0,0.0,0.0,snow covered,0.22406142950058,-9.99979400634766,100.0,480.957305908203
arenacam6_1769615127733381597.png,1769615127733381597,1769615127.7333817,42.29948814061067,-83.69754538395597,234.46006774902344,0.7261430102965967,0.6875020270751037,0.0070800594495126585,0.002676587979399955,0.07981,0.04207,-0.01794,2.8582,1.6646,-10.0084,5.319138521702673,11.898593724737578,15.229999542236328,15.0,14.889999389648438,14.899999618530273,12.36690004889168,12.180138300000001,12.090816790188905,12.098937068243064,12.184198051830911,0.024003200184871596,7.099999904632568,35.75,0.0,0.0,0.0,0.0,0.0,snow covered,0.22406142950058,-9.99979400634766,100.0,480.957305908203
arenacam6_1769615127754077465.png,1769615127754077465,1769615127.7540774,42.299489099748605,-83.69754531566991,234.46214294433594,0.7259875307022106,0.6876740790726926,0.0065781023511402165,0.0017874019942404494,0.10116000000000001,0.027100000000000003,-0.028560000000000006,2.2509,-0.32220000000000004,-10.0221,5.367296360700564,12.00631992110552,15.630000114440918,15.059999465942383,15.0,15.119999885559082,12.691704201527081,12.228858419540291,12.180138300000001,12.27757931347292,12.344570058635073,0.028172674037691903,7.099999904632568,35.75,0.0,0.0,0.0,0.0,0.0,snow covered,0.22406142950058,-9.99979400634766,100.0,480.957305908203
arenacam6_1769615127774690793.png,1769615127774690793,1769615127.7746909,42.29949006716585,-83.69754524814307,234.46417236328125,0.7258628615357031,0.687809208727755,0.006342865445521595,0.0011690553625143295,0.04637,0.027600000000000003,-0.01657,2.1299,-1.0578,-9.742600000000001,5.407420450796214,12.096075103204083,15.869999885559082,15.40999984741211,15.239999771118164,15.00999927520752,12.88658622847292,12.513061956297227,12.375020326945839,12.188257803661823,12.490731578844454,0.03262682087149343,7.099999904632568,35.35000228881836,0.0,0.0,0.0,0.0,0.0,snow covered,0.22406142950058,-9.99979400634766,100.0,480.957305908203
arenacam6_1769615127795473717.png,1769615127795473717,1769615127.7954736,42.29949104972155,-83.69754517814512,234.4661865234375,0.7257340303127133,0.6879463111091149,0.006280215427826691,0.0007410611358236531,0.034390000000000004,0.025000000000000005,-0.024290000000000003,2.6801,0.6166,-9.664100000000001,5.455797238453616,12.204291074586434,15.6899995803833,15.519999504089355,15.25,15.359999656677246,12.74042432106737,12.602382691715986,12.383140605000001,12.472461340418759,12.54960223955053,0.028294241988635775,7.099999904632568,35.42499923706055,0.0,0.0,0.0,0.0,0.0,snow covered,0.22406142950058,-9.99979400634766,100.0,480.957305908203
arenacam6_1769615127816147070.png,1769615127816147070,1769615127.8161469,42.29949203156877,-83.69754511324108,234.4680938720703,0.7255701651927957,0.6881210207124056,0.006101213886563504,0.00041403493382671596,0.03461,0.013410000000000002,-0.02644,1.9206,-0.9198000000000001,-10.1076,5.498276079235044,12.29931369268404,15.960000038146973,15.519999504089355,15.380000114440918,15.25999927520752,12.959667182175693,12.602382691715986,12.48870189652708,12.391260108661823,12.610502969770147,0.02530135297477706,7.099999904632568,35.025001525878906,0.0,0.0,0.0,0.0,0.0,snow covered,0.22406142950058,-9.99979400634766,100.0,480.957305908203
arenacam6_1769615127836861336.png,1769615127836861336,1769615127.8368614,42.299493022458506,-83.6975450502865,234.47024536132812,0.7254407974987199,0.6882564595509346,0.006214678411133601,0.00027015380831873023,-0.0061400000000000005,0.028120000000000003,-0.016450000000000003,1.9420000000000002,-0.862,-10.114,5.532693831362755,12.376304139128601,16.059999465942383,15.739999771118164,15.479999542236328,15.50999927520752,13.040867639540291,12.781024936945839,12.56990235389168,12.594262413661824,12.746514336009907,0.029912823143288726,7.0,35.07500076293945,0.0,0.0,0.0,0.0,0.0,snow covered,0.22406142950058,-9.99979400634766,100.0,480.957305908203
arenacam6_1769615127857687626.png,1769615127857687626,1769615127.8576875,42.2994940279538,-83.69754499020686,234.4723663330078,0.7253210011432965,0.6883812938671975,0.006371823326447833,0.0001985490014702539,-0.00272,0.015580000000000002,-0.016710000000000003,2.9769,-0.3482,-10.012,5.586622479823379,12.49693929001611,15.639999389648438,15.739999771118164,15.559999465942383,15.59999942779541,12.699823705188903,12.781024936945839,12.634863029540291,12.667343367364598,12.695763759759906,0.015909853215229926,6.900000095367432,34.875,0.0,0.0,0.0,0.0,0.0,snow covered,0.22406142950058,-9.99979400634766,100.0,480.957305908203
arenacam6_1769615127878309257.png,1769615127878309257,1769615127.8783095,42.299495030149046,-83.69754493117226,234.4745635986328,0.7252500772798574,0.6884557942882514,0.006398709076229246,3.5194479300471994e-05,0.012410000000000001,0.030410000000000003,-0.011730000000000003,1.465,-0.6078,-9.9244,5.615921289266309,12.562478968811378,15.789999961853027,15.920000076293945,15.739999771118164,15.719999313354492,12.821625552824306,12.927186844351388,12.781024936945839,12.764784380837519,12.823655428739762,0.02079020076983228,6.900000095367432,34.75,0.0,0.0,0.0,0.0,0.0,snow covered,0.22406142950058,-9.99979400634766,100.0,480.957305908203
arenacam6_1769615127898996252.png,1769615127898996252,1769615127.898996,42.299496042789386,-83.6975448741055,234.4768524169922,0.7251421863030421,0.6885688961680608,0.006450325627849213,-0.00027959405721467184,0.025880000000000004,0.03849000000000001,-0.015510000000000001,1.6649,-0.21710000000000002,-9.356300000000001,5.648273102725348,12.63484803441044,16.020000457763672,16.049999237060547,15.859999656677246,15.84999942779541,13.008388076108323,13.03274736148613,12.878465950418759,12.870345672364598,12.947486765094453,0.02474416232253487,6.900000095367432,34.97500228881836,0.0,0.0,0.0,0.0,0.0,snow covered,0.22406142950058,-9.99979400634766,100.0,480.957305908203
arenacam6_1769615127919738046.png,1769615127919738046,1769615127.919738,42.29949706703895,-83.6975448194668,234.4790802001953,0.7250739868165215,0.6886402837917676,0.006465657959087292,-0.0006844328633578,0.027940000000000003,0.027090000000000003,-0.010290000000000002,1.9502000000000002,-0.3957,-9.9626,5.68998724032095,12.728160057363548,16.190000534057617,16.049999237060547,16.020000457763672,15.929999351501465,13.14642970545971,13.03274736148613,13.008388076108323,12.93530634801321,13.030717872766843,0.023770742514214245,6.900000095367432,34.97500228881836,0.0,0.0,0.0,0.0,0.0,snow covered,0.22406142950058,-9.99979400634766,100.0,480.957305908203
arenacam6_1769615127940405857.png,1769615127940405857,1769615127.9404058,42.29949809078075,-83.69754476397154,234.4814910888672,0.7250161860757744,0.6887001881394003,0.006508241165587483,-0.0011061563286156285,0.026330000000000003,0.028180000000000007,-0.011170000000000003,1.9461000000000002,-0.4499,-10.699,5.727061941938749,12.811093940400466,16.19999885559082,16.3799991607666,16.079999923706055,16.149999618530273,13.154548434729195,13.300710342134742,13.057108195648613,13.113948593243066,13.156578891438905,0.026967638567455425,6.900000095367432,35.42499923706055,0.0,0.0,0.0,0.0,0.0,snow covered,0.22406142950058,-9.99979400634766,100.0,480.957305908203
arenacam6_1769615127960792378.png,1769615127960792378,1769615127.9607923,42.29949912466202,-83.69754471448725,234.4843292236328,0.7249339722993019,0.6887850341931945,0.006632017929322411,-0.001388818209863638,0.007790000000000001,0.019020000000000002,-0.012110000000000003,2.2869,-0.3417,-10.3666,5.771359768978124,12.910185521617926,16.5,16.28999900817871,16.219999313354492,16.190000534057617,13.39815213,13.22762938843197,13.170788990837517,13.14642970545971,13.235750053682299,0.025217649391576884,6.900000095367432,35.17499923706055,0.0,0.0,0.0,0.0,0.0,snow covered,0.22406142950058,-9.99979400634766,100.0,480.957305908203
arenacam6_1769615127981776099.png,1769615127981776099,1769615127.9817762,42.29950017057828,-83.69754466411331,234.4875030517578,0.7248555156500713,0.688866562703839,0.006681125136198771,-0.0016440155661721224,0.014860000000000002,0.01959,-0.015690000000000003,2.2244,-0.4471,-10.608600000000001,5.810325613260182,12.997349777326232,16.68000030517578,16.350000381469727,16.28999900817871,16.350000381469727,13.544314037405549,13.276351056756935,13.22762938843197,13.276351056756935,13.331161384837849,0.02568305179367785,6.800000190734863,35.07500076293945,0.0,0.0,0.0,0.0,0.0,snow covered,0.22406142950058,-9.99979400634766,100.0,480.957305908203
arenacam6_1769615128002355176.png,1769615128002355176,1769615128.002355,42.29950121775816,-83.69754461928315,234.49073791503906,0.7247362063512894,0.688988826644838,0.0070064374066769256,-0.0016546289544973737,-0.026670000000000003,0.017060000000000002,-0.00916,2.3663000000000003,-0.3397,-9.9465,5.848694397967615,13.08317844658968,16.690000534057617,16.579999923706055,16.459999084472656,16.420000076293945,13.55243431545971,13.463112805648613,13.365671017783358,13.333191454351388,13.428602398310767,0.0264021432659682,6.700000286102295,35.17499923706055,0.0,0.0,0.0,0.0,0.0,snow covered,0.22406142950058,-9.99979400634766,100.0,480.957305908203
arenacam6_1769615128022952476.png,1769615128022952476,1769615128.0229526,42.299502273101865,-83.69754457403131,234.4942169189453,0.7246435527427801,0.6890837401780473,0.007260189788643614,-0.0016155911574220734,-0.016370000000000003,0.020690000000000004,-0.01666,2.507,0.1935,-9.6698,5.912812305809874,13.22660635935834,17.06999969482422,16.579999923706055,16.690000534057617,16.53999900817871,13.860997137594453,13.463112805648613,13.55243431545971,13.43063169343197,13.576793988033687,0.0264759999020894,6.400000095367432,34.95000076293945,0.0,0.0,0.0,0.0,0.0,snow covered,0.22406142950058,-9.99979400634766,100.0,480.957305908203
arenacam6_1769615128043645120.png,1769615128043645120,1769615128.0436451,42.29950334203206,-83.69754452997695,234.49758911132812,0.72453860025684,0.6891921210150513,0.007492050290831435,-0.001380670515869767,-0.04104000000000001,0.00256,-0.013610000000000002,1.9806000000000001,-0.9407000000000001,-10.1493,5.955791303807363,13.322747799138844,17.19999885559082,16.6299991607666,16.559999465942383,16.69999885559082,13.966557654729193,13.503712647134742,13.446872249540291,13.560553044729195,13.619423899033356,0.02226838669975337,5.599999904632568,34.82500076293945,0.0,0.0,0.0,0.0,0.0,snow covered,0.22406142950058,-9.99979400634766,100.0,480.957305908203
arenacam6_1769615128064415441.png,1769615128064415441,1769615128.0644155,42.29950440979737,-83.69754448648696,234.50108337402344,0.7244916147553497,0.6892390664646252,0.007765888029499098,-0.0010489953628420913,-0.03665000000000001,-0.00025000000000000006,-0.00676,2.088,0.7399,-10.2689,5.992933090730638,13.405831747978993,17.209999084472656,16.829999923706055,16.619998931884766,16.709999084472656,13.974677932783356,13.666115110648613,13.495592369080581,13.568673322783358,13.676264683823977,0.020172783078957604,5.0,34.79999923706055,0.0,0.0,0.0,0.0,0.0,snow covered,0.22406142950058,-9.99979400634766,100.0,480.957305908203
arenacam6_1769615128085026896.png,1769615128085026896,1769615128.0850267,42.29950548833115,-83.69754444502648,234.50486755371094,0.724371861661002,0.689364607087322,0.00783469425663023,-0.000679775714196647,-0.03567000000000001,-0.029380000000000003,-0.01821,1.7041000000000002,-0.8534,-10.4037,6.033423827204997,13.496407096027946,17.18000030517578,16.760000228881836,16.729999542236328,16.779998779296875,13.950318647405549,13.609274713054162,13.58491387889168,13.625513720377807,13.692505239932299,0.01452965537487863,4.200000286102295,34.75,0.0,0.0,0.0,0.0,0.0,snow covered,0.22406142950058,-9.99979400634766,100.0,480.957305908203
arenacam6_1769615128105693171.png,1769615128105693171,1769615128.105693,42.299506576723346,-83.69754440762706,234.5089874267578,0.7243224936042464,0.689413610229425,0.008105221099812966,-0.0003235433199967831,-0.04546000000000001,-0.008960000000000003,-0.005920000000000001,2.0204,0.024200000000000003,-10.293000000000001,6.0625689639370774,13.561603018189407,17.329999923706055,17.020000457763672,16.920000076293945,16.84000015258789,14.072119720648613,13.820397296108322,13.739196064351386,13.674235388702774,13.826487117452773,0.019531916611044572,3.200000047683716,34.900001525878906,0.0,0.0,0.0,0.0,0.0,snow covered,0.22406142950058,-9.99979400634766,100.0,480.957305908203
arenacam6_1769615128126511249.png,1769615128126511249,1769615128.1265113,42.29950766833234,-83.69754436545408,234.51316833496094,0.7242698809603493,0.6894669775609765,0.008271782140866308,6.329950512768444e-05,-0.03658000000000001,-0.01124,-0.008480000000000001,1.8123,0.3806,-10.055200000000001,6.100624354825718,13.646730644283842,17.35999870300293,17.100000381469727,17.1299991607666,17.119998931884766,14.09647900602642,13.885357971756937,13.909717257134744,13.901596979080582,13.948287803499671,0.022097392194235253,2.299999952316284,34.625,0.0,0.0,0.0,0.0,0.0,snow covered,0.22406142950058,-9.99979400634766,100.0,480.957305908203
arenacam6_1769615128147057331.png,1769615128147057331,1769615128.1470573,42.29950876458038,-83.69754432691954,234.5175323486328,0.7242318901659547,0.6895045830967896,0.008451828334258487,0.0004071277181206471,-0.03940000000000001,-0.007480000000000001,-0.0048200000000000005,1.742,-0.5435,-9.4658,6.131313404622099,13.71538020733536,17.40999984741211,17.18000030517578,17.31999969482422,17.369998931884766,14.137080396297227,13.950318647405549,14.06399944259445,14.104599284080582,14.06399944259445,0.025418124032218988,1.5,35.025001525878906,0.0,0.0,0.0,0.0,0.0,snow covered,0.22406142950058,-9.99979400634766,100.0,480.957305908203
arenacam6_1769615128168187577.png,1769615128168187577,1769615128.1681876,42.299510978791055,-83.69754424875545,234.52618408203125,0.7242378852395521,0.6894950129206706,0.008696556935299603,0.0006947220572491835,-0.034030000000000005,0.00834,0.0036800000000000005,0.935,0.8552000000000001,-9.0198,6.155079705708199,13.7685439968869,17.6299991607666,17.219999313354492,17.40999984741211,17.6299991607666,14.315721867134743,13.982798210837517,14.137080396297227,14.315721867134743,14.187830585351056,0.03045250017423474,0.800000011920929,34.97500228881836,0.0,0.0,0.0,0.0,0.0,snow covered,0.22406142950058,-9.99979400634766,100.0,480.957305908203
arenacam6_1769615128188931764.png,1769615128188931764,1769615128.188932,42.29951209427701,-83.69754420452911,234.5300750732422,0.7242402365755076,0.6894902035054818,0.00887905558181333,0.0007080727343443478,0.0022,-0.010180000000000002,-0.0026500000000000004,3.1002,2.0507,-8.1646,6.210755786244166,13.893088048481024,17.760000228881836,17.369998931884766,17.28999900817871,17.209999084472656,14.421283933054161,14.104599284080582,14.03963860843197,13.974677932783356,14.135049939587518,0.017415990617935213,0.10000000149011612,34.85000228881836,0.0,0.0,0.0,0.0,0.0,snow covered,0.22406142950058,-9.99979400634766,100.0,480.957305908203
arenacam6_1769615128209448363.png,1769615128209448363,1769615128.2094483,42.29951322125855,-83.69754416444026,234.53427124023438,0.7241613846723884,0.689576192485689,0.008632639932337174,0.0006642545504574983,0.0082,-0.018800000000000004,-0.015750000000000004,1.7578,-2.5696000000000003,-11.4292,6.247170513441826,13.974545608338559,17.719999313354492,17.59000015258789,17.350000381469727,17.600000381469727,14.388802820837519,14.283242303702774,14.088360276756935,14.291362581756935,14.26294199576354,0.02063726403045953,-0.10000000149011612,34.375,0.0,0.0,0.0,0.0,0.0,snow covered,0.22406142950058,-9.99979400634766,100.0,480.957305908203
arenacam6_1769615128230143694.png,1769615128230143694,1769615128.2301438,42.29951435120908,-83.6975441028698,234.53794860839844,0.7242059610021574,0.6895271538206155,0.008786421808433663,0.0009104860170154612,-0.019040000000000005,-0.009520000000000002,0.014870000000000001,2.0605,2.9947000000000004,-11.0146,6.278100044345503,14.043733113198229,17.59000015258789,17.6299991607666,17.5,17.520000457763672,14.283242303702774,14.315721867134743,14.210161350000002,14.226401906108324,14.25888185673646,0.015319911152116342,-0.30000001192092896,34.625,0.0,0.0,0.0,0.0,0.0,snow covered,0.22406142950058,-9.99979400634766,100.0,480.957305908203
arenacam6_1769615128250677179.png,1769615128250677179,1769615128.2506773,42.299515486260006,-83.69754405342383,234.5424041748047,0.7241262971345294,0.6896170795581353,0.008302387390673587,0.000678043921046741,0.06275,-0.011170000000000003,-0.021820000000000003,1.8253000000000001,0.8232,-9.6983,6.31549994958572,14.127394457226282,18.010000228881836,17.81999969482422,17.81999969482422,17.729999542236328,14.624286238054161,14.470004052594453,14.470004052594453,14.396923098891678,14.490304360533687,0.025688381846078676,-0.30000001192092896,34.5,0.0,0.0,0.0,0.0,0.0,snow covered,0.22406142950058,-9.99979400634766,100.0,480.957305908203
arenacam6_1769615128271236012.png,1769615128271236012,1769615128.2712362,42.299516633866624,-83.69754399931115,234.5465087890625,0.7240068119389201,0.6897459115539852,0.008029333790533834,0.0004935174598262378,0.01922,-0.00255,-0.008430000000000002,2.2408,-0.7303000000000001,-8.5225,6.353929175782781,14.213358330475536,18.270000457763672,17.869998931884766,17.85999870300293,17.78999900817871,14.835408821108322,14.510603894080583,14.50248361602642,14.445643218431968,14.573534887411824,0.025340707562688868,-0.30000001192092896,34.0,0.0,0.0,0.0,0.0,0.0,snow covered,0.22406142950058,-9.99979400634766,100.0,480.957305908203
arenacam6_1769615128292041619.png,1769615128292041619,1769615128.2920418,42.29951777903754,-83.69754393964084,234.55084228515625,0.7239513268386073,0.6898082843661454,0.0076583725088454485,0.0005970920957454162,0.022290000000000004,-0.029250000000000005,-0.012400000000000001,1.4015,1.1531,-8.983500000000001,6.388882225428957,14.291546205351052,18.81999969482422,17.81999969482422,18.049999237060547,17.93000030517578,15.282013272594453,14.470004052594453,14.65676580148613,14.559325562405549,14.742027172270145,0.031520799810339874,-0.30000001192092896,33.22500228881836,0.0,0.0,0.0,0.0,0.0,snow covered,0.22406142950058,-9.99979400634766,100.0,480.957305908203
arenacam6_1769615128312754845.png,1769615128312754845,1769615128.3127549,42.299518933619325,-83.69754388648632,234.55479431152344,0.7237483790048618,0.6900222645795363,0.007545748564041216,0.0007873696535811148,-0.03209,-0.019550000000000005,-0.017790000000000004,2.38,-1.3239,-10.3612,6.433132552277279,14.390531531491137,19.84000015258789,18.079999923706055,17.969999313354492,17.90999984741211,16.110263048702777,14.681126635648614,14.591805125837517,14.543085006297225,14.981569954121534,0.04107134064763448,-0.30000001192092896,33.07500076293945,0.0,0.0,0.0,0.0,0.0,snow covered,0.22406142950058,-9.99979400634766,100.0,480.957305908203
arenacam6_1769615128333512675.png,1769615128333512675,1769615128.3335128,42.29952009770521,-83.69754383625252,234.55877685546875,0.7236208910382541,0.6901529197397511,0.007730554964985163,0.0014113637493867704,-0.06293000000000001,-0.024460000000000003,-0.021410000000000002,2.1046,-0.4675,-10.405700000000001,6.473584281497849,14.481019622653799,20.43000030517578,17.899999618530273,17.8799991607666,18.10999870300293,16.589348612405548,14.534964728243066,14.518724172134743,14.70548592102642,15.087130858452444,0.041855563461184554,-0.800000011920929,33.07500076293945,0.0,0.0,0.0,0.0,0.0,snow covered,0.22406142950058,-9.99979400634766,100.0,480.957305908203
arenacam6_1769615128353930651.png,1769615128353930651,1769615128.3539307,42.29952126030871,-83.69754378562978,234.5626678466797,0.7235477417403177,0.6902260863853675,0.007872323546172448,0.0021544413684716993,-0.05932000000000001,-0.03635000000000001,-0.010980000000000002,1.122,-0.0371,-10.254900000000001,6.4997832847578,14.539625221006116,20.119998931884766,18.59000015258789,17.940000534057617,18.079999923706055,16.337624639080584,15.095251523702775,14.56744584045971,14.681126635648614,15.17036215972292,0.043380549988698995,-1.2000000476837158,33.17499923706055,0.0,0.0,0.0,0.0,0.0,snow covered,0.22406142950058,-9.99979400634766,100.0,480.957305908203
arenacam6_1769615128374825677.png,1769615128374825677,1769615128.3748257,42.299522433879844,-83.69754373851784,234.56704711914062,0.7234199990073984,0.6903562578591332,0.008028270527799948,0.0026998413290878426,-0.04859000000000001,-0.025550000000000003,-0.02009,2.5854,-0.2141,-10.4295,6.539398595084787,14.628242293288965,19.719999313354492,19.779998779296875,17.959999084472656,18.19999885559082,16.01282126083752,16.061541380377808,14.583684847783356,14.778566874729195,15.359153590931971,0.04996576369112563,-1.399999976158142,32.85000228881836,0.0,0.0,0.0,0.0,0.0,snow covered,0.22406142950058,-9.99979400634766,100.0,480.957305908203
arenacam6_1769615128395420922.png,1769615128395420922,1769615128.395421,42.299523618820274,-83.69754368837464,234.572021484375,0.7233679653390729,0.6904126665229753,0.007632220339307895,0.003299369415032227,-0.003940000000000001,-0.07593000000000001,-0.007660000000000001,2.5749,0.4047,-11.7443,6.588899078930181,14.73897190562208,19.309999465942383,19.719999313354492,18.209999084472656,18.18000030517578,15.679897604540292,16.01282126083752,14.786687152783356,14.762327867405547,15.31043347139168,0.03877214567127435,-1.600000023841858,33.29999923706055,0.0,0.0,0.0,0.0,0.0,snow covered,0.22406142950058,-9.99979400634766,100.0,480.957305908203
arenacam6_1769615128416069897.png,1769615128416069897,1769615128.41607,42.299524800216446,-83.69754364593707,234.5767059326172,0.7233198748462513,0.6904644339729554,0.007246914007490518,0.0038348804645425474,-0.020980000000000002,-0.054000000000000006,-0.007440000000000001,0.372,-1.2301,-9.889700000000001,6.6061519324027715,14.777565503669058,18.84000015258789,18.85999870300293,18.329999923706055,18.28999900817871,15.298253828702775,15.314492836026421,14.884128940648614,14.85164782843197,15.087130858452445,0.020948332437201986,-1.7000000476837158,33.125,0.0,0.0,0.0,0.0,0.0,snow covered,0.22406142950058,-9.99979400634766,100.0,480.957305908203
arenacam6_1769615128437130779.png,1769615128437130779,1769615128.4371307,42.29952599109822,-83.69754360012985,234.58175659179688,0.7233397021022592,0.6904428147269505,0.007093531753067031,0.00425167752881351,-0.011280000000000002,-0.04279000000000001,0.0037700000000000003,1.0316,0.8893000000000001,-8.418000000000001,6.623910717395071,14.817290840169731,18.649999618530273,18.799999237060547,18.600000381469727,18.479999542236328,15.143971643243065,15.26577271648613,15.103371801756936,15.005930013891678,15.129761543844452,0.02108824798306666,-1.7000000476837158,33.025001525878906,0.0,0.0,0.0,0.0,0.0,snow covered,0.22406142950058,-9.99979400634766,100.0,480.957305908203
arenacam6_1769615128457825783.png,1769615128457825783,1769615128.457826,42.299527190021266,-83.69754355818992,234.58641052246094,0.7233368312674979,0.6904451584248769,0.006965791820571652,0.004559548645918566,-0.02101,-0.038560000000000004,-0.005550000000000001,1.9871,-0.9688,-9.6019,6.663986517851245,14.906938001242166,19.0,19.309999465942383,18.649999618530273,18.56999969482422,15.428175180000002,15.679897604540292,15.143971643243065,15.079010967594453,15.332763848844454,0.02856561472026014,-1.5,33.20000076293945,0.0,0.0,0.0,0.0,0.0,snow covered,0.22406142950058,-9.99979400634766,100.0,480.957305908203
arenacam6_1769615128478383765.png,1769615128478383765,1769615128.4783838,42.29952838767691,-83.69754351418155,234.59124755859375,0.723349711902038,0.690428258143626,0.006988266197061787,0.005017846505830933,-0.03352000000000001,-0.037910000000000006,0.0041400000000000005,2.726,0.9157000000000001,-11.011800000000001,6.705537593285379,14.999885263923796,19.100000381469727,19.44999885559082,18.75,18.719999313354492,15.509376411756936,15.793578399729196,15.225172875,15.200812040837517,15.432234931830912,0.028823531667069496,-1.5,33.42499923706055,0.0,0.0,0.0,0.0,0.0,snow covered,0.22406142950058,-9.99979400634766,100.0,480.957305908203
arenacam6_1769615128499712933.png,1769615128499712933,1769615128.499713,42.29952959649973,-83.69754346883765,234.59646606445312,0.723374870498306,0.6904033815429889,0.006414396651231925,0.0055518466446603095,0.013070000000000002,-0.07857000000000001,-0.0016300000000000002,1.6451,1.4152,-10.715200000000001,6.746345913928055,15.091171028702224,19.049999237060547,19.28999900817871,18.84000015258789,18.779998779296875,15.46877502148613,15.663657048431968,15.298253828702775,15.249532160377807,15.420054514749669,0.021793105745202584,-1.5,32.875,0.0,0.0,0.0,0.0,0.0,snow covered,0.22406142950058,-9.99979400634766,100.0,480.957305908203
arenacam6_1769615128521121897.png,1769615128521121897,1769615128.5211217,42.29953081441898,-83.69754341608758,234.60150146484375,0.7233816420819069,0.6904010259000519,0.0057777340202950075,0.005660488020510517,0.03994,-0.048400000000000006,0.00131,1.2647000000000002,0.6559,-8.102500000000001,6.77050928074112,15.145223030461041,19.309999465942383,18.850000381469727,18.84000015258789,18.84000015258789,15.679897604540292,15.306374106756934,15.298253828702775,15.298253828702775,15.395694842175695,0.016538007476739624,-1.5,33.125,0.0,0.0,0.0,0.0,0.0,snow covered,0.22406142950058,-9.99979400634766,100.0,480.957305908203
arenacam6_1769615128540271879.png,1769615128540271879,1769615128.5402718,42.299532034296824,-83.69754336574367,234.60650634765625,0.7233757931209821,0.6904102290213311,0.00521219603813497,0.005831860917690301,0.017580000000000002,-0.05282000000000001,-0.003980000000000001,0.7588,-0.6927,-7.8394,6.791765980877102,15.192772993263226,19.439998626708984,19.510000228881836,18.93000030517578,18.85999870300293,15.785458121675035,15.842300068054161,15.37133478240555,15.314492836026421,15.578396452040291,0.02538203255903699,-1.8000000715255737,32.92499923706055,0.0,0.0,0.0,0.0,0.0,snow covered,0.22406142950058,-9.99979400634766,100.0,480.957305908203
arenacam6_1769615128561551499.png,1769615128561551499,1769615128.5615516,42.29953325957435,-83.6975433167461,234.6110382080078,0.723349866007792,0.6904356421979045,0.00505497375693513,0.006167865886457937,-0.021800000000000003,-0.03739000000000001,-0.0006600000000000001,1.8057,-0.051500000000000004,-10.0359,6.819976867333104,15.255879053612114,18.8799991607666,19.6299991607666,19.0,19.059999465942383,15.330733392134745,15.939740307134743,15.428175180000002,15.476895299540292,15.543886044702447,0.01887842647927532,-2.1000001430511475,33.29999923706055,0.0,0.0,0.0,0.0,0.0,snow covered,0.22406142950058,-9.99979400634766,100.0,480.957305908203
arenacam6_1769615128581853070.png,1769615128581853070,1769615128.5818532,42.29953448918401,-83.69754325902188,234.61532592773438,0.7233505170277088,0.6904351729034951,0.00471551502002504,0.006408233107748695,0.022680000000000002,-0.043500000000000004,-0.0019300000000000003,1.3851,2.7066000000000003,-10.3978,6.851561911978232,15.326532903380587,19.239999771118164,19.170000076293945,19.100000381469727,19.020000457763672,15.62305720694584,15.566216809351387,15.509376411756936,15.444415736108322,15.535766541040623,0.013651726648098297,-2.5,32.97500228881836,0.0,0.0,0.0,0.0,0.0,snow covered,0.22406142950058,-9.99979400634766,100.0,480.957305908203
arenacam6_1769615128602251044.png,1769615128602251044,1769615128.602251,42.29953571698493,-83.6975432168282,234.61904907226562,0.7232801994353114,0.6905118459481507,0.004388725946682024,0.00631528262696176,0.015600000000000003,-0.007420000000000001,-0.01386,0.19010000000000002,-2.291,-8.8171,6.861891262964764,15.349639041776399,19.35999870300293,19.28999900817871,19.209999084472656,19.170000076293945,15.720497446026421,15.663657048431968,15.598696372783357,15.566216809351387,15.637266919148283,0.01873841310463788,-3.0,33.25,0.0,0.0,0.0,0.0,0.0,snow covered,0.22406142950058,-9.99979400634766,100.0,480.957305908203
arenacam6_1769615128623075457.png,1769615128623075457,1769615128.6230755,42.29953695388435,-83.69754316503727,234.62306213378906,0.7233215278032774,0.690461530207043,0.00492954221779213,0.00667400434551679,-0.04182,0.009960000000000002,0.0071200000000000005,2.3114,1.101,-9.2277,6.900650623842648,15.436341406498576,19.35999870300293,19.420000076293945,19.399999618530273,19.299999237060547,15.720497446026421,15.769219114351388,15.752978558243067,15.671777326486131,15.72861811127675,0.018934324985525944,-3.4000000953674316,32.900001525878906,0.0,0.0,0.0,0.0,0.0,snow covered,0.22406142950058,-9.99979400634766,100.0,480.957305908203
arenacam6_1769615128643712894.png,1769615128643712894,1769615128.6437128,42.29953819551308,-83.69754311553552,234.6265106201172,0.723327379342458,0.6904521261781758,0.005175997345674036,0.006824426795408637,-0.030290000000000004,0.020950000000000003,0.00253,0.5538000000000001,-1.2926,-9.6141,6.921347113763186,15.482638212661422,19.389999389648438,19.510000228881836,19.529998779296875,19.40999984741211,15.744858280188904,15.842300068054161,15.85853907537781,15.761098836297226,15.801699064979523,0.020607654066164167,-3.5,33.25,0.0,0.0,0.0,0.0,0.0,snow covered,0.22406142950058,-9.99979400634766,100.0,480.957305908203
arenacam6_1769615128664464262.png,1769615128664464262,1769615128.6644645,42.29953943300227,-83.69754307843642,234.6298370361328,0.7234276349712147,0.6903395493470417,0.005904872823652306,0.006992570644270483,-0.07054,0.05354000000000001,0.01683,1.2501,-1.2351,-8.9448,6.938775197601628,15.521623790522987,19.600000381469727,19.69999885559082,19.600000381469727,19.5,15.915381021756936,15.996580704729196,15.915381021756936,15.83417979,15.915380634560767,0.025368276499408222,-3.5,33.025001525878906,0.0,0.0,0.0,0.0,0.0,snow covered,0.22406142950058,-9.99979400634766,100.0,480.957305908203
arenacam6_1769615128685247100.png,1769615128685247100,1769615128.685247,42.2995406844668,-83.69754303618326,234.63320922851562,0.7235220212143059,0.6902309003997672,0.0065962380340063255,0.007326567756520817,-0.06376000000000001,0.014910000000000003,0.01648,2.4758,1.1660000000000001,-10.121,6.989026956651198,15.634033960411333,19.65999984741211,19.510000228881836,19.529998779296875,19.549999237060547,15.964101141297226,15.842300068054161,15.85853907537781,15.874779631486131,15.884929979053833,0.016048066626810558,-3.4000000953674316,33.125,0.0,0.0,0.0,0.0,0.0,snow covered,0.22406142950058,-9.99979400634766,100.0,480.957305908203
arenacam6_1769615128705964145.png,1769615128705964145,1769615128.705964,42.29954194224617,-83.69754299377293,234.63650512695312,0.7236434602969594,0.6900992443916776,0.006923456517923687,0.007432429570682557,-0.024030000000000003,0.021320000000000006,0.01599,0.6576000000000001,-0.2977,-9.9236,7.009694517276526,15.680266053476554,19.75,19.559999465942383,19.760000228881836,19.69999885559082,16.037182095000002,15.882899909540292,16.04530237305416,15.996580704729196,15.990491270580913,0.01978443580270609,-3.200000047683716,33.32500076293945,0.0,0.0,0.0,0.0,0.0,snow covered,0.22406142950058,-9.99979400634766,100.0,480.957305908203
arenacam6_1769615128726678317.png,1769615128726678317,1769615128.7266784,42.29954319742393,-83.6975429607614,234.6394805908203,0.723754789131529,0.6899756486174108,0.007529448137164271,0.007477762694072051,-0.05178000000000001,0.03445000000000001,0.019660000000000004,1.6087,-0.732,-8.6318,7.035281563875853,15.737502741496451,19.809999465942383,19.85999870300293,20.1299991607666,19.65999984741211,16.08590221454029,16.12650205602642,16.34574491713474,15.964101141297226,16.130562582249667,0.024975998238704052,-3.0,32.625,0.0,0.0,0.0,0.0,0.0,snow covered,0.22406142950058,-9.99979400634766,100.0,480.957305908203
arenacam6_1769615128747292598.png,1769615128747292598,1769615128.7472928,42.29954446445482,-83.69754292179633,234.64256286621094,0.7238668821695632,0.6898488797954436,0.008112504992108496,0.00771020141374648,-0.05976000000000001,0.01964,0.013160000000000002,1.872,-0.6486000000000001,-9.6389,7.07107467991744,15.817569794494519,19.94999885559082,20.06999969482422,20.34000015258789,19.899999618530273,16.199583009729196,16.297024797594453,16.516267658702777,16.158983168243065,16.292964658567374,0.03005486116067729,-2.9000000953674316,32.95000076293945,0.0,0.0,0.0,0.0,0.0,snow covered,0.22406142950058,-9.99979400634766,100.0,480.957305908203
arenacam6_1769615128767991944.png,1769615128767991944,1769615128.767992,42.299547009380916,-83.69754284987282,234.64768981933594,0.7240357126537175,0.6896610568571759,0.008730699399906327,0.007980497769853377,-0.0546,0.03143,0.03128000000000001,1.0303,1.6268,-9.344000000000001,7.094825881841371,15.870699808126236,20.03999900817871,20.299999237060547,20.189998626708984,19.829999923706055,16.27266396343197,16.48378654648613,16.394465036675037,16.102142770648612,16.313264579310434,0.02788564943794053,-2.9000000953674316,33.125,0.0,0.0,0.0,0.0,0.0,snow covered,0.22406142950058,-9.99979400634766,100.0,480.957305908203
arenacam6_1769615128788747320.png,1769615128788747320,1769615128.7887473,42.29954829100491,-83.69754281685076,234.6501922607422,0.7241719425641451,0.6895119054805595,0.009175820117446097,0.008008378650672613,-0.03796,0.027940000000000003,0.01635,1.5285,-1.6584,-9.295300000000001,7.122519202588781,15.932648105038949,20.1299991607666,20.479999542236328,20.189998626708984,20.869998931884766,16.34574491713474,16.62994845389168,16.394465036675037,16.946631554080582,16.57919749044551,0.040580158498704236,-2.9000000953674316,33.025001525878906,0.0,0.0,0.0,0.0,0.0,snow covered,0.22406142950058,-9.99979400634766,100.0,480.957305908203
arenacam6_1769615128810162121.png,1769615128810162121,1769615128.810162,42.29954957812321,-83.69754277975998,234.65184020996094,0.724396672545583,0.689265429591151,0.009796735234456597,0.008164089303752299,-0.04759000000000001,0.044910000000000005,0.03927,1.2568000000000001,1.201,-8.3664,7.144668352053874,15.982194423443394,20.149999618530273,20.770000457763672,20.189998626708984,20.93000030517578,16.361985473243067,16.86543187110832,16.394465036675037,16.995353222405548,16.65430890085799,0.04205395452008204,-3.0,33.125,0.0,0.0,0.0,0.0,0.0,snow covered,0.22406142950058,-9.99979400634766,100.0,480.957305908203
arenacam6_1769615128831682560.png,1769615128831682560,1769615128.8316824,42.299550864190955,-83.69754274927944,234.6536407470703,0.7245339611392176,0.6891176851378299,0.010120330661207858,0.008058169364145289,-0.01131,0.024890000000000006,0.01454,1.9032,0.18510000000000001,-9.069,7.181458782771039,16.064492409531848,20.279998779296875,20.81999969482422,20.369998931884766,20.119998931884766,16.467545990377808,16.90603171259445,16.540626944080582,16.337624639080584,16.562957321533357,0.031028986120080933,-3.0,33.275001525878906,0.0,0.0,0.0,0.0,0.0,snow covered,0.22406142950058,-9.99979400634766,100.0,480.957305908203
arenacam6_1769615128850736148.png,1769615128850736148,1769615128.8507361,42.29955216289695,-83.69754271182849,234.65591430664062,0.7247134779681899,0.6889230818601421,0.010486766996933072,0.008086399045676549,-0.03313000000000001,0.023760000000000003,0.029830000000000002,1.6367,-0.27140000000000003,-11.273200000000001,7.211522772515583,16.13174375075101,20.44999885559082,20.709999084472656,20.059999465942383,20.0,16.605587619729196,16.81671020278336,16.288904519540292,16.2401844,16.48784668551321,0.02207467092611259,-3.0,33.10000228881836,0.0,0.0,0.0,0.0,0.0,snow covered,0.22406142950058,-9.99979400634766,100.0,480.957305908203
arenacam6_1769615128871512189.png,1769615128871512189,1769615128.8715122,42.29955346433691,-83.69754266723055,234.6597900390625,0.7249269588713523,0.6886915917523502,0.01066616180747366,0.008427855210152978,-0.030890000000000004,-0.022330000000000003,0.029490000000000002,1.2398,1.8698000000000001,-13.8247,7.243840796953877,16.204037232338006,20.479999542236328,20.899999618530273,20.34000015258789,20.25,16.62994845389168,16.970992388243065,16.516267658702777,16.443186705,16.64009880145938,0.02691067435041046,-3.0,33.20000076293945,0.0,0.0,0.0,0.0,0.0,snow covered,0.22406142950058,-9.99979400634766,100.0,480.957305908203
arenacam6_1769615128891914847.png,1769615128891914847,1769615128.8919148,42.29955476780058,-83.69754262434962,234.66249084472656,0.7251173495070569,0.6884903395692213,0.010643462618246972,0.008520473414844687,0.00020000000000000004,-0.010900000000000002,0.025380000000000003,1.8258,1.5775000000000001,-11.568800000000001,7.272919383320112,16.26908428532409,20.479999542236328,21.020000457763672,20.399999618530273,20.78999900817871,16.62994845389168,17.068434176108322,16.564987778243065,16.88167087843197,16.786260321668756,0.031788884197446556,-3.0,33.45000076293945,0.0,0.0,0.0,0.0,0.0,snow covered,0.22406142950058,-9.99979400634766,100.0,480.957305908203
arenacam6_1769615128912760878.png,1769615128912760878,1769615128.9127607,42.29955608100138,-83.6975425703495,234.6654510498047,0.7253485724133248,0.688259581412631,0.010513759736233813,0.007593283075895237,0.07672000000000001,0.04459000000000001,0.024550000000000002,2.1095,1.1894,-4.5482000000000005,7.307459433460862,16.34634830508594,20.549999237060547,20.93000030517578,20.5,21.559999465942383,16.68678885148613,16.995353222405548,16.64618901,17.506918349540292,16.958812358357996,0.037467943411036736,-2.799999952316284,32.95000076293945,0.0,0.0,0.0,0.0,0.0,snow covered,0.22406142950058,-9.99979400634766,100.0,480.957305908203
arenacam6_1769615128933627615.png,1769615128933627615,1769615128.9336276,42.2995573978958,-83.69754251385109,234.6656951904297,0.7254229670998497,0.6881927557478806,0.010108275240736389,0.0070761933160290265,0.049330000000000006,-0.0148,0.00016,1.7812000000000001,-1.7506000000000002,-6.8862000000000005,7.340981497890571,16.421335151891334,20.5,20.75,20.689998626708984,21.229999542236328,16.64618901,16.849191315,16.800469646675033,17.23895536889168,16.88370133514168,0.028156430580925852,-2.6000001430511475,33.42499923706055,0.0,0.0,0.0,0.0,0.0,snow covered,0.22406142950058,-9.99979400634766,100.0,480.957305908203
arenacam6_1769615128954206543.png,1769615128954206543,1769615128.9542065,42.299558711015294,-83.69754244856442,234.66746520996094,0.7255764428719316,0.6880329386362932,0.009944859249864133,0.007113415165858731,0.019790000000000002,0.010310000000000001,0.029790000000000004,-0.11280000000000001,3.7493000000000003,-13.0888,7.34583980534397,16.432202894166142,20.719999313354492,20.78999900817871,20.850000381469727,20.69999885559082,16.824830480837516,16.88167087843197,16.930392546756934,16.808589924729194,16.8613709576889,0.02611750026985883,-2.5,33.17499923706055,0.0,0.0,0.0,0.0,0.0,snow covered,0.22406142950058,-9.99979400634766,100.0,480.957305908203
arenacam6_1769615128975207778.png,1769615128975207778,1769615128.9752076,42.29956003798207,-83.6975423819075,234.6692352294922,0.725722946443408,0.6878945694550138,0.009576768204143646,0.0059625355817774315,0.12444000000000001,0.059920000000000015,0.011790000000000002,3.0056000000000003,1.2371,-12.676,7.38284546371212,16.51498233159619,20.869998931884766,20.760000228881836,20.75,20.939998626708984,16.946631554080582,16.857311593054163,16.849191315,17.003471951675035,16.914151603452446,0.02417013011830908,-2.4000000953674316,33.60000228881836,0.0,0.0,0.0,0.0,0.0,snow covered,0.22406142950058,-9.99979400634766,100.0,480.957305908203
