image_filename,timestamp_ns,timestamp_sec,latitude,longitude,altitude,orientation_x,orientation_y,orientation_z,orientation_w,angular_velocity_x,angular_velocity_y,angular_velocity_z,linear_acceleration_x,linear_acceleration_y,linear_acceleration_z,vehicle_speed_mps,vehicle_speed_mph,wheel_speed_fl_rads,wheel_speed_fr_rads,wheel_speed_rl_rads,wheel_speed_rr_rads,wheel_speed_fl_mph,wheel_speed_fr_mph,wheel_speed_rl_mph,wheel_speed_rr_mph,avg_wheel_speed_mph,wheel_slip,steering_angle_deg,throttle_pedal,brake_pedal,brake_torque_actual,abs_active,esc_active,trac_active,marwis_road_condition,marwis_friction,marwis_surface_temp_c,marwis_ice_percent,marwis_water_film_height
frame_00000.png,1769712458368853602,1769712458.3688536,42.30116630297289,-83.69745222488594,239.29588317871094,0.71485413367939,0.6991739475983516,0.008378549264237986,0.008316157373029041,-0.011050000000000003,-0.012680000000000002,0.01165,1.8397000000000001,0.0979,-9.8724,0.7205998576206376,1.6119386455059093,4.809999942779541,4.769999980926514,4.650000095367432,4.630000114440918,3.90576430173646,3.8732839639121535,3.775842950439234,3.7596027815270805,3.828623499403732,1.3751670140038816,1.3000000715255737,28.575000762939453,0.0,0.0,0.0,0.0,0.0,,,,,
frame_00001.png,1769712458637782017,1769712458.637782,42.30116892574035,-83.69745223089284,239.3077850341797,0.714132143974773,0.6999084902605851,0.00847252670261025,0.008461825714118206,-0.0016700000000000003,0.013300000000000001,0.0031500000000000005,0.7701,-0.17420000000000002,-9.4915,1.1643934669537601,2.6046783219675445,4.809999942779541,4.769999980926514,4.650000095367432,4.630000114440918,3.90576430173646,3.8732839639121535,3.775842950439234,3.7596027815270805,3.828623499403732,0.4699026237188603,1.3000000715255737,28.575000762939453,0.0,0.0,0.0,0.0,0.0,,,,,
frame_00002.png,1769712458845149201,1769712458.8451493,42.30117123380716,-83.69745222743039,239.31410217285156,0.7140869128383178,0.699947758372132,0.009504202017503183,0.007917487409459722,0.00444,0.028020000000000003,-0.003910000000000001,3.1015,0.12560000000000002,-9.443900000000001,1.6282063467800407,3.6421999053661445,5.049999713897705,5.059999942779541,5.119999885559082,5.049999713897705,4.1006463286822985,4.10876660673646,4.15748711347292,4.1006463286822985,4.116886594393494,0.13032966376391952,1.3000000715255737,29.05000114440918,0.0,0.0,0.0,0.0,0.0,,,,,
frame_00003.png,1769712459631004317,1769712459.6310043,42.30118979368996,-83.69745205062827,239.36790466308594,0.7132707967287958,0.7008192017738608,0.007741238630024205,0.006106568872136337,0.021450000000000004,-0.007930000000000001,-0.0038000000000000004,1.7935,0.44070000000000004,-9.831100000000001,3.4084041144496884,7.624395499777086,9.899999618530273,10.010000228881836,10.149999618530273,9.969999313354492,8.038890968243065,8.128212478054161,8.241893273243065,8.095731365837517,8.126182021344452,0.06581328599520264,2.700000047683716,28.80000114440918,0.0,0.0,0.0,0.0,0.0,,,,,
frame_00004.png,1769712460148378678,1769712460.1483786,42.301207312757555,-83.69745200881032,239.4075927734375,0.7125565432506022,0.7015628112981726,0.006118446094109573,0.005946351112303483,-0.04823000000000001,0.010220000000000002,-0.00354,1.8847,-0.0129,-9.6379,4.315614172452408,9.65376996692569,12.519999504089355,12.460000038146973,12.460000038146973,12.5,10.166355031715984,10.117634912175694,10.117634912175694,10.15011525,10.137935026516843,0.050152951774273334,3.200000047683716,28.575000762939453,0.0,0.0,0.0,0.0,0.0,,,,,
frame_00005.png,1769712460707392205,1769712460.7073922,42.30123122858525,-83.6974520407163,239.46047973632812,0.711617763922669,0.7025265069450579,0.0049685905345932735,0.005654928591540907,-0.0006500000000000001,-0.023180000000000003,0.0005700000000000001,0.8028000000000001,-0.1207,-10.474,5.146385364765055,11.512155277857543,14.699999809265137,14.6899995803833,14.809999465942383,14.739999771118164,11.936535379121532,11.928415101067372,12.025856114540291,11.96901571694584,11.964955577918758,0.039332365585107255,-0.20000000298023224,28.725000381469727,0.0,0.0,0.0,0.0,0.0,,,,,
frame_00006.png,1769712460955978726,1769712460.9559789,42.301243642020424,-83.69745211833413,239.49691772460938,0.7117278772508513,0.7024113619127196,0.005428587826972177,0.00567783709878224,0.01969,0.005170000000000001,-0.0009100000000000001,0.7296,0.34590000000000004,-8.8284,5.475387331345295,12.248112936979544,15.729999542236328,15.559999465942383,15.710000038146973,15.559999465942383,12.772904658891678,12.634863029540291,12.756664877175693,12.634863029540291,12.699823898786988,0.03688004545121701,-0.10000000149011612,28.600000381469727,0.0,0.0,0.0,0.0,0.0,,,,,
frame_00007.png,1769712461018729035,1769712461.018729,42.30124661490336,-83.69745211738832,239.50379943847656,0.711698499847872,0.7024430197094913,0.005700278125694717,0.005153271290111577,-0.012750000000000003,0.01997,-0.0017400000000000002,1.3563,0.1207,-9.8542,5.546417465140083,12.407003084470457,15.75,15.75,15.829999923706055,15.819999694824219,12.789145215000001,12.789145215000001,12.854105890648613,12.845985612594452,12.819595483310767,0.03325479940895171,-0.20000000298023224,28.25,0.0,0.0,0.0,0.0,0.0,,,,,
frame_00008.png,1769712461204143302,1769712461.2041433,42.301255788191426,-83.69745218246058,239.52719116210938,0.7118487748366421,0.7022728781541343,0.006520098084893207,0.0064509451744246445,-0.012180000000000002,0.0013200000000000002,0.00444,0.8827,0.5836,-8.854000000000001,5.7757103509597965,12.919917512476008,16.440000534057617,16.420000076293945,16.459999084472656,16.389999389648438,13.34943201045971,13.333191454351388,13.365671017783358,13.308830620188905,13.339281275695841,0.03245870283729581,0.20000000298023224,28.649999618530273,0.0,0.0,0.0,0.0,0.0,,,,,
frame_00009.png,1769712461369144244,1769712461.3691442,42.30126422992547,-83.69745225369716,239.553955078125,0.7119368584251211,0.7021722033645702,0.006849625304520075,0.007293083785440326,-0.0014200000000000003,0.005710000000000001,0.0017500000000000003,1.4561000000000002,1.1586,-9.3469,5.971926803259932,13.358841943284274,16.85999870300293,16.93000030517578,16.979999542236328,16.969999313354492,13.690474396026422,13.747316342405549,13.78791618389168,13.779795905837517,13.751375707040292,0.02938381675766082,0.699999988079071,28.274999618530273,0.0,0.0,0.0,0.0,0.0,,,,,
frame_00010.png,1769712461989958424,1769712461.9899583,42.301300510091046,-83.69745244919656,239.65052795410156,0.7114708013247072,0.7026574541052519,0.006218050942015929,0.006567868389904528,0.023950000000000003,0.016330000000000004,-0.0009500000000000001,1.1616,0.36760000000000004,-9.3541,6.63712267414756,14.846845194707644,18.899999618530273,18.739999771118164,18.869998931884766,18.84000015258789,15.346973948243065,15.21705259694584,15.322613114080582,15.298253828702775,15.296223371993065,0.03026758691102997,0.800000011920929,28.375,0.0,0.0,0.0,0.0,0.0,,,,,
frame_00011.png,1769712462155567897,1769712462.155568,42.30131016703288,-83.69745254894991,239.66964721679688,0.7114010463788843,0.7027127262641253,0.0077127690956034466,0.006624858515231923,-0.05941000000000001,-0.00408,0.011710000000000002,1.6903000000000001,-0.559,-10.8307,6.80056853689442,15.212463782920604,19.28999900817871,19.209999084472656,19.270000457763672,19.189998626708984,15.663657048431968,15.598696372783357,15.647418041108322,15.582455816675035,15.62305681974967,0.026990567911165646,1.2000000476837158,28.524999618530273,0.0,0.0,0.0,0.0,0.0,,,,,
frame_00012.png,1769712462197243163,1769712462.1972432,42.30131139351205,-83.697452565395,239.6728515625,0.7113915993645965,0.7027130737869204,0.008061976793448918,0.00716469208002174,-0.0059700000000000005,0.005350000000000001,0.00027000000000000006,1.3884,-0.169,-10.3422,6.82765877674552,15.273063024053124,19.299999237060547,19.399999618530273,19.329999923706055,19.389999389648438,15.671777326486131,15.752978558243067,15.696138160648614,15.744858280188904,15.71643808139168,0.029029871522188822,1.399999976158142,28.350000381469727,0.0,0.0,0.0,0.0,0.0,,,,,
frame_00013.png,1769712462755688104,1769712462.7556882,42.30134698983248,-83.69745293936407,239.77734375,0.7101867715232064,0.7039604919509231,0.0062994845162324545,0.005889976272347724,0.0004000000000000001,-0.007370000000000001,0.0003800000000000001,-0.49010000000000004,-0.5734,-10.637500000000001,7.317369319636677,16.36851612586807,20.6299991607666,20.78999900817871,20.850000381469727,20.770000457763672,16.75174952713474,16.88167087843197,16.930392546756934,16.86543187110832,16.85731120585799,0.029861905393944066,2.799999952316284,29.350000381469727,0.0,0.0,0.0,0.0,0.0,,,,,
frame_00014.png,1769712462879826482,1769712462.8798265,42.30135493048922,-83.69745303754367,239.80198669433594,0.7099741206202148,0.7041654348029255,0.006862047267476825,0.006379716738120792,-0.04681000000000001,0.012870000000000003,-0.0007600000000000002,0.3447,-0.9415,-8.663,7.42179575392431,16.602111793783447,21.189998626708984,20.989999771118164,20.959999084472656,21.029998779296875,17.206474256675033,17.04407334194584,17.019712507783357,17.07655290537781,17.086703252945508,0.029188543311912486,0.6000000238418579,31.075000762939453,0.0,0.0,0.0,0.0,0.0,,,,,
frame_00015.png,1769712463376657610,1769712463.3766577,42.30138925325594,-83.69745353919811,239.9003143310547,0.710754695327181,0.7033706751823855,0.007602471368185895,0.006297522761930385,-0.016880000000000003,0.023740000000000004,0.0178,1.0497,0.9211,-9.4063,7.874358877850172,17.614468348218164,22.279998779296875,22.260000228881836,22.18000030517578,22.34000015258789,18.091564430377808,18.075325423054164,18.010364747405546,18.140286098702774,18.079385174885072,0.026394031172331,-2.299999952316284,30.774999618530273,0.0,0.0,0.0,0.0,0.0,,,,,
frame_00016.png,1769712463585628827,1769712463.585629,42.30140653889694,-83.69745369260718,239.95570373535156,0.7113095996022696,0.7028135167047284,0.0035323335089315713,0.008907124719748381,-3e-05,-0.0536,-0.008090000000000002,0.5414,-1.4534,-9.295,8.11091071873244,18.143620623161343,23.010000228881836,22.78999900817871,22.969999313354492,22.989999771118164,18.684332338054162,18.50568931843197,18.651851225837518,18.66809178194584,18.627491166067372,0.026668907653874845,-1.0,31.024999618530273,0.0,0.0,0.0,0.0,0.0,,,,,
frame_00017.png,1769712463603899559,1769712463.6038997,42.30140653889694,-83.69745369260718,239.95570373535156,0.711343059901364,0.7027769322299888,0.003524201493515705,0.009122206937100329,-0.029330000000000002,-0.03155,0.009930000000000001,0.3169,-1.0342,-10.4117,8.114704675750707,18.152107477373786,22.969999313354492,23.010000228881836,23.06999969482422,22.989999771118164,18.651851225837518,18.684332338054162,18.733052457594454,18.66809178194584,18.684331950857995,0.029320257945123773,-1.0,31.024999618530273,0.0,0.0,0.0,0.0,0.0,,,,,
frame_00018.png,1769712464141816211,1769712464.1418164,42.30144556570762,-83.69745395357027,240.0515594482422,0.711937897607196,0.7021852092189197,0.006682401898515239,0.005975567729891833,0.04292000000000001,-0.018580000000000003,0.00099,0.1297,-0.1287,-8.2105,8.62623303442232,19.296365724020667,24.369998931884766,24.469999313354492,24.369998931884766,24.329999923706055,19.78866382408058,19.869865055837515,19.78866382408058,19.756184260648617,19.800844241161823,0.026143706247916215,1.100000023841858,34.875,0.0,0.0,0.0,0.0,0.0,,,,,
frame_00019.png,1769712464679651451,1769712464.6796513,42.301490561442115,-83.69745419536837,240.1882781982422,0.7117928481647575,0.7023280003902,0.006970280354418127,0.006142992852543453,-0.024960000000000003,-0.009910000000000002,0.007790000000000001,0.5858,-0.3108,-10.6113,9.275921096568624,20.74967893775822,26.399999618530273,26.469999313354492,26.3799991607666,26.31999969482422,21.437043098243066,21.49388349583752,21.420802542134744,21.372082422594453,21.430952889702446,0.032832987632618854,1.399999976158142,37.45000076293945,0.0,0.0,0.0,0.0,0.0,,,,,
frame_00020.png,1769712464783443101,1769712464.7834432,42.301500674999566,-83.69745424803385,240.21839904785156,0.7118253912331796,0.7023077677994575,0.005958437097923332,0.005736611510632098,0.0040100000000000005,-0.010840000000000002,0.004850000000000001,0.21000000000000002,-0.8572000000000001,-10.6346,9.424377204552583,21.081766343951855,26.799999237060547,26.849998474121094,26.809999465942383,26.829999923706055,21.76184647648613,21.80244631797226,21.76996675454029,21.786207310648614,21.780116714911827,0.03312579978196757,1.3000000715255737,38.775001525878906,0.0,0.0,0.0,0.0,0.0,,,,,
frame_00021.png,1769712464824863469,1769712464.8248634,42.30150237702377,-83.69745425591509,240.22349548339844,0.711826423981623,0.7023082900635264,0.005854003533483265,0.0056514132932007554,0.014500000000000002,-0.013950000000000002,-0.007910000000000002,1.7063000000000001,-0.6148,-9.513200000000001,9.486747436978769,21.22128481167529,26.920000076293945,26.959999084472656,26.94999885559082,26.849998474121094,21.859288264351388,21.891767827783358,21.883647549729197,21.80244631797226,21.85928748995905,0.030064281401696875,1.3000000715255737,39.20000076293945,0.0,0.0,0.0,0.0,0.0,,,,,
frame_00022.png,1769712465010729610,1769712465.0107298,42.30151965418878,-83.69745435322045,240.27113342285156,0.7119685761412768,0.7021653270492391,0.005707505508729207,0.00565901564458164,-0.009780000000000002,-0.01391,-0.0022800000000000003,0.9574,-0.3115,-10.0312,9.736455454979543,21.77986666546194,27.6299991607666,27.670000076293945,27.719999313354492,27.729999542236328,22.435814067134743,22.468295179351387,22.508895020837517,22.517015298891682,22.48250489155383,0.03226090576606319,1.3000000715255737,41.22500228881836,0.0,0.0,0.0,0.0,0.0,,,,,
frame_00023.png,1769712466666240294,1769712466.6662402,42.30168256408763,-83.69745496068197,240.73106384277344,0.7114935473388191,0.7026174375837736,0.008511759346672336,0.005763545025415904,0.013640000000000003,-0.01734,-0.009800000000000001,1.3212000000000002,0.737,-10.2186,12.24959509217157,27.401609245482273,34.52000045776367,34.55999755859375,34.66999816894531,34.689998626708984,28.03055864610832,28.063036660755618,28.152358170566714,28.168598726675032,28.10363805102642,0.025619984551085793,2.799999952316284,35.875,0.0,0.0,0.0,0.0,0.0,,,,,
frame_00024.png,1769712467266468057,1769712467.266468,42.301750262133716,-83.69745541482527,240.92176818847656,0.7099560794802963,0.7042015054747632,0.006465266133006782,0.004561275027183414,0.00281,0.019560000000000004,-0.01352,1.3906,0.9079,-9.899000000000001,12.803663062147887,28.641026050241095,36.13999938964844,36.13999938964844,36.119998931884766,36.130001068115234,29.346012715188905,29.346012715188905,29.32977215908058,29.337893985919422,29.339922893844452,0.024401948532757754,-1.7000000476837158,34.125,0.0,0.0,0.0,0.0,0.0,,,,,
frame_00025.png,1769712467452693575,1769712467.4526935,42.30177342924753,-83.69745568093758,240.99038696289062,0.7098769345008004,0.7042778634745177,0.006343314318627997,0.005214522698250545,0.0018900000000000002,-0.007160000000000001,0.00427,0.1807,0.5278,-9.6041,12.935640308361567,28.936251231386326,36.7599983215332,36.5099983215332,36.59000015258789,36.59000015258789,29.849457564269485,29.646455259269487,29.711417483702775,29.711417483702775,29.72968694773613,0.027420128129423616,-2.700000047683716,34.07500076293945,0.0,0.0,0.0,0.0,0.0,,,,,
frame_00026.png,1769712467659559689,1769712467.6595597,42.30179918351222,-83.69745606043803,241.06491088867188,0.7112629442999724,0.7028302088618119,0.008879833721415268,0.007474632437523265,-0.026770000000000006,-0.027530000000000006,0.026620000000000005,1.7812000000000001,0.12150000000000001,-10.0547,13.106405350158912,29.31824238398448,37.0,36.959999084472656,36.97999954223633,37.07999801635742,30.04434114,30.011860027783356,30.02810058389168,30.10930026686394,30.048400504634746,0.024904566620580423,-4.300000190734863,30.67500114440918,0.0,0.0,0.0,0.0,0.0,,,,,
frame_00027.png,1769712467783471359,1769712467.7834713,42.30181100073958,-83.69745618283716,241.10299682617188,0.7121917996760019,0.7018707594528338,0.007365891503872152,0.010296656822156502,0.03786,-0.047900000000000005,-0.0024700000000000004,1.0379,0.6216,-9.192,13.166506442348904,29.45268492114796,37.22999954223633,37.0099983215332,37.22999954223633,37.290000915527344,30.23110288889168,30.052459869269484,30.23110288889168,30.279824557216646,30.198622551067373,0.025326642780326192,-4.099999904632568,17.92500114440918,0.0,0.0,0.0,0.0,0.0,,,,,
frame_00028.png,1769712467866434366,1769712467.8664343,42.30182048336099,-83.69745623956521,241.13169860839844,0.7122812546952361,0.7017529902262782,0.0072583353222165775,0.012061156105757738,-0.05152000000000001,-0.019340000000000003,0.00572,-0.46280000000000004,-0.0432,-8.1312,13.183628244756797,29.490985365826273,37.34000015258789,37.290000915527344,37.38999938964844,37.40999984741211,30.320424398702773,30.279824557216646,30.361024240188904,30.37726479629723,30.334634498101387,0.028607017426169928,-4.0,15.800000190734863,0.0,0.0,0.0,0.0,0.0,,,,,
frame_00029.png,1769712468052606725,1769712468.0526068,42.30184423886445,-83.69745635931471,241.1707000732422,0.7124887673435003,0.701475516983802,0.013246300682894792,0.010788466057123195,-2e-05,0.024120000000000006,0.010050000000000002,1.5782,-0.9105000000000001,-11.849300000000001,13.251618722468447,29.643075985038568,37.16999816894531,36.959999084472656,37.209999084472656,37.04999923706055,30.182381220566715,30.011860027783356,30.214862332783355,30.08494098148613,30.123511140654887,0.016207331380144376,-7.099999904632568,11.675000190734863,0.0,0.0,0.0,0.0,0.0,,,,,
frame_00030.png,1769712468445658335,1769712468.4456584,42.301889590687054,-83.69745640338046,241.3162384033203,0.7177781310605513,0.6960231780648566,0.01103988367564515,0.014980358345083801,0.029510000000000005,-0.012230000000000001,0.06652000000000001,-1.0423,0.2534,-9.360000000000001,13.23235104747576,29.59997535214043,37.290000915527344,36.84000015258789,37.290000915527344,36.98999786376953,30.279824557216646,29.914419788702777,30.279824557216646,30.036219313161165,30.12757205407431,0.0178242277453697,-13.600000381469727,17.899999618530273,0.0,0.0,0.0,0.0,0.0,,,,,
frame_00031.png,1769712468528483992,1769712468.528484,42.30189910790824,-83.69745626322513,241.3397979736328,0.7199099643551663,0.6938433480505605,0.011516609486007091,0.013357368531220597,0.035390000000000005,0.037040000000000003,0.05862000000000001,-0.30720000000000003,2.7878000000000003,-8.2741,13.197317796996217,29.521608072812718,37.06999969482422,36.86000061035156,37.130001068115234,36.84000015258789,30.101181537594453,29.930660344811095,30.14990320591942,29.914419788702777,30.024041219256933,0.01701916593449121,-13.5,17.975000381469727,0.0,0.0,0.0,0.0,0.0,,,,,
frame_00032.png,1769712469314550540,1769712469.3145506,42.3019935712448,-83.6974518232419,241.60311889648438,0.738539991310108,0.6739557519873116,0.011720866308624126,0.01431596632638524,0.013110000000000002,-0.03975000000000001,0.06103000000000001,0.5001,1.9004,-9.8499,13.041909770268932,29.173969641505387,36.75,36.099998474121094,36.59000015258789,36.31999969482422,29.841338835000002,29.31353160297226,29.711417483702775,29.49217462259445,29.58961563606737,0.014247152501682554,-22.5,6.525000095367432,0.0,0.0,0.0,0.0,0.0,,,,,
frame_00033.png,1769712470018239505,1769712470.0182395,42.302074585935046,-83.69744053896856,241.8419952392578,0.7653908709507322,0.6434524796948237,0.0061505790898637395,0.010387079316234744,-0.029890000000000003,-0.037820000000000006,0.12023000000000002,-0.5091,2.9022,-9.3963,12.80290199959337,28.639323598970396,35.5,34.93000030517578,35.939998626708984,35.369998931884766,28.82632731,28.363482302405547,29.183610251675034,28.72076524408058,28.77354627704029,0.004686656708425836,-42.29999923706055,0.0,0.0,0.0,0.0,0.0,0.0,,,,,
frame_00034.png,1769712470266383184,1769712470.2663832,42.3021016727395,-83.69743469194825,241.91270446777344,0.7742821937978088,0.6327206496150045,0.007517685844626145,0.009754399928287815,-0.01847,0.06056000000000001,0.12635000000000002,-1.2131,2.21,-8.9878,12.575098714606495,28.129741318651856,35.130001068115234,34.290000915527344,35.27000045776367,34.97999954223633,28.525884765919418,27.843796897216645,28.639565561108324,28.404082143891678,28.353332342034015,0.007948563083084725,-57.400001525878906,0.875,0.0,0.0,0.0,0.0,0.0,,,,,
frame_00035.png,1769712470432267357,1769712470.4322672,42.3021194276509,-83.6974303348197,241.95960998535156,0.7809131316233897,0.62446590244578,0.011449176103766882,0.009270054329550212,0.08365000000000002,0.013770000000000003,0.12436000000000003,-0.3921,4.0441,-10.020100000000001,12.466304993190942,27.886376291468547,34.599998474121094,34.0,35.14999771118164,34.38999938964844,28.09551777297226,27.60831348,28.542122224458392,27.924996580188903,28.04273751440489,0.005607082874521067,-69.70000457763672,9.074999809265137,0.0,0.0,0.0,0.0,0.0,,,,,
frame_00036.png,1769712470680525628,1769712470.6805255,42.3021478245797,-83.69742220876225,242.0771484375,0.791590652864534,0.6109311940025034,0.006467108568090566,0.01027088111824476,0.01897,-0.0033300000000000005,0.16780000000000003,-0.21200000000000002,2.2187,-8.5949,12.282965764728669,27.47625743775215,34.630001068115234,33.71999740600586,34.849998474121094,34.040000915527344,28.119880155919418,27.380948792052845,28.298520077972263,27.640794592216643,27.860035904540297,0.013967639794378938,-87.70000457763672,16.524999618530273,0.0,0.0,0.0,1.0,0.0,,,,,
frame_00037.png,1769712471797953924,1769712471.797954,42.30226207229056,-83.69737009409069,242.47784423828125,0.8489728780060171,0.5284017959886628,0.002578938259071987,0.005472063924313259,-0.03778000000000001,-0.011110000000000002,0.15986000000000003,0.113,1.3809,-9.6675,11.608963531056729,25.96855488116204,31.959999084472656,30.760000228881836,32.540000915527344,31.989999771118164,25.951813927783355,24.97740379305416,26.422780762216647,25.976174761945842,25.83204331125,0.005256802719163457,-159.0,12.824999809265137,0.0,68.0,0.0,1.0,0.0,,,,,
frame_00038.png,1769712472191159359,1769712472.1911592,42.302297506692234,-83.69734695778308,242.5735321044922,0.8672662388945247,0.49774214566142094,0.0031529208277648866,0.009596165711558817,-0.07158,-0.038200000000000005,0.20444000000000004,0.0785,7.410900000000001,-11.6731,11.355816794687374,25.402280820707976,31.219999313354492,30.709999084472656,31.969999313354492,31.309999465942383,25.350927290837518,24.936802402783357,25.959934205837516,25.424008244540293,25.41791803599967,0.0006155831203529656,-164.0,12.100000381469727,0.0,84.0,0.0,1.0,0.0,,,,,
frame_00039.png,1769712472398030012,1769712472.39803,42.302315311838356,-83.69733351588097,242.62905883789062,0.8761361932646954,0.4820224210979872,-0.0024722177561870866,0.00580039221509321,0.023720000000000005,-0.01081,0.17146000000000003,-2.0938,-2.0694,-10.358500000000001,11.231459703808945,25.124101469838383,31.31999969482422,30.549999237060547,31.8799991607666,30.969999313354492,25.432128522594454,24.806881051486133,25.886853252134745,25.147924985837516,25.31844695301321,0.0077354202460987965,-168.0,12.27500057220459,0.0,80.0,0.0,1.0,0.0,,,,,
frame_00040.png,1769712472625374624,1769712472.6253748,42.302337638810975,-83.69731506985914,242.68682861328125,0.8885640081774673,0.4586989744480253,-0.00186669637161016,0.00676532752938172,0.06787000000000001,0.019600000000000003,0.27816,-0.7075,5.355700000000001,-9.0014,11.086940466566887,24.800820607282134,30.94999885559082,29.849998474121094,31.579999923706055,30.189998626708984,25.131684429729198,24.23847397797226,25.643251105648613,24.514557236675035,24.881991687506275,0.0032729191307608427,-174.3000030517578,10.40000057220459,0.0,96.0,0.0,1.0,0.0,,,,,
frame_00041.png,1769712472790634858,1769712472.7906349,42.30235092593803,-83.69730314036818,242.7200469970703,0.8986312081190434,0.438602777315363,-0.004116662338790631,0.008521069002607361,-0.013500000000000002,0.01025,0.28918,0.543,6.584700000000001,-8.816,10.985260145166592,24.57336782912896,30.209999084472656,29.44999885559082,31.309999465942383,29.889999389648438,24.530797792783357,23.913670599729194,25.424008244540293,24.270955090188902,24.534857931810436,0.0015671395791696816,-174.3000030517578,11.02500057220459,0.0,84.0,0.0,1.0,0.0,,,,,
frame_00042.png,1769712473287405771,1769712473.2874057,42.30238766734328,-83.69726392219249,242.80528259277344,0.9254300002474936,0.37877988312089483,-0.0012706476890679275,0.010173506735408056,-0.10535000000000001,-0.007840000000000001,0.29797000000000007,-0.23440000000000003,3.0097,-8.3901,10.685685158513401,23.90323655848497,30.189998626708984,28.969999313354492,30.459999084472656,29.15999984741211,24.514557236675035,23.52390654583752,24.73380009778336,23.678188731297226,24.112613152898284,0.008759340765465971,-161.10000610351562,24.100000381469727,0.0,104.0,0.0,1.0,0.0,,,,,
frame_00043.png,1769712473515373031,1769712473.515373,42.30240290087146,-83.69724424598913,242.84609985351562,0.9379311502785068,0.34676745895581695,-0.0019243680735413808,0.005812362177318402,0.0028200000000000005,0.047,0.30638000000000004,-0.6005,3.7305,-8.8018,10.585028458678375,23.678073560356005,29.619998931884766,28.969999313354492,30.439998626708984,29.619998931884766,24.051712229080582,23.52390654583752,24.717559541675033,24.051712229080582,24.086222636418427,0.017237427488433116,-164.5,28.475000381469727,0.0,88.0,0.0,1.0,0.0,,,,,
frame_00044.png,1769712473597695648,1769712473.5976958,42.302410744037836,-83.69723302576656,242.87289428710938,0.9417127845280091,0.33635088796692836,-0.00028557026936920117,0.006710444842444185,-0.06576000000000001,0.01271,0.2607300000000001,0.2684,2.428,-10.332,10.579605207064626,23.665942071891145,30.420000076293945,28.619998931884766,30.309999465942383,29.6299991607666,24.70132053435139,23.239703009080582,24.611999024540292,24.059832507134743,24.15321376877675,0.020589575323280967,-164.40000915527344,27.375,0.0,76.0,0.0,1.0,0.0,,,,,
frame_00045.png,1769712474197938053,1769712474.1979382,42.30244350322483,-83.69717645949994,243.0003204345703,0.9618641355015496,0.27349026394386444,-0.00030962484103066014,0.00451270387128951,0.0038100000000000005,-0.0102,0.19538000000000003,-0.6608,3.6179,-10.5378,10.530182137998128,23.555385631773536,28.649999618530273,28.649999618530273,29.59000015258789,28.75,23.264063843243065,23.264063843243065,24.027352943702773,23.345265075,23.475186426297224,0.003404707812048395,-213.6999969482422,0.0,0.0,100.0,0.0,1.0,0.0,,,,,
frame_00046.png,1769712474342785394,1769712474.3427854,42.30245269647885,-83.69715724893189,243.04505920410156,0.9656658794994708,0.2597607630601673,-0.002545106827780768,0.0026976983056614997,0.0869,-0.04014000000000001,0.16832000000000003,-1.3249,1.7041000000000002,-9.2071,10.43546482644791,23.34350868887439,28.059999465942383,27.84000015258789,29.439998626708984,28.309999465942383,22.78497827954029,22.606336808702775,23.905550321675033,22.987980584540292,23.0712114986146,0.011664792721994267,-232.90000915527344,0.0,0.0,124.0,0.0,1.0,0.0,,,,,
frame_00047.png,1769712474632189457,1769712474.6321895,42.302465808537505,-83.69712716521954,243.0950469970703,0.9727424590015037,0.23183887176209006,-0.0042063120606080215,0.0022700076294589182,0.017230000000000002,0.014690000000000002,0.22843000000000005,-0.5920000000000001,2.2474000000000003,-10.055200000000001,10.11952480357198,22.63676981410231,26.849998474121094,25.479999542236328,28.599998474121094,27.420000076293945,21.80244631797226,20.68999455389168,23.22346245297226,22.26529287435139,21.9952990497969,0.028337557415359902,-268.70001220703125,0.0,0.0,152.0,0.0,1.0,0.0,,,,,
frame_00048.png,1769712474942595346,1769712474.9425952,42.30247890399017,-83.69709272890445,243.1461944580078,0.9811016727691673,0.19331617600121237,-0.006517967475958945,0.005087227711887638,-0.0027500000000000003,-0.04077000000000001,0.24015000000000003,0.4848,2.6205000000000003,-8.8003,9.824523113584572,21.976868733701874,26.03999900817871,23.51999855041504,27.979999542236328,26.439998626708984,21.144719283431968,19.098455677323646,22.72001760389168,21.469522661675033,21.10817880658058,0.03952746579357529,-304.0,0.0,0.0,144.0,0.0,1.0,0.0,,,,,
frame_00049.png,1769712475107959728,1769712475.1079597,42.302483861339056,-83.69707764557239,243.16500854492188,0.985005315552997,0.17226057169677494,-0.007898344193778625,0.005332910090895691,-0.012440000000000003,0.014400000000000003,0.28626,-2.5418000000000003,2.0547,-11.1211,9.597604527947876,21.469265472747722,25.399999618530273,22.719999313354492,27.06999969482422,25.869998931884766,20.625033878243066,18.448848920837516,21.98108933759445,21.006677654080583,20.515412447688902,0.04442876847694695,-324.1000061035156,0.0,0.0,164.0,0.0,1.0,0.0,,,,,
frame_00050.png,1769712475294563809,1769712475.2945638,42.30249014472169,-83.6970562111021,243.17686462402344,0.9894508656921103,0.14473028402616034,-0.006118191835430132,0.0016422531794011645,-0.0063300000000000006,-0.00855,0.27585000000000004,-0.4307,0.8397,-10.288300000000001,9.403952945105715,21.03607850102478,24.10999870300293,21.809999465942383,26.59000015258789,25.26999855041504,19.57754124102642,17.70992065454029,21.591325283702773,20.519471812323648,19.84956474789828,0.05640375191928935,-344.3000183105469,0.0,0.0,160.0,0.0,1.0,0.0,,,,,
frame_00051.png,1769712475460018257,1769712475.4600182,42.302494420099876,-83.69703912858117,243.19546508789062,0.9923185538974197,0.12343829225713038,-0.006527889831715506,0.004925672534995055,-0.005650000000000001,0.005170000000000001,0.25952000000000003,-2.7114000000000003,3.2536,-10.219100000000001,9.159641167423072,20.48956771305537,23.15999984741211,20.75,26.03999900817871,24.779998779296875,18.80613341129723,16.849191315,21.144719283431968,20.12158748037781,19.23040787252675,0.06145370454674439,-355.6000061035156,0.0,0.0,164.0,0.0,1.0,0.0,,,,,
frame_00052.png,1769712475480607889,1769712475.480608,42.30249536545771,-83.69703488523928,243.20220947265625,0.9927734786346722,0.11975990652160712,-0.006093168055335259,0.004610662923834498,0.049120000000000004,0.031290000000000005,0.24666000000000002,-1.185,5.1545000000000005,-9.405800000000001,9.108194036839315,20.37448356876734,23.09000015258789,21.0,26.01999855041504,24.649999618530273,18.749293013702776,17.05219362,21.12847872732365,20.016026963243064,19.236498081067374,0.05585346415574512,-356.70001220703125,0.0,0.0,168.0,0.0,1.0,0.0,,,,,
frame_00053.png,1769712476039430779,1769712476.0394306,42.3025044129893,-83.69697882838867,243.286376953125,0.9983605933082864,0.05620765683463108,-0.009787060640958621,0.0045867729720360595,0.06801000000000001,0.018680000000000006,0.32015000000000005,-3.5235000000000003,2.8824,-7.807600000000001,8.331404576396276,18.636852153123886,20.559999465942383,18.469999313354492,23.989999771118164,22.079999923706055,16.694909129540292,14.997809735837517,19.48010100194584,17.929163515648614,17.275495845743066,0.07304647245123051,-389.3999938964844,0.0,744.0,496.0,1.0,1.0,0.0,,,,,
frame_00054.png,1769712476577180635,1769712476.5771806,42.30250735046591,-83.69692668189325,243.35281372070312,0.9996384153764597,-0.02567099847035137,-0.0034296014903260168,-0.007230226469034023,0.026690000000000002,0.06570000000000001,0.36468000000000006,-2.4774000000000003,-0.9860000000000001,-10.6142,7.537727943836294,16.86144514668516,18.239999771118164,16.25,21.65999984741211,20.020000457763672,14.811047986945841,13.195149825,17.588119581297228,16.256424956108322,15.462685587337848,0.08295608989495766,-393.3999938964844,0.0,1304.0,1336.0,0.0,1.0,0.0,,,,,
frame_00055.png,1769712476598623875,1769712476.598624,42.30250733576639,-83.6969248559837,243.3553924560547,0.9995356790937613,-0.02945873756569445,-0.002300961997809324,-0.007437376788443393,0.03737000000000001,0.13225,0.38122000000000006,-1.2226000000000001,3.4022,-8.3214,7.490153280059635,16.7550234782966,17.559999465942383,16.09000015258789,21.43000030517578,19.889999389648438,14.258881469540292,13.065228473702776,17.401357832405548,16.150862890188904,15.219082666459379,0.09167046610389906,-393.5,0.0,1304.0,1340.0,0.0,1.0,0.0,,,,,
frame_00056.png,1769712476618740401,1769712476.6187406,42.30250733576639,-83.6969248559837,243.3553924560547,0.999480185323441,-0.03125673907064991,-0.001786965423612408,-0.007692994414661603,0.05498000000000001,0.10386000000000002,0.35888000000000003,0.4657,2.3455,-7.851100000000001,7.493721784952047,16.763006009630633,16.969999313354492,16.459999084472656,21.260000228881836,19.8799991607666,13.779795905837517,13.365671017783358,17.263316203054163,16.142742612134743,15.137881434702443,0.09694708538519453,-393.6000061035156,0.0,1304.0,1376.0,0.0,1.0,0.0,,,,,
frame_00057.png,1769712477404898432,1769712477.4048984,42.30250107438273,-83.696858206626,243.49082946777344,0.9887721737724878,-0.1490576849574895,-0.007446272023738639,-0.007479836982956585,0.10162000000000002,0.026900000000000004,0.37607000000000007,0.185,4.8367,-10.1175,6.265431804305212,14.015395020322503,15.1899995803833,13.199999809265137,17.56999969482422,15.809999465942383,12.33441971106737,10.718521549121533,14.267001747594453,12.837865334540291,12.53945208558091,0.10530869323350903,-421.3000183105469,0.0,1624.0,1532.0,0.0,1.0,0.0,,,,,
frame_00058.png,1769712477570403400,1769712477.5704033,42.30249868490889,-83.69684668573703,243.51040649414062,0.9839195883983766,-0.17783833770412866,-0.009453428458860713,-0.013652908077572188,-0.014300000000000002,-0.02553,0.31387000000000004,-0.6584,2.9708,-8.3328,6.023685020216647,13.474621969123428,14.399999618530273,13.4399995803833,16.719999313354492,15.670000076293945,11.692932458243066,10.91340357606737,13.576793600837517,12.724184539351388,12.226828543624837,0.09260322318190899,-421.1000061035156,0.0,1156.0,1600.0,0.0,1.0,0.0,,,,,
frame_00059.png,1769712478150208842,1769712478.1502087,42.30248686871357,-83.69680818829345,243.53976440429688,0.9611408558135981,-0.27536376912004673,-0.015954976233135944,-0.011335284526913394,-0.07679000000000001,-0.028390000000000006,0.3961200000000001,-2.1830000000000003,1.4023,-10.0106,5.124075880236112,11.46225029953537,13.09999942779541,10.84000015258789,14.799999237060547,12.929999351501465,10.637320317364598,8.802180068702775,12.01773583648613,10.499278688013211,10.48912872764168,0.08489795166426758,-427.3999938964844,0.0,0.0,144.0,0.0,1.0,0.0,,,,,
frame_00060.png,1769712478522170322,1769712478.5221703,42.30247960198019,-83.69679210122966,243.53892517089844,0.9397401677999526,-0.3411378330679917,-0.02175250141508675,-0.0063422831203547,0.024290000000000003,-0.040830000000000005,0.37594000000000005,-1.851,0.9571000000000001,-10.3511,4.5966140023366036,10.282349726386842,11.84999942779541,9.769999504089355,13.219999313354492,10.420000076293945,9.622308792364597,7.933329676715984,10.734761330837516,8.461136134351387,9.187883983567371,0.10644120964012962,-431.3000183105469,11.975000381469727,0.0,120.0,0.0,1.0,0.0,,,,,
frame_00061.png,1769712478563791909,1769712478.563792,42.30247816999116,-83.69678938785073,243.54444885253906,0.9376991484362205,-0.34667613416430365,-0.021993379549227088,-0.007228850453859404,0.08546000000000001,-0.03440000000000001,0.3964500000000001,-1.7099,1.9419000000000002,-9.0886,4.550640358315353,10.179509443129946,11.819999694824219,9.809999465942383,13.09000015258789,10.34000015258789,9.597948732594453,7.965810014540291,10.629200813702774,8.396175458702775,9.147283754885073,0.10140230175251837,-431.8000183105469,13.050000190734863,0.0,120.0,0.0,1.0,0.0,,,,,
frame_00062.png,1769712479515470375,1769712479.5154703,42.30245344637492,-83.69675693215163,243.48178100585938,0.8505671407904485,-0.5251502304862682,-0.025243291120484634,-0.01074945027371223,-0.0032000000000000006,-0.006560000000000001,0.40950000000000003,-1.155,0.769,-9.2248,3.6658986193605267,8.200395257592337,11.130000114440918,9.40999984741211,11.079999923706055,9.279999732971191,9.037662711527082,7.641006636297226,8.997062095648614,7.535445344770146,8.302794197060766,0.012487073641191037,-416.3999938964844,16.575000762939453,0.0,88.0,0.0,1.0,0.0,,,,,
frame_00063.png,1769712479577604072,1769712479.577604,42.3024517759067,-83.6967555405541,243.47557067871094,0.8439608826214067,-0.5357079640302546,-0.02539068810978765,-0.010115277394480877,-0.015170000000000001,0.013100000000000002,0.41904,-1.1024,1.5005000000000002,-8.9547,3.620353498366858,8.09851355463676,11.199999809265137,9.179999351501465,10.979999542236328,9.139999389648438,9.094503109121534,7.45424411301321,8.915860863891679,7.421763775188904,8.22159296530383,0.015197777942422814,-412.8999938964844,17.100000381469727,0.0,92.0,0.0,1.0,0.0,,,,,
frame_00064.png,1769712479722457223,1769712479.7224574,42.30244785006579,-83.69675253782081,243.45404052734375,0.828182113073265,-0.5598285280722541,-0.02523885495374205,-0.008331082917540499,-0.00316,0.007070000000000001,0.40643000000000007,-0.7308,1.5258,-9.8915,3.5476171152795057,7.935806629853338,10.889999389648438,10.219999313354492,10.84000015258789,9.149999618530273,8.842779910188904,8.298733670837517,8.802180068702775,7.4298840532430654,8.343394425743066,0.05136060074302245,-413.8999938964844,18.200000762939453,0.0,72.0,0.0,1.0,0.0,,,,,
frame_00065.png,1769712480032941578,1769712480.0329416,42.30243860469072,-83.69674697297083,243.41476440429688,0.7902489315288808,-0.6121455866890009,-0.02642480158457487,-0.009280990025692454,-0.027400000000000004,-0.008130000000000002,0.46415000000000006,-0.7422000000000001,1.2824,-9.7665,3.444468201947321,7.705068699664041,11.319999694824219,9.539999961853027,10.829999923706055,8.779999732971191,9.191944122594451,7.746567927824307,8.794059790648614,7.129440734770146,8.21550314395938,0.06624657925731336,-422.1000061035156,18.0,0.0,72.0,0.0,1.0,0.0,,,,,
frame_00066.png,1769712480508890434,1769712480.5088904,42.30242433199485,-83.69674140021789,243.36509704589844,0.7064428836331978,-0.7072398192173959,-0.024629211553794016,-0.011987168789826823,0.05688000000000001,0.0032200000000000006,0.5713,0.1302,2.1329000000000002,-9.8977,3.3454650305079823,7.483604545344527,11.09000015258789,9.029999732971191,10.979999542236328,8.989999771118164,9.005182373702773,7.332443039770145,8.915860863891679,7.299962701945839,8.138362244827608,0.08749229004763477,-388.0,17.774999618530273,0.0,0.0,0.0,0.0,0.0,,,,,
frame_00067.png,1769712480757979220,1769712480.7579792,42.30241761836612,-83.69674037798679,243.34222412109375,0.6594122151226739,-0.7513599272192717,-0.022610408914800748,-0.011070669571649835,-0.008000000000000002,-0.007540000000000001,0.48221,0.24930000000000002,2.2428,-10.6708,3.353586160494783,7.501771025857201,10.489999771118164,9.729999542236328,10.579999923706055,9.059999465942383,8.51797653194584,7.900849338891678,8.591057485648614,7.356803099540292,8.091671614006605,0.07863484317451544,-347.6000061035156,17.950000762939453,0.0,0.0,0.0,0.0,0.0,,,,,
frame_00068.png,1769712480967739299,1769712480.9677393,42.30241089223667,-83.69674068970112,243.33143615722656,0.6238949772594738,-0.7810571673273137,-0.023475853735538895,-0.012395281699951454,0.10148000000000001,-0.011530000000000002,0.4142900000000001,-0.2602,0.7179,-8.8109,3.3572666122663106,7.510003975643001,10.59999942779541,8.90999984741211,10.479999542236328,8.84000015258789,8.607297267364597,7.235002026297226,8.509856253891678,7.1781616287027745,7.882579294064069,0.04961053544437944,-301.6000061035156,17.825000762939453,0.0,0.0,0.0,0.0,0.0,,,,,
frame_00069.png,1769712481088026047,1769712481.088026,42.3024072595946,-83.69674129674372,243.31390380859375,0.6026897835829637,-0.7975550145878451,-0.02301556202042752,-0.011887277879578814,-0.03407,0.010780000000000001,0.39856,-0.2069,2.5460000000000003,-10.2367,3.3508347863444237,7.4956163669652955,10.59000015258789,9.399999618530273,10.260000228881836,9.059999465942383,8.599177763702775,7.632886358243065,8.331214783054161,7.356803099540292,7.980020501135073,0.06462499018821782,-276.3999938964844,17.950000762939453,0.0,0.0,0.0,0.0,0.0,,,,,
frame_00070.png,1769712481419429004,1769712481.419429,42.30239708726703,-83.69674496761031,243.2982940673828,0.5547451645777794,-0.8315732690580826,-0.02014716264077173,-0.018379129553719887,0.11348000000000001,-0.009710000000000002,0.35532,-0.8003,0.9371,-10.2683,3.4579557091534325,7.73523944403368,10.899999618530273,9.380000114440918,10.460000038146973,9.369999885559082,8.850900188243065,7.616646576527081,8.493616472175693,7.60852629847292,8.14242238385469,0.05263999165986737,-207.90000915527344,18.024999618530273,0.0,0.0,0.0,0.0,0.0,,,,,
frame_00071.png,1769712481770604752,1769712481.7706048,42.302386517703994,-83.69675048376307,243.26815795898438,0.5048964348391103,-0.8628304885147126,-0.02052305472767311,-0.013488602628279507,0.018830000000000003,-0.0122,0.28980000000000006,-0.0233,1.8054000000000001,-10.791500000000001,3.5504239607985775,7.94208537486877,10.679999351501465,9.609999656677246,10.639999389648438,9.90999984741211,8.67225794301321,7.803408325418759,8.639777605188904,8.047011246297227,8.290613779979525,0.043883739428640114,-161.40000915527344,17.975000381469727,0.0,0.0,0.0,0.0,0.0,,,,,
frame_00072.png,1769712481874343179,1769712481.8743432,42.30238303689392,-83.6967527199761,243.25466918945312,0.4944038494743157,-0.8688708213959485,-0.020913835674326652,-0.013818134067064052,0.007530000000000001,-0.010700000000000001,0.25571000000000005,0.1077,1.1615,-9.3378,3.577198490113177,8.00197839047377,10.829999923706055,9.869999885559082,10.75,9.809999465942383,8.794059790648614,8.014530908472919,8.729099115,7.965810014540291,8.375874957165456,0.04672551567207477,-148.40000915527344,17.80000114440918,0.0,0.0,0.0,0.0,0.0,,,,,
frame_00073.png,1769712482039769596,1769712482.0397696,42.30237903321762,-83.69675564535858,243.23992919921875,0.47616921458607014,-0.8790062484687866,-0.02039409708448641,-0.013963346211540023,0.0037100000000000006,-0.01847,0.22667,0.2406,1.7533,-10.4826,3.6606281627352097,8.1886055623489,10.789999961853027,9.989999771118164,10.90999984741211,10.050000190734863,8.761579452824307,8.11197192194584,8.859020466297226,8.160692815878468,8.47331616423646,0.03476911907891308,-132.40000915527344,18.024999618530273,0.0,0.0,0.0,0.0,0.0,,,,,
frame_00074.png,1769712482205244755,1769712482.2052448,42.30237450989234,-83.6967594475335,243.237060546875,0.4606572979039748,-0.8872237904920522,-0.017798283691132444,-0.017664104007089235,0.10758000000000001,-0.01908,0.21735000000000002,-0.48050000000000004,0.9714,-10.1599,3.7368393512811706,8.359085418454903,11.199999809265137,10.260000228881836,11.539999961853027,10.369999885559082,9.094503109121534,8.331214783054161,9.370586367824306,8.42053551847292,8.804209944618231,0.053250386122457506,-113.80000305175781,17.625,0.0,0.0,0.0,0.0,0.0,,,,,
frame_00075.png,1769712482246741453,1769712482.2467415,42.30237339076347,-83.69676045639713,243.23707580566406,0.4567409145157214,-0.8892571893915697,-0.01617523213456211,-0.0186480558810173,0.09409000000000001,-0.0008100000000000001,0.21590000000000004,-0.5776,0.3638,-9.2398,3.7406257544998645,8.367555375270927,11.239999771118164,10.359999656677246,11.319999694824219,10.309999465942383,9.12698344694584,8.412415240418758,9.191944122594451,8.371814624540292,8.775789358624834,0.04878772413749217,-110.80000305175781,17.625,0.0,0.0,0.0,0.0,0.0,,,,,
frame_00076.png,1769712482267359746,1769712482.2673597,42.302372830093724,-83.6967609552556,243.23684692382812,0.4548007070103159,-0.8902602001370589,-0.015585088932235347,-0.018713576831142744,0.04589000000000001,0.020770000000000004,0.21881,-0.48550000000000004,-0.8837,-8.2871,3.7405266766835887,8.367333744140588,11.279999732971191,10.40999984741211,11.09999942779541,10.369999885559082,9.159463784770146,8.453015856297226,9.013301877364597,8.42053551847292,8.761579259226224,0.04711722122494699,-109.5999984741211,17.899999618530273,0.0,0.0,0.0,0.0,0.0,,,,,
frame_00077.png,1769712482474294722,1769712482.474295,42.30236662378517,-83.69676661680322,243.2152862548828,0.43557419133481057,-0.8998925569163435,-0.0170576726690863,-0.013324625799837283,0.11226000000000001,-0.021490000000000002,0.16598000000000002,-0.17250000000000001,1.3026,-10.341700000000001,3.8608191543705916,8.636420799177753,11.289999961853027,10.550000190734863,11.380000114440918,10.65999984741211,9.167584062824305,8.566697425878468,9.240665016527082,8.656018161297226,8.90774116663177,0.03141583461054241,-97.9000015258789,17.575000762939453,0.0,0.0,0.0,0.0,0.0,,,,,
frame_00078.png,1769712482929297567,1769712482.9292977,42.302353734897316,-83.6967805598018,243.18055725097656,0.40395602201118763,-0.9144808998268776,-0.014512201168873178,-0.018265052695115747,0.061520000000000005,-0.07473,0.14109000000000002,0.4007,0.6837000000000001,-10.010200000000001,4.17919973986415,9.348619066091713,12.09999942779541,11.319999694824219,12.039999961853027,11.210000038146973,9.825311097364597,9.191944122594451,9.776590977824307,9.102623387175694,9.474117396239762,0.01342426397533337,-90.5,17.5,0.0,0.0,0.0,0.0,0.0,,,,,
frame_00079.png,1769712483137266348,1769712483.1372664,42.30234806309263,-83.6967873705531,243.1798858642578,0.3888966534029609,-0.92088121485642,-0.017248415175197613,-0.020968387407843014,0.023710000000000005,-0.010910000000000001,0.16913,-0.12430000000000001,1.3106,-9.502500000000001,4.270850810104003,9.553637011154049,12.619999885559082,11.9399995803833,12.539999961853027,11.880000114440918,10.24755626347292,9.695389746067372,10.182595587824308,9.64666962652708,9.94305280597292,0.04076099964487048,-84.70000457763672,17.399999618530273,0.0,0.0,0.0,0.0,0.0,,,,,
