image_filename,timestamp_ns,timestamp_sec,latitude,longitude,altitude,orientation_x,orientation_y,orientation_z,orientation_w,angular_velocity_x,angular_velocity_y,angular_velocity_z,linear_acceleration_x,linear_acceleration_y,linear_acceleration_z,vehicle_speed_mps,vehicle_speed_mph,wheel_speed_fl_rads,wheel_speed_fr_rads,wheel_speed_rl_rads,wheel_speed_rr_rads,wheel_speed_fl_mph,wheel_speed_fr_mph,wheel_speed_rl_mph,wheel_speed_rr_mph,avg_wheel_speed_mph,wheel_slip,steering_angle_deg,throttle_pedal,brake_pedal,brake_torque_actual,abs_active,esc_active,trac_active,marwis_road_condition,marwis_friction,marwis_surface_temp_c,marwis_ice_percent,marwis_water_film_height
arenacam6_1769615774494487494.png,1769615774494487494,1769615774.4944875,42.30098150362559,-83.69768665944879,238.392578125,-0.010066410630621192,-0.9995516964100084,-0.012283688056321691,-0.025380791725733053,-0.00039000000000000005,0.015600000000000003,-0.00055,1.6721000000000001,0.0799,-10.0618,0.2709810048935844,0.6061682490866547,0.0,0.0,0.0,0.0,0.0,0.0,0.0,0.0,0.0,0.0,0.800000011920929,22.5,0.0,0.0,0.0,0.0,0.0,snow covered,0.250752389431,-8.86382484436035,100.0,456.929077148438
arenacam6_1769615774515066349.png,1769615774515066349,1769615774.5150664,42.30098150362559,-83.69768665944879,238.392578125,-0.010066410630621192,-0.9995516964100084,-0.012283688056321691,-0.025380791725733053,-0.00039000000000000005,0.015600000000000003,-0.00055,1.6721000000000001,0.0799,-10.0618,0.2709810048935844,0.6061682490866547,0.0,0.0,0.0,0.0,0.0,0.0,0.0,0.0,0.0,0.0,0.800000011920929,22.5,0.0,0.0,0.0,0.0,0.0,snow covered,0.250752389431,-8.86382484436035,100.0,456.929077148438
arenacam6_1769615774534086972.png,1769615774534086972,1769615774.534087,42.30098150362559,-83.69768665944879,238.392578125,-0.010066410630621192,-0.9995516964100084,-0.012283688056321691,-0.025380791725733053,-0.00039000000000000005,0.015600000000000003,-0.00055,1.6721000000000001,0.0799,-10.0618,0.2709810048935844,0.6061682490866547,0.0,0.0,0.0,0.0,0.0,0.0,0.0,0.0,0.0,0.0,0.800000011920929,22.5,0.0,0.0,0.0,0.0,0.0,snow covered,0.250752389431,-8.86382484436035,100.0,456.929077148438
arenacam6_1769615774554737493.png,1769615774554737493,1769615774.5547373,42.30098150362559,-83.69768665944879,238.392578125,-0.010066410630621192,-0.9995516964100084,-0.012283688056321691,-0.025380791725733053,-0.00039000000000000005,0.015600000000000003,-0.00055,1.6721000000000001,0.0799,-10.0618,0.2709810048935844,0.6061682490866547,0.0,0.0,0.0,0.0,0.0,0.0,0.0,0.0,0.0,0.0,0.800000011920929,22.5,0.0,0.0,0.0,0.0,0.0,snow covered,0.250752389431,-8.86382484436035,100.0,456.929077148438
arenacam6_1769615774575371247.png,1769615774575371247,1769615774.5753713,42.30098150362559,-83.69768665944879,238.392578125,-0.010066410630621192,-0.9995516964100084,-0.012283688056321691,-0.025380791725733053,-0.00039000000000000005,0.015600000000000003,-0.00055,1.6721000000000001,0.0799,-10.0618,0.2709810048935844,0.6061682490866547,0.0,0.0,0.0,0.0,0.0,0.0,0.0,0.0,0.0,0.0,0.800000011920929,22.5,0.0,0.0,0.0,0.0,0.0,snow covered,0.250752389431,-8.86382484436035,100.0,456.929077148438
arenacam6_1769615774596173460.png,1769615774596173460,1769615774.5961735,42.30098150362559,-83.69768665944879,238.392578125,-0.010066410630621192,-0.9995516964100084,-0.012283688056321691,-0.025380791725733053,-0.00039000000000000005,0.015600000000000003,-0.00055,1.6721000000000001,0.0799,-10.0618,0.2709810048935844,0.6061682490866547,0.0,0.0,0.0,0.0,0.0,0.0,0.0,0.0,0.0,0.0,0.800000011920929,22.5,0.0,0.0,0.0,0.0,0.0,snow covered,0.250752389431,-8.86382484436035,100.0,456.929077148438
arenacam6_1769615774616807132.png,1769615774616807132,1769615774.6168072,42.30098150362559,-83.69768665944879,238.392578125,-0.010066410630621192,-0.9995516964100084,-0.012283688056321691,-0.025380791725733053,-0.00039000000000000005,0.015600000000000003,-0.00055,1.6721000000000001,0.0799,-10.0618,0.2709810048935844,0.6061682490866547,0.0,0.0,0.0,0.0,0.0,0.0,0.0,0.0,0.0,0.0,0.800000011920929,22.5,0.0,0.0,0.0,0.0,0.0,snow covered,0.250752389431,-8.86382484436035,100.0,456.929077148438
arenacam6_1769615774637518442.png,1769615774637518442,1769615774.6375184,42.30098150362559,-83.69768665944879,238.392578125,-0.010066410630621192,-0.9995516964100084,-0.012283688056321691,-0.025380791725733053,-0.00039000000000000005,0.015600000000000003,-0.00055,1.6721000000000001,0.0799,-10.0618,0.2709810048935844,0.6061682490866547,0.0,0.0,0.0,0.0,0.0,0.0,0.0,0.0,0.0,0.0,0.800000011920929,22.5,0.0,0.0,0.0,0.0,0.0,snow covered,0.250752389431,-8.86382484436035,100.0,456.929077148438
arenacam6_1769615774658436495.png,1769615774658436495,1769615774.6584365,42.30098150362559,-83.69768665944879,238.392578125,-0.010066410630621192,-0.9995516964100084,-0.012283688056321691,-0.025380791725733053,-0.00039000000000000005,0.015600000000000003,-0.00055,1.6721000000000001,0.0799,-10.0618,0.2709810048935844,0.6061682490866547,0.0,0.0,0.0,0.0,0.0,0.0,0.0,0.0,0.0,0.0,0.800000011920929,22.5,0.0,0.0,0.0,0.0,0.0,snow covered,0.250752389431,-8.86382484436035,100.0,456.929077148438
arenacam6_1769615774678969613.png,1769615774678969613,1769615774.6789696,42.30098150362559,-83.69768665944879,238.392578125,-0.010066410630621192,-0.9995516964100084,-0.012283688056321691,-0.025380791725733053,-0.00039000000000000005,0.015600000000000003,-0.00055,1.6721000000000001,0.0799,-10.0618,0.2709810048935844,0.6061682490866547,0.0,0.0,0.0,0.0,0.0,0.0,0.0,0.0,0.0,0.0,0.800000011920929,22.5,0.0,0.0,0.0,0.0,0.0,snow covered,0.250752389431,-8.86382484436035,100.0,456.929077148438
arenacam6_1769615774699605794.png,1769615774699605794,1769615774.6996057,42.30098150362559,-83.69768665944879,238.392578125,-0.010066410630621192,-0.9995516964100084,-0.012283688056321691,-0.025380791725733053,-0.00039000000000000005,0.015600000000000003,-0.00055,1.6721000000000001,0.0799,-10.0618,0.2709810048935844,0.6061682490866547,0.0,0.0,0.0,0.0,0.0,0.0,0.0,0.0,0.0,0.0,0.800000011920929,22.5,0.0,0.0,0.0,0.0,0.0,snow covered,0.250752389431,-8.86382484436035,100.0,456.929077148438
arenacam6_1769615774720333406.png,1769615774720333406,1769615774.7203333,42.30098150362559,-83.69768665944879,238.392578125,-0.010066410630621192,-0.9995516964100084,-0.012283688056321691,-0.025380791725733053,-0.00039000000000000005,0.015600000000000003,-0.00055,1.6721000000000001,0.0799,-10.0618,0.2709810048935844,0.6061682490866547,0.0,0.0,0.0,0.0,0.0,0.0,0.0,0.0,0.0,0.0,0.800000011920929,22.5,0.0,0.0,0.0,0.0,0.0,snow covered,0.250752389431,-8.86382484436035,100.0,456.929077148438
arenacam6_1769615774741176313.png,1769615774741176313,1769615774.7411764,42.30098150362559,-83.69768665944879,238.392578125,-0.010066410630621192,-0.9995516964100084,-0.012283688056321691,-0.025380791725733053,-0.00039000000000000005,0.015600000000000003,-0.00055,1.6721000000000001,0.0799,-10.0618,0.2709810048935844,0.6061682490866547,0.0,0.0,0.0,0.0,0.0,0.0,0.0,0.0,0.0,0.0,0.800000011920929,22.5,0.0,0.0,0.0,0.0,0.0,snow covered,0.250752389431,-8.86382484436035,100.0,456.929077148438
arenacam6_1769615774761804989.png,1769615774761804989,1769615774.761805,42.30098150362559,-83.69768665944879,238.392578125,-0.010066410630621192,-0.9995516964100084,-0.012283688056321691,-0.025380791725733053,-0.00039000000000000005,0.015600000000000003,-0.00055,1.6721000000000001,0.0799,-10.0618,0.2709810048935844,0.6061682490866547,0.0,0.0,0.0,0.0,0.0,0.0,0.0,0.0,0.0,0.0,0.800000011920929,22.5,0.0,0.0,0.0,0.0,0.0,snow covered,0.250752389431,-8.86382484436035,100.0,456.929077148438
arenacam6_1769615774782595245.png,1769615774782595245,1769615774.7825954,42.30098150362559,-83.69768665944879,238.392578125,-0.010066410630621192,-0.9995516964100084,-0.012283688056321691,-0.025380791725733053,-0.00039000000000000005,0.015600000000000003,-0.00055,1.6721000000000001,0.0799,-10.0618,0.2709810048935844,0.6061682490866547,0.0,0.0,0.0,0.0,0.0,0.0,0.0,0.0,0.0,0.0,0.800000011920929,22.5,0.0,0.0,0.0,0.0,0.0,snow covered,0.250752389431,-8.86382484436035,100.0,456.929077148438
arenacam6_1769615774803146822.png,1769615774803146822,1769615774.8031468,42.30098150362559,-83.69768665944879,238.392578125,-0.010066410630621192,-0.9995516964100084,-0.012283688056321691,-0.025380791725733053,-0.00039000000000000005,0.015600000000000003,-0.00055,1.6721000000000001,0.0799,-10.0618,0.2709810048935844,0.6061682490866547,0.0,0.0,0.0,0.0,0.0,0.0,0.0,0.0,0.0,0.0,0.800000011920929,22.5,0.0,0.0,0.0,0.0,0.0,snow covered,0.250752389431,-8.86382484436035,100.0,456.929077148438
arenacam6_1769615774823777779.png,1769615774823777779,1769615774.8237777,42.30098150362559,-83.69768665944879,238.392578125,-0.010066410630621192,-0.9995516964100084,-0.012283688056321691,-0.025380791725733053,-0.00039000000000000005,0.015600000000000003,-0.00055,1.6721000000000001,0.0799,-10.0618,0.2709810048935844,0.6061682490866547,0.0,0.0,0.0,0.0,0.0,0.0,0.0,0.0,0.0,0.0,0.800000011920929,22.5,0.0,0.0,0.0,0.0,0.0,snow covered,0.250752389431,-8.86382484436035,100.0,456.929077148438
arenacam6_1769615774844560937.png,1769615774844560937,1769615774.8445609,42.30098150362559,-83.69768665944879,238.392578125,-0.010066410630621192,-0.9995516964100084,-0.012283688056321691,-0.025380791725733053,-0.00039000000000000005,0.015600000000000003,-0.00055,1.6721000000000001,0.0799,-10.0618,0.2709810048935844,0.6061682490866547,0.0,0.0,0.0,0.0,0.0,0.0,0.0,0.0,0.0,0.0,0.800000011920929,22.5,0.0,0.0,0.0,0.0,0.0,snow covered,0.250752389431,-8.86382484436035,100.0,456.929077148438
arenacam6_1769615774865032614.png,1769615774865032614,1769615774.8650327,42.30098150362559,-83.69768665944879,238.392578125,-0.010066410630621192,-0.9995516964100084,-0.012283688056321691,-0.025380791725733053,-0.00039000000000000005,0.015600000000000003,-0.00055,1.6721000000000001,0.0799,-10.0618,0.2709810048935844,0.6061682490866547,0.0,0.0,0.0,0.0,0.0,0.0,0.0,0.0,0.0,0.0,0.800000011920929,22.5,0.0,0.0,0.0,0.0,0.0,snow covered,0.250752389431,-8.86382484436035,100.0,456.929077148438
arenacam6_1769615774885673950.png,1769615774885673950,1769615774.885674,42.30098150362559,-83.69768665944879,238.392578125,-0.010066410630621192,-0.9995516964100084,-0.012283688056321691,-0.025380791725733053,-0.00039000000000000005,0.015600000000000003,-0.00055,1.6721000000000001,0.0799,-10.0618,0.2709810048935844,0.6061682490866547,0.0,0.0,0.0,0.0,0.0,0.0,0.0,0.0,0.0,0.0,0.800000011920929,22.5,0.0,0.0,0.0,0.0,0.0,snow covered,0.250752389431,-8.86382484436035,100.0,456.929077148438
arenacam6_1769615774906349861.png,1769615774906349861,1769615774.90635,42.30098150362559,-83.69768665944879,238.392578125,-0.010066410630621192,-0.9995516964100084,-0.012283688056321691,-0.025380791725733053,-0.00039000000000000005,0.015600000000000003,-0.00055,1.6721000000000001,0.0799,-10.0618,0.2709810048935844,0.6061682490866547,0.0,0.0,0.0,0.0,0.0,0.0,0.0,0.0,0.0,0.0,0.800000011920929,22.5,0.0,0.0,0.0,0.0,0.0,snow covered,0.250752389431,-8.86382484436035,100.0,456.929077148438
arenacam6_1769615774927542353.png,1769615774927542353,1769615774.9275422,42.30098150362559,-83.69768665944879,238.392578125,-0.010066410630621192,-0.9995516964100084,-0.012283688056321691,-0.025380791725733053,-0.00039000000000000005,0.015600000000000003,-0.00055,1.6721000000000001,0.0799,-10.0618,0.2709810048935844,0.6061682490866547,0.0,0.0,0.0,0.0,0.0,0.0,0.0,0.0,0.0,0.0,0.800000011920929,22.5,0.0,0.0,0.0,0.0,0.0,snow covered,0.250752389431,-8.86382484436035,100.0,456.929077148438
arenacam6_1769615774947805552.png,1769615774947805552,1769615774.9478054,42.30098150362559,-83.69768665944879,238.392578125,-0.010066410630621192,-0.9995516964100084,-0.012283688056321691,-0.025380791725733053,-0.00039000000000000005,0.015600000000000003,-0.00055,1.6721000000000001,0.0799,-10.0618,0.2709810048935844,0.6061682490866547,0.0,0.0,0.0,0.0,0.0,0.0,0.0,0.0,0.0,0.0,0.800000011920929,22.5,0.0,0.0,0.0,0.0,0.0,snow covered,0.250752389431,-8.86382484436035,100.0,456.929077148438
arenacam6_1769615774968491426.png,1769615774968491426,1769615774.9684916,42.30098150362559,-83.69768665944879,238.392578125,-0.010066410630621192,-0.9995516964100084,-0.012283688056321691,-0.025380791725733053,-0.00039000000000000005,0.015600000000000003,-0.00055,1.6721000000000001,0.0799,-10.0618,0.2709810048935844,0.6061682490866547,0.0,0.0,0.0,0.0,0.0,0.0,0.0,0.0,0.0,0.0,0.800000011920929,22.5,0.0,0.0,0.0,0.0,0.0,snow covered,0.250752389431,-8.86382484436035,100.0,456.929077148438
arenacam6_1769615774989220367.png,1769615774989220367,1769615774.9892204,42.30098150362559,-83.69768665944879,238.392578125,-0.010066410630621192,-0.9995516964100084,-0.012283688056321691,-0.025380791725733053,-0.00039000000000000005,0.015600000000000003,-0.00055,1.6721000000000001,0.0799,-10.0618,0.2709810048935844,0.6061682490866547,0.0,0.0,0.0,0.0,0.0,0.0,0.0,0.0,0.0,0.0,0.800000011920929,22.5,0.0,0.0,0.0,0.0,0.0,snow covered,0.250752389431,-8.86382484436035,100.0,456.929077148438
arenacam6_1769615775009954854.png,1769615775009954854,1769615775.009955,42.30098150362559,-83.69768665944879,238.392578125,-0.010066410630621192,-0.9995516964100084,-0.012283688056321691,-0.025380791725733053,-0.00039000000000000005,0.015600000000000003,-0.00055,1.6721000000000001,0.0799,-10.0618,0.2709810048935844,0.6061682490866547,0.0,0.0,0.0,0.0,0.0,0.0,0.0,0.0,0.0,0.0,0.800000011920929,22.5,0.0,0.0,0.0,0.0,0.0,snow covered,0.250752389431,-8.86382484436035,100.0,456.929077148438
arenacam6_1769615775030849142.png,1769615775030849142,1769615775.030849,42.30098150362559,-83.69768665944879,238.392578125,-0.010066410630621192,-0.9995516964100084,-0.012283688056321691,-0.025380791725733053,-0.00039000000000000005,0.015600000000000003,-0.00055,1.6721000000000001,0.0799,-10.0618,0.2709810048935844,0.6061682490866547,0.0,0.0,0.0,0.0,0.0,0.0,0.0,0.0,0.0,0.0,0.800000011920929,22.5,0.0,0.0,0.0,0.0,0.0,snow covered,0.250752389431,-8.86382484436035,100.0,456.929077148438
arenacam6_1769615775051328590.png,1769615775051328590,1769615775.0513284,42.30098150362559,-83.69768665944879,238.392578125,-0.010066410630621192,-0.9995516964100084,-0.012283688056321691,-0.025380791725733053,-0.00039000000000000005,0.015600000000000003,-0.00055,1.6721000000000001,0.0799,-10.0618,0.2709810048935844,0.6061682490866547,0.0,0.0,0.0,0.0,0.0,0.0,0.0,0.0,0.0,0.0,0.800000011920929,22.5,0.0,0.0,0.0,0.0,0.0,snow covered,0.250752389431,-8.86382484436035,100.0,456.929077148438
arenacam6_1769615775072314442.png,1769615775072314442,1769615775.0723143,42.30098150362559,-83.69768665944879,238.392578125,-0.010066410630621192,-0.9995516964100084,-0.012283688056321691,-0.025380791725733053,-0.00039000000000000005,0.015600000000000003,-0.00055,1.6721000000000001,0.0799,-10.0618,0.2709810048935844,0.6061682490866547,0.0,0.0,0.0,0.0,0.0,0.0,0.0,0.0,0.0,0.0,0.800000011920929,22.5,0.0,0.0,0.0,0.0,0.0,snow covered,0.250752389431,-8.86382484436035,100.0,456.929077148438
arenacam6_1769615775092779543.png,1769615775092779543,1769615775.0927796,42.30098150362559,-83.69768665944879,238.392578125,-0.010066410630621192,-0.9995516964100084,-0.012283688056321691,-0.025380791725733053,-0.00039000000000000005,0.015600000000000003,-0.00055,1.6721000000000001,0.0799,-10.0618,0.2709810048935844,0.6061682490866547,0.0,0.0,0.0,0.0,0.0,0.0,0.0,0.0,0.0,0.0,0.800000011920929,22.5,0.0,0.0,0.0,0.0,0.0,snow covered,0.250752389431,-8.86382484436035,100.0,456.929077148438
arenacam6_1769615775113419789.png,1769615775113419789,1769615775.1134198,42.30098150362559,-83.69768665944879,238.392578125,-0.010066410630621192,-0.9995516964100084,-0.012283688056321691,-0.025380791725733053,-0.00039000000000000005,0.015600000000000003,-0.00055,1.6721000000000001,0.0799,-10.0618,0.2709810048935844,0.6061682490866547,0.0,0.0,0.0,0.0,0.0,0.0,0.0,0.0,0.0,0.0,0.800000011920929,22.5,0.0,0.0,0.0,0.0,0.0,snow covered,0.250752389431,-8.86382484436035,100.0,456.929077148438
arenacam6_1769615775134154303.png,1769615775134154303,1769615775.1341543,42.30098150362559,-83.69768665944879,238.392578125,-0.010066410630621192,-0.9995516964100084,-0.012283688056321691,-0.025380791725733053,-0.00039000000000000005,0.015600000000000003,-0.00055,1.6721000000000001,0.0799,-10.0618,0.2709810048935844,0.6061682490866547,0.0,0.0,0.0,0.0,0.0,0.0,0.0,0.0,0.0,0.0,0.800000011920929,22.5,0.0,0.0,0.0,0.0,0.0,snow covered,0.250752389431,-8.86382484436035,100.0,456.929077148438
arenacam6_1769615775154972334.png,1769615775154972334,1769615775.1549723,42.30098150362559,-83.69768665944879,238.392578125,-0.010066410630621192,-0.9995516964100084,-0.012283688056321691,-0.025380791725733053,-0.00039000000000000005,0.015600000000000003,-0.00055,1.6721000000000001,0.0799,-10.0618,0.2709810048935844,0.6061682490866547,0.0,0.0,0.0,0.0,0.0,0.0,0.0,0.0,0.0,0.0,0.800000011920929,22.5,0.0,0.0,0.0,0.0,0.0,snow covered,0.250752389431,-8.86382484436035,100.0,456.929077148438
arenacam6_1769615775175250107.png,1769615775175250107,1769615775.1752503,42.30098150362559,-83.69768665944879,238.392578125,-0.010066410630621192,-0.9995516964100084,-0.012283688056321691,-0.025380791725733053,-0.00039000000000000005,0.015600000000000003,-0.00055,1.6721000000000001,0.0799,-10.0618,0.2709810048935844,0.6061682490866547,0.0,0.0,0.0,0.0,0.0,0.0,0.0,0.0,0.0,0.0,0.800000011920929,22.5,0.0,0.0,0.0,0.0,0.0,snow covered,0.250752389431,-8.86382484436035,100.0,456.929077148438
arenacam6_1769615775196277017.png,1769615775196277017,1769615775.196277,42.30098150362559,-83.69768665944879,238.392578125,-0.010066410630621192,-0.9995516964100084,-0.012283688056321691,-0.025380791725733053,-0.00039000000000000005,0.015600000000000003,-0.00055,1.6721000000000001,0.0799,-10.0618,0.2709810048935844,0.6061682490866547,0.0,0.0,0.0,0.0,0.0,0.0,0.0,0.0,0.0,0.0,0.800000011920929,22.5,0.0,0.0,0.0,0.0,0.0,snow covered,0.250752389431,-8.86382484436035,100.0,456.929077148438
arenacam6_1769615775217072662.png,1769615775217072662,1769615775.2170727,42.30098150362559,-83.69768665944879,238.392578125,-0.010066410630621192,-0.9995516964100084,-0.012283688056321691,-0.025380791725733053,-0.00039000000000000005,0.015600000000000003,-0.00055,1.6721000000000001,0.0799,-10.0618,0.2709810048935844,0.6061682490866547,0.0,0.0,0.0,0.0,0.0,0.0,0.0,0.0,0.0,0.0,0.800000011920929,22.5,0.0,0.0,0.0,0.0,0.0,snow covered,0.250752389431,-8.86382484436035,100.0,456.929077148438
arenacam6_1769615775237599603.png,1769615775237599603,1769615775.2375994,42.30098150362559,-83.69768665944879,238.392578125,-0.010066410630621192,-0.9995516964100084,-0.012283688056321691,-0.025380791725733053,-0.00039000000000000005,0.015600000000000003,-0.00055,1.6721000000000001,0.0799,-10.0618,0.2709810048935844,0.6061682490866547,0.0,0.0,0.0,0.0,0.0,0.0,0.0,0.0,0.0,0.0,0.800000011920929,22.5,0.0,0.0,0.0,0.0,0.0,snow covered,0.250752389431,-8.86382484436035,100.0,456.929077148438
arenacam6_1769615775258276883.png,1769615775258276883,1769615775.258277,42.30098150362559,-83.69768665944879,238.392578125,-0.010066410630621192,-0.9995516964100084,-0.012283688056321691,-0.025380791725733053,-0.00039000000000000005,0.015600000000000003,-0.00055,1.6721000000000001,0.0799,-10.0618,0.2709810048935844,0.6061682490866547,0.0,0.0,0.0,0.0,0.0,0.0,0.0,0.0,0.0,0.0,0.800000011920929,22.5,0.0,0.0,0.0,0.0,0.0,snow covered,0.250752389431,-8.86382484436035,100.0,456.929077148438
arenacam6_1769615775279102285.png,1769615775279102285,1769615775.2791023,42.30098150362559,-83.69768665944879,238.392578125,-0.010066410630621192,-0.9995516964100084,-0.012283688056321691,-0.025380791725733053,-0.00039000000000000005,0.015600000000000003,-0.00055,1.6721000000000001,0.0799,-10.0618,0.2709810048935844,0.6061682490866547,0.0,0.0,0.0,0.0,0.0,0.0,0.0,0.0,0.0,0.0,0.800000011920929,22.5,0.0,0.0,0.0,0.0,0.0,snow covered,0.250752389431,-8.86382484436035,100.0,456.929077148438
arenacam6_1769615775299718261.png,1769615775299718261,1769615775.2997181,42.30098150362559,-83.69768665944879,238.392578125,-0.010066410630621192,-0.9995516964100084,-0.012283688056321691,-0.025380791725733053,-0.00039000000000000005,0.015600000000000003,-0.00055,1.6721000000000001,0.0799,-10.0618,0.2709810048935844,0.6061682490866547,0.0,0.0,0.0,0.0,0.0,0.0,0.0,0.0,0.0,0.0,0.800000011920929,22.5,0.0,0.0,0.0,0.0,0.0,snow covered,0.250752389431,-8.86382484436035,100.0,456.929077148438
arenacam6_1769615775320437770.png,1769615775320437770,1769615775.3204377,42.30098150362559,-83.69768665944879,238.392578125,-0.010066410630621192,-0.9995516964100084,-0.012283688056321691,-0.025380791725733053,-0.00039000000000000005,0.015600000000000003,-0.00055,1.6721000000000001,0.0799,-10.0618,0.2709810048935844,0.6061682490866547,0.0,0.0,0.0,0.0,0.0,0.0,0.0,0.0,0.0,0.0,0.800000011920929,22.5,0.0,0.0,0.0,0.0,0.0,snow covered,0.250752389431,-8.86382484436035,100.0,456.929077148438
arenacam6_1769615775341151526.png,1769615775341151526,1769615775.3411515,42.30098150362559,-83.69768665944879,238.392578125,-0.010066410630621192,-0.9995516964100084,-0.012283688056321691,-0.025380791725733053,-0.00039000000000000005,0.015600000000000003,-0.00055,1.6721000000000001,0.0799,-10.0618,0.2709810048935844,0.6061682490866547,0.0,0.0,0.0,0.0,0.0,0.0,0.0,0.0,0.0,0.0,0.800000011920929,22.5,0.0,0.0,0.0,0.0,0.0,snow covered,0.250752389431,-8.86382484436035,100.0,456.929077148438
arenacam6_1769615775361805966.png,1769615775361805966,1769615775.3618062,42.30098150362559,-83.69768665944879,238.392578125,-0.010066410630621192,-0.9995516964100084,-0.012283688056321691,-0.025380791725733053,-0.00039000000000000005,0.015600000000000003,-0.00055,1.6721000000000001,0.0799,-10.0618,0.2709810048935844,0.6061682490866547,0.0,0.0,0.0,0.0,0.0,0.0,0.0,0.0,0.0,0.0,0.800000011920929,22.5,0.0,0.0,0.0,0.0,0.0,snow covered,0.250752389431,-8.86382484436035,100.0,456.929077148438
arenacam6_1769615775382604252.png,1769615775382604252,1769615775.3826044,42.30098150362559,-83.69768665944879,238.392578125,-0.010066410630621192,-0.9995516964100084,-0.012283688056321691,-0.025380791725733053,-0.00039000000000000005,0.015600000000000003,-0.00055,1.6721000000000001,0.0799,-10.0618,0.2709810048935844,0.6061682490866547,0.0,0.0,0.0,0.0,0.0,0.0,0.0,0.0,0.0,0.0,0.800000011920929,22.5,0.0,0.0,0.0,0.0,0.0,snow covered,0.250752389431,-8.86382484436035,100.0,456.929077148438
arenacam6_1769615775403178748.png,1769615775403178748,1769615775.4031787,42.30098150362559,-83.69768665944879,238.392578125,-0.010066410630621192,-0.9995516964100084,-0.012283688056321691,-0.025380791725733053,-0.00039000000000000005,0.015600000000000003,-0.00055,1.6721000000000001,0.0799,-10.0618,0.2709810048935844,0.6061682490866547,0.0,0.0,0.0,0.0,0.0,0.0,0.0,0.0,0.0,0.0,0.800000011920929,22.5,0.0,0.0,0.0,0.0,0.0,snow covered,0.250752389431,-8.86382484436035,100.0,456.929077148438
arenacam6_1769615775506685634.png,1769615775506685634,1769615775.5066857,42.300981503287154,-83.69768699899056,238.3909912109375,-0.010066410630621192,-0.9995516964100084,-0.012283688056321691,-0.025380791725733053,-0.00039000000000000005,0.015600000000000003,-0.00055,1.6721000000000001,0.0799,-10.0618,0.2709810048935844,0.6061682490866547,0.0,0.0,0.0,0.0,0.0,0.0,0.0,0.0,0.0,0.0,0.699999988079071,22.024999618530273,0.0,0.0,0.0,0.0,0.0,snow covered,0.250752389431,-8.86382484436035,100.0,456.929077148438
arenacam6_1769615775569016159.png,1769615775569016159,1769615775.569016,42.30098150411693,-83.69768736027815,238.38992309570312,-0.009942225584232578,-0.9995765359544174,-0.012181684058937206,-0.02448484211278038,0.008130000000000002,0.011230000000000002,-0.0029000000000000007,1.4285,0.5666,-9.4951,0.5600506197407045,1.2527996333227716,0.949999988079071,1.0099999904632568,1.1699999570846558,0.7799999713897705,0.7714087493200958,0.8201293044560766,0.9500507525523448,0.6333671683682298,0.7937389936741868,0.36642782088866743,0.30000001192092896,21.225000381469727,0.0,0.0,0.0,0.0,0.0,snow covered,0.250752389431,-8.86382484436035,100.0,456.929077148438
arenacam6_1769615775589703386.png,1769615775589703386,1769615775.5897033,42.300981502225234,-83.69768750019726,238.38954162597656,-0.009913912409443337,-0.9995791199825241,-0.012184910194715242,-0.02438903850599985,-0.0014600000000000004,-0.008110000000000001,-0.0034900000000000005,1.4609,0.36910000000000004,-9.593200000000001,0.6074256490845416,1.3587747314631744,1.309999942779541,1.350000023841858,1.1699999570846558,1.2300000190734863,1.0637320317364598,1.0962124663598085,0.9500507525523448,0.9987713560878467,1.027191651684115,0.2440309435413179,0.20000000298023224,21.399999618530273,0.0,0.0,0.0,0.0,0.0,snow covered,0.250752389431,-8.86382484436035,100.0,456.929077148438
arenacam6_1769615775610178635.png,1769615775610178635,1769615775.6101785,42.30098150163191,-83.69768765353149,238.3892822265625,-0.009913098442007218,-0.9995828644810458,-0.012202173223447552,-0.024226730769362388,-0.005800000000000001,0.0016300000000000002,-0.0034800000000000005,2.3524000000000003,-0.2364,-9.9283,0.6594349631878748,1.4751164465534847,1.309999942779541,1.350000023841858,1.5699999332427979,1.5699999332427979,1.0637320317364598,1.0962124663598085,1.2748544211925366,1.2748544211925366,1.1774133351203353,0.2018166851360879,0.0,21.350000381469727,0.0,0.0,0.0,0.0,0.0,snow covered,0.250752389431,-8.86382484436035,100.0,456.929077148438
arenacam6_1769615775630956722.png,1769615775630956722,1769615775.630957,42.30098150113466,-83.69768782584033,238.38877868652344,-0.009931134792048435,-0.9995868014161213,-0.012182496110131957,-0.024066279001044646,0.00461,0.022210000000000004,0.00017,2.2692,0.1713,-9.574,0.7095727832818767,1.5872717418345612,1.6299999952316284,1.649999976158142,1.5699999332427979,1.5699999332427979,1.3235750247280382,1.3398151936401916,1.2748544211925366,1.2748544211925366,1.3032747651883256,0.17892145948367555,-0.4000000059604645,21.5,0.0,0.0,0.0,0.0,0.0,snow covered,0.250752389431,-8.86382484436035,100.0,456.929077148438
arenacam6_1769615775651394347.png,1769615775651394347,1769615775.6513944,42.30098149961118,-83.69768799939744,238.3884735107422,-0.009937057501146318,-0.9995887890459763,-0.01216369087981866,-0.02399067164541133,0.004980000000000001,0.019270000000000002,0.0002800000000000001,1.6862000000000001,0.5428000000000001,-9.9013,0.7572167405467771,1.6938484155987077,1.909999966621399,1.9199999570846558,1.8499999046325684,1.8499999046325684,1.5509375830962684,1.5590576675523449,1.5022169795607663,1.5022169795607663,1.5286073024425366,0.09755366043056748,-0.800000011920929,21.30000114440918,0.0,0.0,0.0,0.0,0.0,snow covered,0.250752389431,-8.86382484436035,100.0,456.929077148438
arenacam6_1769615775672286290.png,1769615775672286290,1769615775.6722863,42.30098149854933,-83.69768818849661,238.38816833496094,-0.009957520941659637,-0.9995903495009503,-0.012161993922942498,-0.023917919330129062,-0.0005000000000000001,0.0083,0.00459,2.1667,0.5898,-9.8682,0.8344450951647893,1.8666036111779238,1.909999966621399,1.9199999570846558,2.0299999713897705,1.8499999046325684,1.5509375830962684,1.5590576675523449,1.64837869336823,1.5022169795607663,1.5651477308944026,0.16149967699531392,-1.600000023841858,21.475000381469727,0.0,0.0,0.0,0.0,0.0,snow covered,0.250752389431,-8.86382484436035,100.0,456.929077148438
arenacam6_1769615775693080984.png,1769615775693080984,1769615775.6930811,42.30098149808518,-83.69768839891822,238.3878936767578,-0.009960477089457465,-0.999589645351666,-0.012085764946707492,-0.023984663590177906,0.013680000000000001,-0.01907,-0.004760000000000001,1.4092,0.8069000000000001,-9.214400000000001,0.8847477418017143,1.979127613545927,2.200000047683716,2.2100000381469727,2.0299999713897705,2.0899999141693115,1.786420322719617,1.7945404071756936,1.64837869336823,1.6970992001046896,1.7316096558420577,0.12506417272426454,-2.1000001430511475,21.350000381469727,0.0,0.0,0.0,0.0,0.0,snow covered,0.250752389431,-8.86382484436035,100.0,456.929077148438
arenacam6_1769615775713460419.png,1769615775713460419,1769615775.7134604,42.30098149668125,-83.69768860766753,238.38748168945312,-0.009950666605192837,-0.9995906645160362,-0.012046234844048744,-0.02396614012692704,-0.003650000000000001,-0.01805,0.0021900000000000005,1.9461000000000002,-0.36960000000000004,-10.1484,0.9376301349876317,2.097422354159233,2.490000009536743,2.429999828338623,2.2699999809265137,2.3299999237060547,2.0219029655439233,1.9731822652093793,1.8432609139121532,1.8919814206486132,1.9325818913285173,0.07859192618207463,-3.0,21.225000381469727,0.0,0.0,0.0,0.0,0.0,snow covered,0.250752389431,-8.86382484436035,100.0,456.929077148438
arenacam6_1769615775734524590.png,1769615775734524590,1769615775.7345247,42.30098149698099,-83.69768883295717,238.38717651367188,-0.009985369714754111,-0.9995893123027355,-0.012088142946153234,-0.023986994849660933,-0.003910000000000001,-0.009500000000000001,-0.0036800000000000005,2.7272000000000003,0.2308,-10.006300000000001,0.9940211269746159,2.223565619774597,2.669999837875366,2.429999828338623,2.5,2.3299999237060547,2.1680644857533027,1.9731822652093793,2.03002305,1.8919814206486132,2.015812805402824,0.09343228395158996,-4.200000286102295,21.725000381469727,0.0,0.0,0.0,0.0,0.0,snow covered,0.250752389431,-8.86382484436035,100.0,456.929077148438
arenacam6_1769615775755605949.png,1769615775755605949,1769615775.755606,42.30098149656874,-83.69768908063237,238.3868865966797,-0.01002634072599623,-0.999587340792435,-0.012040233667553805,-0.024075992033256097,0.010920000000000003,-0.0006000000000000001,0.0037100000000000006,1.3901000000000001,0.8475,-9.6966,1.0380683770594241,2.322096675379308,2.669999837875366,2.669999837875366,2.5,2.5,2.1680644857533027,2.1680644857533027,2.03002305,2.03002305,2.0990437678766516,0.09605668440407268,-5.099999904632568,21.75,0.0,0.0,0.0,0.0,0.0,snow covered,0.250752389431,-8.86382484436035,100.0,456.929077148438
arenacam6_1769615775796605588.png,1769615775796605588,1769615775.7966056,42.30098149484606,-83.69768958989654,238.3861846923828,-0.010075447534621917,-0.9995842826962309,-0.012068017310359648,-0.024168369863018273,-0.006070000000000001,-0.009810000000000001,0.0071200000000000005,2.3635,0.5428000000000001,-9.376800000000001,1.1455824570761926,2.562599221532018,2.9800000190734863,2.869999885559082,2.919999837875366,2.929999828338623,2.4197874910878467,2.3304663684729197,2.3710667907533027,2.3791868752093794,2.3751268813808624,0.07315710493312245,-6.300000190734863,21.5,0.0,0.0,0.0,0.0,0.0,snow covered,0.250752389431,-8.86382484436035,100.0,456.929077148438
arenacam6_1769615775817062641.png,1769615775817062641,1769615775.8170626,42.30098149410698,-83.69768987423473,238.3856658935547,-0.01007190814243869,-0.9995813959814619,-0.01203964909436105,-0.024303010591425186,0.010080000000000002,-0.013260000000000003,-0.00026000000000000003,0.9753000000000001,1.4176,-9.736500000000001,1.1854842584422642,2.6518571570798386,3.0299999713897705,3.0799999237060547,3.049999952316284,3.0399999618530273,2.46038791336823,2.500988335648613,2.4766280822803832,2.4685079978243065,2.4766280822803832,0.06607787087311046,-7.0,21.75,0.0,0.0,0.0,0.0,0.0,snow covered,0.250752389431,-8.86382484436035,100.0,456.929077148438
arenacam6_1769615775838152663.png,1769615775838152663,1769615775.8381526,42.300981494522674,-83.69769045500526,238.38478088378906,-0.010093520385671517,-0.9995832291112305,-0.011980787500340663,-0.024247673221594854,0.00068,0.00302,0.0024000000000000002,2.609,-0.6086,-9.8078,1.2391751270144644,2.771960408623736,3.2200000286102295,3.259999990463257,3.1999998092651367,3.2100000381469727,2.6146697116317705,2.6471500494560765,2.5984293491215325,2.6065496271756934,2.616699684346268,0.05601116227866836,-7.200000286102295,21.725000381469727,0.0,0.0,0.0,0.0,0.0,snow covered,0.250752389431,-8.86382484436035,100.0,456.929077148438
arenacam6_1769615775858790303.png,1769615775858790303,1769615775.8587904,42.30098149716176,-83.6976907714599,238.38441467285156,-0.010133056162414222,-0.9995784093176241,-0.01204260851549001,-0.024398778227614427,-0.007150000000000001,-0.014890000000000002,0.0032800000000000004,1.9583000000000002,0.36160000000000003,-9.857800000000001,1.2924638454686648,2.891164074482675,3.379999876022339,3.4099998474121094,3.3999998569488525,3.379999876022339,2.7445910629289965,2.7689513162972257,2.7608312318411494,2.7445910629289965,2.754741168499092,0.04718615148398087,-7.400000095367432,21.92500114440918,0.0,0.0,0.0,0.0,0.0,snow covered,0.250752389431,-8.86382484436035,100.0,456.929077148438
arenacam6_1769615775879319096.png,1769615775879319096,1769615775.879319,42.30098149656795,-83.69769109178114,238.384033203125,-0.010147700849306829,-0.9995787933385405,-0.011910898343294417,-0.02444157474459892,0.022400000000000003,0.01165,-0.0034500000000000004,1.5446,0.8734000000000001,-9.958,1.329691999749034,2.974441221918604,3.4700000286102295,3.569999933242798,3.490000009536743,3.5299999713897705,2.81767201663177,2.8988728611925363,2.833912185543923,2.86639252336823,2.854212396684115,0.04042064248858748,-7.5,21.725000381469727,0.0,0.0,0.0,0.0,0.0,snow covered,0.250752389431,-8.86382484436035,100.0,456.929077148438
arenacam6_1769615775900105473.png,1769615775900105473,1769615775.9001055,42.300981499616455,-83.69769142507033,238.38360595703125,-0.010136790020145947,-0.9995767085972793,-0.011817259504210597,-0.024576441885009515,0.0024500000000000004,-0.019160000000000003,0.00256,2.0238,-0.311,-10.2506,1.3867039914222872,3.101973626572171,3.7799999713897705,3.6599998474121094,3.7699999809265137,3.6499998569488525,3.06939482836823,2.971953621297226,3.0612747439121537,2.9638335368411495,3.01661418260469,0.02751778520496553,-7.5,21.75,0.0,0.0,0.0,0.0,0.0,snow covered,0.250752389431,-8.86382484436035,100.0,456.929077148438
arenacam6_1769615775920462264.png,1769615775920462264,1769615775.9204624,42.30098150498374,-83.69769177551532,238.38320922851562,-0.01020519450406382,-0.9995728623266041,-0.01181314659311098,-0.02470620312601216,0.0035200000000000006,-0.022720000000000004,0.00534,1.9291,0.8433,-10.1006,1.4336691772359293,3.2070319293261402,3.879999876022339,3.7899999618530273,3.8499999046325684,3.759999990463257,3.1505956729289966,3.0775149128243067,3.1262354195607664,3.0531546594560766,3.1018751661925363,0.03278943442128416,-7.5,22.0,0.0,0.0,0.0,0.0,0.0,snow covered,0.250752389431,-8.86382484436035,100.0,456.929077148438
arenacam6_1769615775941222735.png,1769615775941222735,1769615775.9412227,42.300981504157555,-83.69769213154052,238.38296508789062,-0.010190334225521736,-0.9995749407977947,-0.011538189950893788,-0.024758129778210895,0.032810000000000006,-0.0029100000000000003,-0.0032400000000000003,2.5101,-0.22060000000000002,-10.4228,1.4794945092358747,3.3095404474900976,4.029999732971191,4.019999980926514,4.019999980926514,4.019999980926514,3.272396939770146,3.2642770489121533,3.2642770489121533,3.2642770489121533,3.266307021626651,0.013063271638282626,-7.5,21.67500114440918,0.0,0.0,0.0,0.0,0.0,snow covered,0.250752389431,-8.86382484436035,100.0,456.929077148438
arenacam6_1769615775961994338.png,1769615775961994338,1769615775.9619942,42.30098150880272,-83.69769250044075,238.382568359375,-0.01024159974729133,-0.9995726186401053,-0.011422631352093407,-0.024883994706903428,0.00559,-0.00427,0.008830000000000003,1.7950000000000002,0.2237,-9.3056,1.5258876336636593,3.413319083247586,4.110000133514404,4.089999675750732,4.170000076293945,4.150000095367432,3.3373580026149274,3.321117446506605,3.386078509351387,3.369838340439234,3.3535980747280383,0.01749646225946348,-7.5,21.75,0.0,0.0,0.0,0.0,0.0,snow covered,0.250752389431,-8.86382484436035,100.0,456.929077148438
arenacam6_1769615775982509497.png,1769615775982509497,1769615775.9825096,42.30098151423416,-83.69769288625491,238.38223266601562,-0.010263167352918157,-0.9995720553854655,-0.011126228711079374,-0.025031590501417622,0.030600000000000002,-7.000000000000002e-05,-0.0013900000000000002,2.4367,0.22190000000000001,-10.5637,1.5947268712605325,3.567308327397536,4.259999752044678,4.210000038146973,4.269999980926514,4.21999979019165,3.4591590758579924,3.4185588471756936,3.4672793539121534,3.426678738033686,3.4429190037448816,0.034869238158452165,-7.5,22.149999618530273,0.0,0.0,0.0,0.0,0.0,snow covered,0.250752389431,-8.86382484436035,100.0,456.929077148438
arenacam6_1769615776003311273.png,1769615776003311273,1769615776.0033114,42.300981515772605,-83.69769327388494,238.38180541992188,-0.010321506706873762,-0.9995701883829443,-0.010899811555504242,-0.0251813244973231,0.015080000000000001,-0.006400000000000001,0.004560000000000001,2.1639,-0.4162,-9.7766,1.6425518865226432,3.6742900170379618,4.309999942779541,4.319999694824219,4.509999752044678,4.369999885559082,3.4997596917364597,3.507879582594452,3.6621613808579925,3.5484801984729195,3.554570213415456,0.03258311212978724,-7.5,21.575000762939453,0.0,0.0,0.0,0.0,0.0,snow covered,0.250752389431,-8.86382484436035,100.0,456.929077148438
arenacam6_1769615776023906977.png,1769615776023906977,1769615776.0239072,42.300981522062564,-83.69769367357537,238.3812255859375,-0.010395372570262074,-0.9995697724274779,-0.010663200356276329,-0.025268605750362112,0.034,0.004900000000000001,0.006110000000000001,0.8202,1.1255,-8.8229,1.675943692092129,3.748985482588567,4.579999923706055,4.429999828338623,4.579999923706055,4.480000019073486,3.719002165648613,3.5972007052093797,3.719002165648613,3.637801321087847,3.668251589398613,0.02153486418256533,-7.400000095367432,22.17500114440918,0.0,0.0,0.0,0.0,0.0,snow covered,0.250752389431,-8.86382484436035,100.0,456.929077148438
arenacam6_1769615776044817290.png,1769615776044817290,1769615776.0448174,42.300981526626465,-83.69769409272105,238.3805694580078,-0.010428369696821815,-0.9995688752712028,-0.010430252134221094,-0.02538744837406162,0.015310000000000002,-0.030160000000000003,0.00727,1.8139,0.11810000000000001,-9.328800000000001,1.7324108575606414,3.8752991437117013,4.650000095367432,4.659999847412109,4.769999980926514,4.659999847412109,3.775842950439234,3.7839628412972264,3.8732839639121535,3.7839628412972264,3.80426314923646,0.01833045446065985,-7.400000095367432,21.75,0.0,0.0,0.0,0.0,0.0,snow covered,0.250752389431,-8.86382484436035,100.0,456.929077148438
arenacam6_1769615776065352970.png,1769615776065352970,1769615776.065353,42.300981533283256,-83.6976945091757,238.37994384765625,-0.010492058353646583,-0.9995691948205782,-0.010198737480494314,-0.025442626260839783,0.024050000000000002,-0.01391,0.0025900000000000003,1.556,0.2346,-10.0515,1.7716569245131477,3.9630902407204407,4.730000019073486,4.730000019073486,4.900000095367432,4.730000019073486,3.8408036260878466,3.8408036260878466,3.978845255439234,3.8408036260878466,3.8753140334256937,0.022148425083247755,-7.300000190734863,21.75,0.0,0.0,0.0,0.0,0.0,snow covered,0.250752389431,-8.86382484436035,100.0,456.929077148438
arenacam6_1769615776107432762.png,1769615776107432762,1769615776.1074326,42.300981542319555,-83.69769539385196,238.3783416748047,-0.010619349745116469,-0.9995705502657041,-0.009854500217633566,-0.02547220598945656,0.018330000000000003,-0.00016,0.0061,1.5059,0.41390000000000005,-10.1074,1.8588937552157703,4.1582337967923655,5.059999942779541,5.0,5.199999809265137,5.0,4.10876660673646,4.0600461,4.222447789121532,4.0600461,4.112826648964498,0.010919815971601701,-7.300000190734863,21.850000381469727,0.0,0.0,0.0,0.0,0.0,snow covered,0.250752389431,-8.86382484436035,100.0,456.929077148438
arenacam6_1769615776127572789.png,1769615776127572789,1769615776.1275728,42.30098154449648,-83.6976958468194,238.37744140625,-0.010663912257351527,-0.9995711390960533,-0.009752995877036624,-0.02546954913241643,0.005560000000000001,-0.0033100000000000004,0.005490000000000001,1.9518000000000002,-0.08,-9.828000000000001,1.9061382050186024,4.263916796334313,5.269999980926514,5.059999942779541,5.279999732971191,5.099999904632568,4.279288573912154,4.10876660673646,4.287408464770145,4.141246944560766,4.204177647494881,0.014010392719386455,-7.300000190734863,21.899999618530273,0.0,0.0,0.0,0.0,0.0,snow covered,0.250752389431,-8.86382484436035,100.0,456.929077148438
arenacam6_1769615776148917878.png,1769615776148917878,1769615776.1489177,42.30098154898659,-83.697696311988,238.37649536132812,-0.01074957723356762,-0.9995712122063795,-0.009666972725793236,-0.025463463155810512,0.012160000000000002,0.00064,0.006950000000000001,1.5241,0.3422,-9.767000000000001,1.9464539294075072,4.354100652848829,5.329999923706055,5.269999980926514,5.420000076293945,5.289999961853027,4.328009080648613,4.279288573912154,4.4010900343513875,4.295528742824307,4.325979107934115,0.006458634550929435,-7.300000190734863,22.125,0.0,0.0,0.0,0.0,0.0,snow covered,0.250752389431,-8.86382484436035,100.0,456.929077148438
arenacam6_1769615776169432219.png,1769615776169432219,1769615776.1694324,42.300981550857,-83.697696795005,238.37551879882812,-0.010762414457960334,-0.9995724124647198,-0.009582966600899174,-0.025442669388667873,0.0040100000000000005,-0.0040100000000000005,0.00281,1.8737000000000001,-0.5521,-9.864600000000001,1.9940447825582153,4.460558535895775,5.559999942779541,5.440000057220459,5.519999980926514,5.489999771118164,4.5147712167364595,4.41733020326354,4.482290878912154,4.457930431945839,4.468080682714498,0.00168636881641384,-7.300000190734863,22.024999618530273,0.0,0.0,0.0,0.0,0.0,snow covered,0.250752389431,-8.86382484436035,100.0,456.929077148438
arenacam6_1769615776189728046.png,1769615776189728046,1769615776.189728,42.300981554606516,-83.69769727777921,238.3745574951172,-0.010839144929123468,-0.9995714488699248,-0.009589481166015748,-0.025445498467340396,-0.0006000000000000001,0.0015400000000000001,0.00661,1.5403,0.1479,-9.8018,2.0347943755516247,4.551712930446452,5.559999942779541,5.519999980926514,5.62999963760376,5.559999942779541,4.5147712167364595,4.482290878912154,4.571611614330912,4.5147712167364595,4.520861231678996,0.006778041418448937,-7.300000190734863,22.200000762939453,0.0,0.0,0.0,0.0,0.0,snow covered,0.250752389431,-8.86382484436035,100.0,456.929077148438
arenacam6_1769615776210276382.png,1769615776210276382,1769615776.2102764,42.30098155664381,-83.69769777565357,238.3735809326172,-0.010855314054004916,-0.9995699798245056,-0.009579446267521212,-0.02550003528692155,0.00198,-0.00487,0.0016300000000000002,1.4240000000000002,0.050800000000000005,-9.9887,2.078586660756445,4.649673644912522,5.799999713897705,5.679999828338623,5.779999732971191,5.859999656677246,4.7096532436822995,4.612212230209379,4.693413074770145,4.758373750418759,4.693413074770145,0.009406989220733943,-7.300000190734863,22.55000114440918,0.0,0.0,0.0,0.0,0.0,snow covered,0.250752389431,-8.86382484436035,100.0,456.929077148438
arenacam6_1769615776230768757.png,1769615776230768757,1769615776.2307687,42.30098155673681,-83.69769829159019,238.37258911132812,-0.01089863971584104,-0.9995683092083276,-0.009632478806587227,-0.02552704900277424,-0.009340000000000003,-0.010490000000000001,0.00417,2.2783,-0.203,-10.070500000000001,2.1292722378002367,4.763054239624862,5.940000057220459,5.809999942779541,5.909999847412109,5.87999963760376,4.82333481326354,4.7177735217364605,4.798974366297227,4.774613919330911,4.778674155157034,0.0032793906485942127,-7.300000190734863,22.80000114440918,0.0,0.0,0.0,0.0,0.0,snow covered,0.250752389431,-8.86382484436035,100.0,456.929077148438
arenacam6_1769615776251489704.png,1769615776251489704,1769615776.2514899,42.30098155820032,-83.6976988060725,238.37159729003906,-0.0109421698748145,-0.9995659053024238,-0.009685169720071484,-0.025582559740375814,-0.0032600000000000003,-0.0009500000000000001,0.004760000000000001,1.7311,0.17220000000000002,-10.1815,2.169210796811769,4.852394399820119,5.989999771118164,5.96999979019165,6.039999961853027,6.049999713897705,4.863935041945839,4.847694873033686,4.904535657824306,4.912655548682299,4.882205280371533,0.006143540300953165,-7.300000190734863,23.17500114440918,0.0,0.0,0.0,0.0,0.0,snow covered,0.250752389431,-8.86382484436035,100.0,456.929077148438
arenacam6_1769615776272275724.png,1769615776272275724,1769615776.2722757,42.30098155853916,-83.69769933645124,238.3705596923828,-0.010969117355781988,-0.999560684811065,-0.009800629907037246,-0.02573059458883545,-0.004050000000000001,-0.011000000000000001,0.0014800000000000002,1.7853,0.5414,-9.901,2.2368792230671772,5.003764609247892,6.12999963760376,6.039999961853027,6.119999885559082,6.21999979019165,4.977616224330911,4.904535657824306,4.96949633347292,5.050697178033686,4.975586348415455,0.005631412153233076,-7.400000095367432,23.100000381469727,0.0,0.0,0.0,0.0,0.0,snow covered,0.250752389431,-8.86382484436035,100.0,456.929077148438
arenacam6_1769615776292827835.png,1769615776292827835,1769615776.2928278,42.30098155923529,-83.69769988344456,238.36949157714844,-0.010977581650784218,-0.9995577456249661,-0.009816669203276418,-0.025834838261337516,-0.00041000000000000005,-0.00768,0.00026000000000000003,1.5650000000000002,0.23090000000000002,-9.942300000000001,2.2779056709152017,5.095538311497052,6.230000019073486,6.159999847412109,6.25,6.269999980926514,5.058817456087847,5.001976671297226,5.075057625,5.091297793912154,5.056787386574307,0.00760487362744605,-7.5,23.75,0.0,0.0,0.0,0.0,0.0,snow covered,0.250752389431,-8.86382484436035,100.0,456.929077148438
arenacam6_1769615776313573007.png,1769615776313573007,1769615776.3135731,42.300981558933415,-83.69770043151718,238.36849975585938,-0.01097206801945666,-0.9995556195830821,-0.009844914847345086,-0.02590858419337819,-0.004210000000000001,-0.006900000000000001,0.00017,1.7678,0.1159,-10.06,2.3203328442099487,5.190445352527003,6.369999885559082,6.319999694824219,6.399999618530273,6.389999866485596,5.17249863847292,5.131898022594452,5.196858698243065,5.188738807385073,5.172498541673878,0.0034576630008033736,-7.599999904632568,24.274999618530273,0.0,0.0,0.0,0.0,0.0,snow covered,0.250752389431,-8.86382484436035,100.0,456.929077148438
arenacam6_1769615776334849999.png,1769615776334849999,1769615776.33485,42.300981560607624,-83.69770099302595,238.36741638183594,-0.010964909088140129,-0.9995529377596584,-0.009868931628279695,-0.02600576038576347,-0.0014000000000000002,-0.007360000000000001,0.00109,1.7911000000000001,0.1311,-9.711500000000001,2.3628524039044563,5.285559056390035,6.440000057220459,6.429999828338623,6.519999980926514,6.489999771118164,5.229339423263541,5.221219145209379,5.294300098912153,5.2699396519458395,5.253699579832729,0.006027645556015404,-8.0,25.575000762939453,0.0,0.0,0.0,0.0,0.0,snow covered,0.250752389431,-8.86382484436035,100.0,456.929077148438
arenacam6_1769615776355598176.png,1769615776355598176,1769615776.355598,42.30098156228469,-83.69770157085097,238.36630249023438,-0.010966357086702572,-0.9995506562937616,-0.009896966992568215,-0.026082073523886955,-0.00396,-0.00039000000000000005,-0.00027000000000000006,0.9877,0.27540000000000003,-9.545,2.397421501036386,5.3628880525283344,6.579999923706055,6.609999656677246,6.71999979019165,6.730000019073486,5.343020605648613,5.367380665418758,5.456701788033685,5.464822066087847,5.407981281297227,0.008408385244520089,-8.300000190734863,25.92500114440918,0.0,0.0,0.0,0.0,0.0,snow covered,0.250752389431,-8.86382484436035,100.0,456.929077148438
arenacam6_1769615776397068363.png,1769615776397068363,1769615776.3970683,42.30098156574526,-83.69770334765775,238.3624725341797,-0.010978806686340603,-0.9995457156084054,-0.010104202149934719,-0.026186510106116678,-0.017410000000000002,-0.00693,0.0028300000000000005,1.4094,-0.33480000000000004,-10.207500000000001,2.4872429448659394,5.563813233088415,6.839999675750732,6.779999732971191,6.899999618530273,6.949999809265137,5.554142801506606,5.505422294770145,5.602863308243065,5.643463924121533,5.576473082160337,0.0022753907332175045,-9.199999809265137,26.17500114440918,0.0,0.0,0.0,0.0,0.0,snow covered,0.250752389431,-8.86382484436035,100.0,456.929077148438
arenacam6_1769615776417240511.png,1769615776417240511,1769615776.4172406,42.30098156690551,-83.69770395862002,238.36097717285156,-0.011031465246889749,-0.9995424897733731,-0.010318403732654675,-0.026203977876705805,-0.017910000000000002,-0.004760000000000001,0.0058200000000000005,1.7664000000000002,0.4777,-9.4593,2.5282341512982915,5.655508102405201,6.980000019073486,6.859999656677246,7.0,6.989999771118164,5.667824371087846,5.570382970418759,5.6840645400000005,5.675944261945839,5.649554035863112,0.0010527907367964009,-9.699999809265137,26.350000381469727,0.0,0.0,0.0,0.0,0.0,snow covered,0.250752389431,-8.86382484436035,100.0,456.929077148438
arenacam6_1769615776437957008.png,1769615776437957008,1769615776.437957,42.30098156653862,-83.69770458082962,238.35955810546875,-0.011050090525508649,-0.9995387341388011,-0.010471874893441127,-0.026278399719108107,-0.019340000000000003,-0.009570000000000002,0.003790000000000001,1.5363,-0.3745,-10.091700000000001,2.571335880558211,5.751924084655886,7.099999904632568,7.069999694824219,7.089999675750732,7.109999656677246,5.765265384560767,5.740904937594452,5.757145106506605,5.773385275418759,5.759175176020145,0.0012606375288579962,-10.199999809265137,26.350000381469727,0.0,0.0,0.0,0.0,0.0,snow covered,0.250752389431,-8.86382484436035,100.0,456.929077148438
arenacam6_1769615776458639500.png,1769615776458639500,1769615776.4586396,42.30098156772453,-83.69770521887483,238.35816955566406,-0.011119558140391284,-0.9995337546028886,-0.010709039854394423,-0.026342841562966436,-0.021570000000000002,-0.008180000000000002,0.008110000000000001,1.3721,0.6896,-9.929300000000001,2.6110885235919232,5.840848361963717,7.210000038146973,7.139999866485596,7.179999828338623,7.349999904632568,5.854586507175694,5.797745722385073,5.83022606020938,5.968267689560766,5.862706494832728,0.00374228733814655,-10.600000381469727,26.225000381469727,0.0,0.0,0.0,0.0,0.0,snow covered,0.250752389431,-8.86382484436035,100.0,456.929077148438
arenacam6_1769615776479398005.png,1769615776479398005,1769615776.4793978,42.30098156557946,-83.69770585989305,238.35679626464844,-0.011162613018073364,-0.9995313143572002,-0.010780290377383503,-0.026388122884284552,-0.005830000000000001,-0.0026800000000000005,0.0029700000000000004,1.8762,-0.1018,-9.897300000000001,2.6548750512208414,5.9387961970779495,7.339999675750732,7.239999771118164,7.319999694824219,7.369999885559082,5.960147411506605,5.878946566945839,5.943907242594452,5.98450785847292,5.941877269879954,0.0005188042660093786,-11.0,26.325000762939453,0.0,0.0,0.0,0.0,0.0,snow covered,0.250752389431,-8.86382484436035,100.0,456.929077148438
arenacam6_1769615776499974978.png,1769615776499974978,1769615776.499975,42.30098156767863,-83.69770651262151,238.35548400878906,-0.011257659919787333,-0.9995265630374477,-0.010836819589208015,-0.026504305628873,-0.0036100000000000004,-0.010400000000000001,0.012180000000000002,1.4535,0.561,-10.2171,2.6958266046628254,6.030402365034461,7.489999771118164,7.489999771118164,7.489999771118164,7.569999694824219,6.08194887194584,6.08194887194584,6.08194887194584,6.146909547594452,6.098189040857992,0.011240821378117759,-11.199999809265137,26.325000762939453,0.0,0.0,0.0,0.0,0.0,snow covered,0.250752389431,-8.86382484436035,100.0,456.929077148438
arenacam6_1769615776520570763.png,1769615776520570763,1769615776.520571,42.30098157135081,-83.6977071807718,238.35430908203125,-0.011342389069875836,-0.9995231290349256,-0.010771683556353185,-0.026623966041536072,0.013130000000000003,-0.014010000000000002,0.005180000000000001,1.2615,0.9183,-10.0827,2.7343642170715836,6.116608691736109,7.589999675750732,7.549999713897705,7.589999675750732,7.589999675750732,6.163149716506606,6.130669378682298,6.163149716506606,6.163149716506606,6.155029632050529,0.006281412176379593,-11.40000057220459,26.524999618530273,0.0,0.0,0.0,0.0,0.0,snow covered,0.250752389431,-8.86382484436035,100.0,456.929077148438
arenacam6_1769615776541198851.png,1769615776541198851,1769615776.5411987,42.300981574198964,-83.69770785070062,238.3531951904297,-0.01139758519988976,-0.9995212546138758,-0.010598472942843091,-0.02674002614050892,0.014740000000000001,-0.01665,0.0065000000000000014,1.5755000000000001,0.0883,-10.429400000000001,2.7754730126807847,6.208566600986155,7.779999732971191,7.669999599456787,7.819999694824219,7.699999809265137,6.317431514770146,6.2281103921552186,6.349911852594452,6.252470839121533,6.286981149660337,0.0126300567769905,-11.40000057220459,26.350000381469727,0.0,0.0,0.0,0.0,0.0,snow covered,0.250752389431,-8.86382484436035,100.0,456.929077148438
arenacam6_1769615776561834183.png,1769615776561834183,1769615776.5618343,42.30098157870813,-83.69770853320935,238.35218811035156,-0.011478247960727661,-0.9995203649561678,-0.010407613501877307,-0.026813642849055668,0.0206,-0.004900000000000001,0.006400000000000001,1.8225,0.44160000000000005,-10.103900000000001,2.816223598938612,6.299723217409739,7.929999828338623,7.759999752044678,7.889999866485596,7.829999923706055,6.4392329752093795,6.301191345857993,6.406752637385073,6.358032130648613,6.3763022722752645,0.012155939590154286,-11.40000057220459,26.600000381469727,0.0,0.0,0.0,0.0,0.0,snow covered,0.250752389431,-8.86382484436035,100.0,456.929077148438
arenacam6_1769615776603274753.png,1769615776603274753,1769615776.6032748,42.3009815928573,-83.69770993345783,238.35125732421875,-0.01170220331116073,-0.9995107377912595,-0.00985534983700141,-0.027280314463486426,0.022200000000000004,-0.020160000000000004,0.007710000000000002,1.8818000000000001,0.0932,-10.2118,2.9224444013750532,6.537332779211912,8.109999656677246,7.940000057220459,8.09000015258789,8.039999961853027,6.585394495418758,6.4473532532635405,6.569154713702774,6.528554097824307,6.532614140052345,0.0007217988312559863,-11.300000190734863,26.200000762939453,0.0,0.0,0.0,0.0,0.0,snow covered,0.250752389431,-8.86382484436035,100.0,456.929077148438
arenacam6_1769615776623970591.png,1769615776623970591,1769615776.6239705,42.300981600041986,-83.69771064537494,238.35076904296875,-0.011788524423406499,-0.9995044256544212,-0.009706047882320476,-0.027526830977252992,0.013000000000000003,-0.016910000000000005,0.008490000000000001,1.3115,0.5305,-10.3383,2.95985931073614,6.621027686558102,8.199999809265137,8.109999656677246,8.229999542236328,8.220000267028809,6.658475449121532,6.585394495418758,6.682835508891679,6.674716005229855,6.650355364665455,0.004429475225861728,-11.199999809265137,26.200000762939453,0.0,0.0,0.0,0.0,0.0,snow covered,0.250752389431,-8.86382484436035,100.0,456.929077148438
arenacam6_1769615776644819116.png,1769615776644819116,1769615776.6448193,42.30098160980217,-83.69771137529203,238.3507080078125,-0.011864295081381315,-0.9994969713375393,-0.009522851172281955,-0.027827290469230468,0.022770000000000002,-0.03314,0.00689,1.3682,0.7647,-9.5839,3.0027643840833096,6.717003761331319,8.300000190734863,8.220000267028809,8.40999984741211,8.34000015258789,6.739676680878468,6.674716005229855,6.828997416297226,6.772157018702774,6.753886780277081,0.005490992748595928,-11.199999809265137,26.149999618530273,0.0,0.0,0.0,0.0,0.0,snow covered,0.250752389431,-8.86382484436035,100.0,456.929077148438
arenacam6_1769615776665458039.png,1769615776665458039,1769615776.665458,42.3009816169594,-83.69771210599482,238.35061645507812,-0.011908323473674987,-0.9994898011785924,-0.009376133785243424,-0.028114360872432093,0.008960000000000003,-0.029720000000000003,0.004240000000000001,1.409,-0.0805,-9.738800000000001,3.0430845773201076,6.807197614390442,8.380000114440918,8.4399995803833,8.569999694824219,8.5,6.804637356527081,6.853357476067372,6.958918767594452,6.90207837,6.879747992547227,0.01065789217040106,-11.0,26.25,0.0,0.0,0.0,0.0,0.0,snow covered,0.250752389431,-8.86382484436035,100.0,456.929077148438
arenacam6_1769615776707090837.png,1769615776707090837,1769615776.7070909,42.300981641446654,-83.6977136092305,238.3496856689453,-0.01197966811448059,-0.999479140387695,-0.008702250433985148,-0.02867414025084965,0.04757000000000001,-0.0205,-0.0030600000000000007,1.4662000000000002,-0.4232,-9.3811,3.126340531978582,6.99343618960417,8.699999809265137,8.460000038146973,8.809999465942383,8.710000038146973,7.064480059121533,6.869598032175693,7.153800794540291,7.072600337175694,7.040119805753303,0.006675347409121867,-10.90000057220459,26.274999618530273,0.0,0.0,0.0,0.0,0.0,snow covered,0.250752389431,-8.86382484436035,100.0,456.929077148438
arenacam6_1769615776727833157.png,1769615776727833157,1769615776.727833,42.300981654742756,-83.6977143709243,238.34909057617188,-0.012058092570438939,-0.9994761423313909,-0.00828851331893212,-0.028867695801463606,0.04478000000000001,-0.014090000000000004,0.00897,1.6682000000000001,0.45630000000000004,-8.683900000000001,3.166888827561236,7.084140293924832,8.869999885559082,8.619999885559082,8.9399995803833,8.90999984741211,7.2025216884729195,6.9995193834729195,7.259362086067371,7.235002026297226,7.17410129607761,0.012698930063528848,-10.800000190734863,26.274999618530273,0.0,0.0,0.0,0.0,0.0,snow covered,0.250752389431,-8.86382484436035,100.0,456.929077148438
arenacam6_1769615776748339997.png,1769615776748339997,1769615776.74834,42.30098166661883,-83.69771514358338,238.3477325439453,-0.012131149726629098,-0.9994721998933238,-0.007847999740580622,-0.029095802906629806,0.041330000000000006,-0.021570000000000002,0.005190000000000001,1.4347,-0.0461,-8.6205,3.213407732255758,7.188200292592196,9.050000190734863,8.84999942779541,9.09999942779541,8.880000114440918,7.348683595878468,7.186281132364598,7.389283437364598,7.2106419665270804,7.283722533033686,0.013288756093779164,-10.800000190734863,26.225000381469727,0.0,0.0,0.0,0.0,0.0,snow covered,0.250752389431,-8.86382484436035,100.0,456.929077148438
arenacam6_1769615776769071047.png,1769615776769071047,1769615776.769071,42.30098167693785,-83.6977159340098,238.34609985351562,-0.012215359730065045,-0.9994677759760433,-0.007592483494887781,-0.029279753526055077,0.017320000000000002,-0.022170000000000002,0.00877,1.5002,-0.5634,-9.4984,3.2562840106770823,7.2841119548439925,9.09999942779541,8.960000038146973,9.15999984741211,9.09999942779541,7.389283437364598,7.275602642175694,7.438004331297226,7.389283437364598,7.3730434620505285,0.012208970394448126,-10.800000190734863,26.225000381469727,0.0,0.0,0.0,0.0,0.0,snow covered,0.250752389431,-8.86382484436035,100.0,456.929077148438
arenacam6_1769615776789800354.png,1769615776789800354,1769615776.7898004,42.30098168931768,-83.6977167253914,238.34426879882812,-0.012316066710223117,-0.9994632473965654,-0.007525433986306371,-0.02940917284826226,0.005040000000000001,-0.00909,0.008180000000000002,1.752,-0.518,-8.8747,3.2984269765566783,7.378383240938696,9.170000076293945,9.170000076293945,9.389999389648438,9.09999942779541,7.446124609351387,7.446124609351387,7.624766080188904,7.389283437364598,7.476574684064069,0.013307989015881018,-10.800000190734863,26.149999618530273,0.0,0.0,0.0,0.0,0.0,snow covered,0.250752389431,-8.86382484436035,100.0,456.929077148438
arenacam6_1769615776810368193.png,1769615776810368193,1769615776.8103683,42.300981698313926,-83.69771752935283,238.3419647216797,-0.012398321889821484,-0.9994553797959214,-0.007603136536706825,-0.029621237754534544,-0.00801,-0.023110000000000006,0.009190000000000002,1.5144,0.3935,-9.3355,3.345214158783335,7.483043360348794,9.279999732971191,9.239999771118164,9.510000228881836,9.319999694824219,7.535445344770146,7.502965006945839,7.722207868054161,7.567925682594453,7.582135975591149,0.013242287993068189,-10.800000190734863,26.25,0.0,0.0,0.0,0.0,0.0,snow covered,0.250752389431,-8.86382484436035,100.0,456.929077148438
arenacam6_1769615776830860896.png,1769615776830860896,1769615776.8308609,42.300981707416845,-83.69771834991015,238.339599609375,-0.012485769111334089,-0.9994483697699399,-0.007591892242764773,-0.029823227626838155,0.0026800000000000005,-0.02074,0.007490000000000002,1.2472,-0.1424,-9.5977,3.3824167548301993,7.566263335549866,9.399999618530273,9.210000038146973,9.679999351501465,9.389999389648438,7.632886358243065,7.478604947175694,7.8602487230132105,7.624766080188904,7.649126527155218,0.01095166635504496,-10.90000057220459,26.024999618530273,0.0,0.0,0.0,0.0,0.0,snow covered,0.250752389431,-8.86382484436035,100.0,456.929077148438
arenacam6_1769615776851647042.png,1769615776851647042,1769615776.851647,42.300981715626904,-83.69771917221414,238.33705139160156,-0.012602344428375156,-0.9994440993852345,-0.007535549111273795,-0.02993139853962005,0.0071200000000000005,-0.0074600000000000005,0.014510000000000002,1.5113,-0.25680000000000003,-9.514800000000001,3.4203542505140296,7.651127237144854,9.619999885559082,9.389999389648438,9.739999771118164,9.519999504089355,7.81152860347292,7.624766080188904,7.908969616945839,7.730327371715985,7.768897918080912,0.015392592135221896,-10.90000057220459,26.274999618530273,0.0,0.0,0.0,0.0,0.0,snow covered,0.250752389431,-8.86382484436035,100.0,456.929077148438
arenacam6_1769615776872286376.png,1769615776872286376,1769615776.8722866,42.30098172219644,-83.69772000420367,238.33416748046875,-0.012719415706169857,-0.9994396938977737,-0.007478620302566796,-0.030043051842121162,0.004710000000000001,-0.007450000000000001,0.010330000000000002,1.1926,-0.1051,-9.7359,3.4578039200255732,7.734899900862007,9.699999809265137,9.6899995803833,9.769999504089355,9.579999923706055,7.876489279121533,7.8683690010673715,7.933329676715984,7.779048265648614,7.864309055638376,0.016730553263132407,-10.90000057220459,26.42500114440918,0.0,0.0,0.0,0.0,0.0,snow covered,0.250752389431,-8.86382484436035,100.0,456.929077148438
arenacam6_1769615776893183658.png,1769615776893183658,1769615776.8931837,42.300981728121016,-83.6977208518101,238.3314208984375,-0.012921848240587508,-0.9994364643272133,-0.007482267990340612,-0.030063188069241627,-0.006780000000000001,-0.003980000000000001,0.011030000000000002,1.4559,-0.164,-10.0251,3.5148717438598127,7.86255719870977,9.789999961853027,9.739999771118164,9.819999694824219,9.769999504089355,7.949570232824307,7.908969616945839,7.973930292594452,7.933329676715984,7.941449954770146,0.010033981828879027,-10.90000057220459,26.375,0.0,0.0,0.0,0.0,0.0,snow covered,0.250752389431,-8.86382484436035,100.0,456.929077148438
arenacam6_1769615776913716612.png,1769615776913716612,1769615776.9137168,42.300981734812126,-83.69772170098543,238.32867431640625,-0.01304860953289283,-0.9994366656661418,-0.0074497416654530305,-0.03000977275023789,0.007580000000000002,0.007290000000000001,0.011680000000000003,1.3097,0.19060000000000002,-10.3019,3.550355890159361,7.9419331049330815,9.899999618530273,9.809999465942383,9.889999389648438,9.969999313354492,8.038890968243065,7.965810014540291,8.030770690188904,8.095731365837517,8.032800759702443,0.011441503418471227,-10.90000057220459,26.399999618530273,0.0,0.0,0.0,0.0,0.0,snow covered,0.250752389431,-8.86382484436035,100.0,456.929077148438
arenacam6_1769615776934442558.png,1769615776934442558,1769615776.9344425,42.30098173926039,-83.69772256073657,238.3258056640625,-0.013170691409189084,-0.999437870587945,-0.007397772939824842,-0.029929060759879365,0.006370000000000001,0.01175,0.01251,1.2657,0.2711,-10.4128,3.586516583712372,8.022822406769553,10.109999656677246,9.920000076293945,9.969999313354492,9.969999313354492,8.20941293541876,8.055131524351388,8.095731365837517,8.095731365837517,8.114001797861295,0.011365001799716577,-10.90000057220459,26.600000381469727,0.0,0.0,0.0,0.0,0.0,snow covered,0.250752389431,-8.86382484436035,100.0,456.929077148438
arenacam6_1769615776955135897.png,1769615776955135897,1769615776.955136,42.30098174548697,-83.69772343565576,238.323486328125,-0.01329649953545603,-0.9994401231062542,-0.0073126664610764225,-0.029818925780251037,0.008020000000000001,0.010260000000000002,0.01276,1.6534,0.033800000000000004,-10.174100000000001,3.628115822203341,8.115877407319543,10.239999771118164,10.0,10.119999885559082,10.050000190734863,8.31497422694584,8.1200922,8.21753321347292,8.160692815878468,8.203323114074307,0.010774646087667409,-10.90000057220459,26.625,0.0,0.0,0.0,0.0,0.0,snow covered,0.250752389431,-8.86382484436035,100.0,456.929077148438
arenacam6_1769615776996948353.png,1769615776996948353,1769615776.9969485,42.300981756747774,-83.69772520047728,238.3187255859375,-0.013570935684833751,-0.9994401060216935,-0.007375904444141225,-0.029679963167349235,-0.0064800000000000005,0.0037400000000000007,0.011860000000000002,1.995,0.0487,-9.9015,3.711661327834996,8.302763690687216,10.34000015258789,10.329999923706055,10.369999885559082,10.239999771118164,8.396175458702775,8.388055180648614,8.42053551847292,8.31497422694584,8.379935096192536,0.009294664810450895,-10.90000057220459,26.55000114440918,0.0,0.0,0.0,0.0,0.0,snow covered,0.250752389431,-8.86382484436035,100.0,456.929077148438
arenacam6_1769615777017222957.png,1769615777017222957,1769615777.017223,42.300981768782925,-83.69772701080616,238.31503295898438,-0.013703251736440603,-0.9994388904206573,-0.007436915205895001,-0.02964485619451308,-0.005520000000000001,0.004670000000000001,0.013960000000000002,1.1212,0.0506,-10.6209,3.7476105669154154,8.38317998155577,10.469999313354492,10.40999984741211,10.489999771118164,10.479999542236328,8.501735975837518,8.453015856297226,8.51797653194584,8.509856253891678,8.495646154493064,0.013415693470107567,-10.90000057220459,26.899999618530273,0.0,0.0,0.0,0.0,0.0,snow covered,0.250752389431,-8.86382484436035,100.0,456.929077148438
arenacam6_1769615777038384763.png,1769615777038384763,1769615777.0383847,42.30098177639066,-83.69772792795543,238.31292724609375,-0.01384766936218923,-0.9994380188453322,-0.007517890650858261,-0.029586650028597793,-0.0020700000000000002,0.004350000000000001,0.014350000000000002,1.2803,1.3434000000000001,-9.7157,3.7855185097580852,8.467977775218252,10.569999694824219,10.469999313354492,10.559999465942383,10.569999694824219,8.582937207594453,8.501735975837518,8.57481692954029,8.582937207594453,8.560606830141678,0.010938745634702486,-10.90000057220459,26.575000762939453,0.0,0.0,0.0,0.0,0.0,snow covered,0.250752389431,-8.86382484436035,100.0,456.929077148438
arenacam6_1769615777058817806.png,1769615777058817806,1769615777.0588179,42.30098178669011,-83.69772886022795,238.3109588623047,-0.013951917588174323,-0.9994397758702964,-0.007355003170811867,-0.02951918583399538,0.017140000000000002,0.004720000000000001,0.008690000000000002,1.3865,0.1199,-9.9084,3.8244482458286257,8.555061259023887,10.729999542236328,10.639999389648438,10.719999313354492,10.729999542236328,8.712858558891678,8.639777605188904,8.704738280837518,8.712858558891678,8.692558250952445,0.016072005537485265,-10.90000057220459,26.825000762939453,0.0,0.0,0.0,0.0,0.0,snow covered,0.250752389431,-8.86382484436035,100.0,456.929077148438
arenacam6_1769615777079309948.png,1769615777079309948,1769615777.07931,42.30098180056142,-83.69772979289435,238.30894470214844,-0.01407248789226967,-0.9994432256898726,-0.007181107353580967,-0.029387674360526275,0.02009,0.01314,0.012770000000000002,1.3246,0.7015,-9.8081,3.8603957120906616,8.635473584204085,10.84000015258789,10.769999504089355,10.760000228881836,10.769999504089355,8.802180068702775,8.745338896715985,8.737219393054161,8.745338896715985,8.757519313797227,0.014133067330133016,-10.90000057220459,26.725000381469727,0.0,0.0,0.0,0.0,0.0,snow covered,0.250752389431,-8.86382484436035,100.0,456.929077148438
arenacam6_1769615777100014448.png,1769615777100014448,1769615777.1000144,42.30098181235862,-83.69773073822218,238.30670166015625,-0.014165443206301087,-0.9994491384358521,-0.006831219348377372,-0.02922489248596146,0.03864,0.022250000000000002,0.005870000000000001,1.5052,0.7036,-9.855400000000001,3.8970376270855915,8.717439349532844,11.09000015258789,10.75,10.949999809265137,10.9399995803833,9.005182373702773,8.729099115,8.891500804121533,8.883380526067372,8.877290704722919,0.018336962126228117,-10.90000057220459,26.55000114440918,0.0,0.0,0.0,0.0,0.0,snow covered,0.250752389431,-8.86382484436035,100.0,456.929077148438
arenacam6_1769615777120772347.png,1769615777120772347,1769615777.1207724,42.30098182892865,-83.69773169744626,238.30455017089844,-0.014224252062858544,-0.9994530279424079,-0.00647963615834846,-0.029143265178424534,0.03558000000000001,0.00632,0.005920000000000001,1.0124,0.49310000000000004,-9.6987,3.9367694010354928,8.806316943952336,11.289999961853027,11.069999694824219,11.109999656677246,11.039999961853027,9.167584062824305,8.988941817594451,9.021422155418758,8.964581757824307,9.035632448415456,0.026039887721801835,-10.90000057220459,26.600000381469727,0.0,0.0,0.0,0.0,0.0,snow covered,0.250752389431,-8.86382484436035,100.0,456.929077148438
arenacam6_1769615777141669384.png,1769615777141669384,1769615777.1416693,42.30098184592353,-83.6977326596699,238.30242919921875,-0.014256612772065802,-0.9994579069810852,-0.006205358672019722,-0.029019557009153422,0.02476,0.009640000000000001,0.00021000000000000004,1.5214,0.3435,-10.0318,3.9771320682063673,8.896605808653552,11.59999942779541,11.010000228881836,11.170000076293945,11.119999885559082,9.419306487364599,8.940221698054161,9.070143049351387,9.029542433472919,9.114803417060767,0.024525938666966438,-10.90000057220459,27.075000762939453,0.0,0.0,0.0,0.0,0.0,snow covered,0.250752389431,-8.86382484436035,100.0,456.929077148438
arenacam6_1769615777161991524.png,1769615777161991524,1769615777.1619914,42.300981857826734,-83.6977336316528,238.30026245117188,-0.014279680704743225,-0.9994587368377738,-0.0059573013377178345,-0.029031614463962033,0.021340000000000005,-0.009450000000000002,0.00111,1.4672,-0.8199000000000001,-10.301400000000001,4.020819964239766,8.994333010806502,12.389999389648438,11.010000228881836,11.34000015258789,11.25999927520752,10.060793740188904,8.940221698054161,9.208184678702773,9.143223228661824,9.338105836401915,0.03822104709514068,-11.100000381469727,26.700000762939453,0.0,0.0,0.0,0.0,0.0,snow covered,0.250752389431,-8.86382484436035,100.0,456.929077148438
arenacam6_1769615777182702625.png,1769615777182702625,1769615777.1827025,42.30098186541501,-83.69773461995074,238.29820251464844,-0.014356733711107017,-0.9994568438000193,-0.006126489702570565,-0.029023571495880477,-0.03184000000000001,0.007440000000000001,0.007030000000000001,1.0158,-1.6815,-9.9407,4.048782124976889,9.056882686645803,12.219999313354492,11.539999961853027,11.399999618530273,11.399999618530273,9.922752110837518,9.370586367824306,9.256904798243067,9.256904798243067,9.45178701878699,0.043602677190846775,-11.300000190734863,26.80000114440918,0.0,0.0,0.0,0.0,0.0,snow covered,0.250752389431,-8.86382484436035,100.0,456.929077148438
arenacam6_1769615777204117094.png,1769615777204117094,1769615777.204117,42.300981876156264,-83.69773561326302,238.29605102539062,-0.014518880386382882,-0.9994450536035149,-0.007176775290518498,-0.02910808884524213,-0.08135000000000002,-0.030790000000000005,0.01729,2.075,-0.6711,-9.398,4.135932994094233,9.251833951809154,11.239999771118164,11.519999504089355,11.469999313354492,11.479999542236328,9.12698344694584,9.354345811715985,9.313745195837516,9.321865473891679,9.279234982097755,0.002961686345791263,-11.40000057220459,26.700000762939453,0.0,0.0,0.0,0.0,0.0,snow covered,0.250752389431,-8.86382484436035,100.0,456.929077148438
arenacam6_1769615777224050540.png,1769615777224050540,1769615777.2240505,42.3009818823177,-83.6977366137575,238.29368591308594,-0.014628212736274515,-0.999435359888951,-0.007794539569122226,-0.029227075609612536,-0.047490000000000004,-0.00020000000000000004,0.012450000000000001,-0.3795,1.1373,-9.7261,4.146755664980265,9.276043617220955,11.809999465942383,11.5,11.670000076293945,11.559999465942383,9.58982845454029,9.33810603,9.476147659351389,9.38682614954029,9.447727073357992,0.018508263136916187,-11.600000381469727,26.575000762939453,0.0,0.0,0.0,0.0,0.0,snow covered,0.250752389431,-8.86382484436035,100.0,456.929077148438
arenacam6_1769615777244672473.png,1769615777244672473,1769615777.2446725,42.3009818845548,-83.69773763235511,238.29122924804688,-0.014775790832020574,-0.9994361076010598,-0.00819703659754392,-0.029016399148574564,-0.047290000000000006,0.0079,0.013960000000000002,2.9821,-2.3191,-10.138900000000001,4.199034099253311,9.392987337983701,11.619999885559082,11.6899995803833,11.75999927520752,11.719999313354492,9.435547043472921,9.49238744106737,9.549227838661823,9.516747500837518,9.498477456009908,0.011230731420197105,-11.800000190734863,26.700000762939453,0.0,0.0,0.0,0.0,0.0,snow covered,0.250752389431,-8.86382484436035,100.0,456.929077148438
arenacam6_1769615777286584949.png,1769615777286584949,1769615777.2865849,42.30098189271855,-83.69773967983895,238.28585815429688,-0.0152627567277131,-0.9994199925915733,-0.008922163846582547,-0.029105354449399615,0.0017000000000000001,0.024490000000000005,0.018850000000000002,0.9816,0.4456,-9.65,4.266992513071336,9.545006232189795,12.0,11.809999465942383,12.00999927520752,11.84000015258789,9.74411064,9.58982845454029,9.752230143661823,9.614189288702775,9.675089631726223,0.013628424788003982,-11.800000190734863,26.725000381469727,0.0,0.0,0.0,0.0,0.0,snow covered,0.250752389431,-8.86382484436035,100.0,456.929077148438
arenacam6_1769615777307179828.png,1769615777307179828,1769615777.3071797,42.30098189305547,-83.69774072693585,238.2830047607422,-0.01549424193384391,-0.9994153190464443,-0.009069897009583567,-0.029097860581577317,-0.023440000000000003,0.0004700000000000001,0.029360000000000004,1.9042000000000001,-1.1835,-9.52,4.316882809946675,9.656607832882115,12.059999465942383,11.899999618530273,12.059999465942383,11.949999809265137,9.79283075954029,9.662909408243065,9.79283075954029,9.703510024121533,9.738020237861294,0.008430745701607411,-11.699999809265137,26.75,0.0,0.0,0.0,0.0,0.0,snow covered,0.250752389431,-8.86382484436035,100.0,456.929077148438
arenacam6_1769615777327630971.png,1769615777327630971,1769615777.3276308,42.300981903131486,-83.69774177137958,238.2799530029297,-0.01586998640559334,-0.99940171151333,-0.009301023623212163,-0.029289136471964374,-0.016330000000000004,-0.021650000000000003,0.03730000000000001,0.3662,1.6043,-9.4509,4.352480953941052,9.736238745108897,12.25,12.09999942779541,12.130000114440918,12.039999961853027,9.947112945,9.825311097364597,9.84967193152708,9.776590977824307,9.849671737928997,0.011650596887538703,-11.40000057220459,26.825000762939453,0.0,0.0,0.0,0.0,0.0,snow covered,0.250752389431,-8.86382484436035,100.0,456.929077148438
arenacam6_1769615777349170089.png,1769615777349170089,1769615777.3491702,42.300981903462706,-83.69774283153733,238.27699279785156,-0.01606375782124847,-0.9994021179833372,-0.009310941571894533,-0.029166223994965396,-0.0019500000000000003,0.0036300000000000004,0.016290000000000002,1.3860000000000001,-0.0874,-9.587900000000001,4.385381421033831,9.809835115967418,12.34999942779541,12.269999504089355,12.289999961853027,12.139999389648438,10.028313402364597,9.963352726715986,9.979593282824307,9.857791435188904,9.95726271177345,0.015028549824049903,-11.300000190734863,26.875,0.0,0.0,0.0,0.0,0.0,snow covered,0.250752389431,-8.86382484436035,100.0,456.929077148438
arenacam6_1769615777368962620.png,1769615777368962620,1769615777.3689625,42.30098191106026,-83.69774390779574,238.2738494873047,-0.01635166732426463,-0.999395429489357,-0.009406800403223397,-0.029204633154248125,-0.008180000000000002,-0.01566,0.028270000000000003,2.2393,0.5637,-10.705,4.438514820454057,9.9286913424665,12.40999984741211,12.300000190734863,12.34999942779541,12.25999927520752,10.077034296297228,9.987713560878468,10.028313402364597,9.955232448661823,10.01207342705053,0.00839809414030138,-10.90000057220459,26.899999618530273,0.0,0.0,0.0,0.0,0.0,snow covered,0.250752389431,-8.86382484436035,100.0,456.929077148438
arenacam6_1769615777389784478.png,1769615777389784478,1769615777.3897846,42.30098192025749,-83.69774497820727,238.2705078125,-0.01661252962074311,-0.999387990743363,-0.00954796856467888,-0.029266091536652456,-0.014360000000000001,0.0039900000000000005,0.019180000000000003,0.619,0.7250000000000001,-9.766200000000001,4.463904261133528,9.985485997900033,12.50999927520752,12.519999504089355,12.609999656677246,12.460000038146973,10.158234753661825,10.166355031715984,10.23943598541876,10.117634912175694,10.170415170743066,0.018519796921444148,-10.5,26.899999618530273,0.0,0.0,0.0,0.0,0.0,snow covered,0.250752389431,-8.86382484436035,100.0,456.929077148438
arenacam6_1769615777410360937.png,1769615777410360937,1769615777.4103608,42.30098192681448,-83.69774606606086,238.26742553710938,-0.016810144846459152,-0.9993865708029792,-0.009659371003741823,-0.0291650078127033,-0.008820000000000001,0.01093,0.023530000000000002,2.1385,0.6308,-9.8338,4.504392259916305,10.07605522189718,12.710000038146973,12.529999732971191,12.6899995803833,12.579999923706055,10.320637217175694,10.174475309770145,10.304396661067372,10.215075925648613,10.253646278415456,0.017625057883003344,-9.90000057220459,27.100000381469727,0.0,0.0,0.0,0.0,0.0,snow covered,0.250752389431,-8.86382484436035,100.0,456.929077148438
arenacam6_1769615777431075672.png,1769615777431075672,1769615777.4310756,42.300981939112056,-83.69774716840297,238.2641143798828,-0.017018571688974027,-0.9993777015132328,-0.009826342234390667,-0.02929199436855581,-0.022800000000000004,-0.010400000000000001,0.017790000000000004,0.9961000000000001,0.0821,-9.7849,4.546932593456258,10.171215395606044,12.819999694824219,12.679999351501465,12.719999313354492,12.65999984741211,10.409957952594452,10.29627638301321,10.328756720837516,10.280036601297226,10.328756914435601,0.015488957091363442,-9.40000057220459,26.80000114440918,0.0,0.0,0.0,0.0,0.0,snow covered,0.250752389431,-8.86382484436035,100.0,456.929077148438
arenacam6_1769615777452533659.png,1769615777452533659,1769615777.4525337,42.3009819534668,-83.69774826750492,238.26071166992188,-0.017253676314264332,-0.9993726187579499,-0.010030855937273462,-0.02925852798220661,-0.015020000000000002,0.00759,0.026770000000000006,0.5386000000000001,1.6447,-9.3597,4.5692665690687155,10.221175159012573,12.84000015258789,12.739999771118164,12.729999542236328,13.049999237060547,10.426198508702774,10.34499727694584,10.336876998891679,10.59671970148613,10.426198121506605,0.020058648766355647,-8.699999809265137,27.075000762939453,0.0,0.0,0.0,0.0,0.0,snow covered,0.250752389431,-8.86382484436035,100.0,456.929077148438
arenacam6_1769615777472543451.png,1769615777472543451,1769615777.4725435,42.30098196771712,-83.69774938244097,238.25750732421875,-0.017433066543398212,-0.9993732075673395,-0.009845012158662188,-0.029195135263538233,0.02706,0.004480000000000001,0.0050100000000000006,1.477,0.5631,-9.3709,4.639753322401401,10.378849797012592,12.90999984741211,12.859999656677246,13.00999927520752,12.929999351501465,10.483038906297226,10.442438290418758,10.564239363661825,10.499278688013211,10.497248812097755,0.011407720258100565,-7.900000095367432,27.075000762939453,0.0,0.0,0.0,0.0,0.0,snow covered,0.250752389431,-8.86382484436035,100.0,456.929077148438
arenacam6_1769615777493304097.png,1769615777493304097,1769615777.493304,42.30098199059166,-83.69775050822736,238.2537078857422,-0.01752424248919149,-0.9993787984740055,-0.00954692359448783,-0.029047793990496684,0.028020000000000003,0.03413000000000001,0.009270000000000002,1.0763,0.029400000000000003,-9.8919,4.663276358026539,10.431469416323887,12.979999542236328,12.979999542236328,13.199999809265137,13.09999942779541,10.539879303891679,10.539879303891679,10.718521549121533,10.637320317364598,10.608900118567373,0.017009176287842046,-7.200000286102295,27.075000762939453,0.0,0.0,0.0,0.0,0.0,snow covered,0.250752389431,-8.86382484436035,100.0,456.929077148438
arenacam6_1769615777513641070.png,1769615777513641070,1769615777.5136409,42.30098201449108,-83.69775163765425,238.2501220703125,-0.017639224692045263,-0.9993847891113858,-0.009226159590800816,-0.028875232020873682,0.035140000000000005,0.030400000000000003,0.010770000000000002,1.4885000000000002,1.0103,-8.8247,4.704450651906879,10.523573841276574,13.109999656677246,13.09999942779541,13.210000038146973,13.179999351501465,10.645440595418759,10.637320317364598,10.726641827175694,10.702280993013211,10.677920933243065,0.014666794217863124,-6.200000286102295,27.225000381469727,0.0,0.0,0.0,0.0,0.0,snow covered,0.250752389431,-8.86382484436035,100.0,456.929077148438
arenacam6_1769615777534730730.png,1769615777534730730,1769615777.5347307,42.30098203599437,-83.69775277576046,238.24609375,-0.017753880215722495,-0.999394877092188,-0.008757495492573231,-0.028600448455818297,0.05006000000000001,0.0362,0.007810000000000001,0.895,0.27140000000000003,-8.0678,4.737344397930746,10.597155177507204,13.229999542236328,13.179999351501465,13.329999923706055,13.489999771118164,10.742881608891679,10.702280993013211,10.824082840648614,10.954004191945838,10.805812408624835,0.019689928817925778,-5.0,27.25,0.0,0.0,0.0,0.0,0.0,snow covered,0.250752389431,-8.86382484436035,100.0,456.929077148438
arenacam6_1769615777555718266.png,1769615777555718266,1769615777.5557182,42.30098206309073,-83.69775392787517,238.2411651611328,-0.01787024212914784,-0.999405214358048,-0.008337923331962059,-0.028290475335353265,0.04318000000000001,0.026210000000000004,0.012820000000000003,0.7665000000000001,1.0993,-8.2238,4.772433704223656,10.675647850326065,13.34999942779541,13.380000114440918,13.420000076293945,13.529999732971191,10.840322622364598,10.86468345652708,10.897163794351389,10.986484529770147,10.897163600753304,0.020749630704657702,-4.200000286102295,27.375,0.0,0.0,0.0,0.0,0.0,snow covered,0.250752389431,-8.86382484436035,100.0,456.929077148438
arenacam6_1769615777597004601.png,1769615777597004601,1769615777.5970047,42.30098211799666,-83.69775624374621,238.23097229003906,-0.0179544355744356,-0.999430950588522,-0.007538861356738811,-0.027542309604867855,0.024070000000000005,0.016760000000000004,0.007020000000000001,1.2784,-0.2165,-11.5556,4.847809555258009,10.844259106538852,13.649999618530273,13.639999389648438,13.559999465942383,13.630000114440918,11.083925543243065,11.075805265188903,11.01084458954029,11.06768576152708,11.059565289874834,0.019854393114432125,-2.799999952316284,27.875,0.0,0.0,0.0,0.0,0.0,snow covered,0.250752389431,-8.86382484436035,100.0,456.929077148438
arenacam6_1769615777638312451.png,1769615777638312451,1769615777.6383123,42.30098220423764,-83.6977597921004,238.21644592285156,-0.018026997396569766,-0.9994486516509484,-0.0066910642517350495,-0.0270675033415373,0.03803,0.003940000000000001,-0.0066900000000000015,1.6622000000000001,-1.1443,-11.4543,4.926568282110143,11.020437652983464,13.809999465942383,13.829999923706055,13.779999732971191,13.6899995803833,11.213846894540291,11.230087450648613,11.189486834770145,11.11640588106737,11.187456765256606,0.015155397410911908,-1.5,27.975000381469727,0.0,0.0,0.0,0.0,0.0,snow covered,0.250752389431,-8.86382484436035,100.0,456.929077148438
arenacam6_1769615777658735433.png,1769615777658735433,1769615777.6587353,42.300982234944925,-83.69776099812069,238.21263122558594,-0.01810017499970512,-0.9994498880958873,-0.006530777506961516,-0.02701210460614258,0.014220000000000002,-0.00525,0.006060000000000001,1.3885,0.3534,-11.1845,4.961867677746041,11.09940028305723,13.90999984741211,13.829999923706055,13.869999885559082,13.84000015258789,11.295048126297226,11.230087450648613,11.26256778847292,11.238207728702776,11.256477773530383,0.014151889873989418,-1.0,28.225000381469727,0.0,0.0,0.0,0.0,0.0,snow covered,0.250752389431,-8.86382484436035,100.0,456.929077148438
arenacam6_1769615777679345953.png,1769615777679345953,1769615777.6793458,42.300982261909574,-83.6977622071941,238.20880126953125,-0.018068358495717085,-0.9994529784643975,-0.006234843669100931,-0.026988978942094222,0.030790000000000005,0.00144,-0.0059900000000000005,1.7423000000000002,0.0708,-11.0653,5.000713814072858,11.18629675925214,13.929999351501465,14.09999942779541,13.90999984741211,13.859999656677246,11.311287908013211,11.449329537364598,11.295048126297226,11.254447510418759,11.327528270523448,0.01262540359073662,-0.6000000238418579,28.524999618530273,0.0,0.0,0.0,0.0,0.0,snow covered,0.250752389431,-8.86382484436035,100.0,456.929077148438
arenacam6_1769615777700126923.png,1769615777700126923,1769615777.700127,42.30098228772283,-83.69776342722491,238.20584106445312,-0.018046592313191168,-0.9994527174579602,-0.006001213725593528,-0.027066058183646786,0.01999,-0.012490000000000003,-0.0014000000000000002,1.2064000000000001,-0.27940000000000004,-10.560500000000001,5.0371515867218815,11.267805870401647,14.139999389648438,13.960000038146973,13.989999771118164,13.969999313354492,11.481809875188905,11.335648742175692,11.36000880194584,11.343768245837518,11.380308916286989,0.009984467888363767,-0.30000001192092896,28.975000381469727,0.0,0.0,0.0,0.0,0.0,snow covered,0.250752389431,-8.86382484436035,100.0,456.929077148438
arenacam6_1769615777720879355.png,1769615777720879355,1769615777.7208793,42.30098231540845,-83.69776466215212,238.20333862304688,-0.018010619895680535,-0.9994494904060027,-0.005783867170537154,-0.027255835681708303,0.021660000000000002,-0.020770000000000004,-0.008820000000000001,1.4341000000000002,-0.1562,-11.6797,5.0758673910240875,11.354410801677423,14.049999237060547,14.059999465942383,14.170000076293945,14.139999389648438,11.40872892148613,11.416849199540291,11.506170709351387,11.481809875188905,11.453389676391676,0.008717218043549317,-0.10000000149011612,29.450000762939453,0.0,0.0,0.0,0.0,0.0,snow covered,0.250752389431,-8.86382484436035,100.0,456.929077148438
arenacam6_1769615777741607635.png,1769615777741607635,1769615777.7416077,42.300982342862994,-83.6977658972997,238.2006378173828,-0.01795135885591792,-0.999444663715628,-0.005620527914341825,-0.027504955036231734,0.013890000000000003,-0.029180000000000005,-0.00395,1.0472000000000001,-0.41490000000000005,-10.802000000000001,5.108531061771082,11.427477473318204,14.289999961853027,14.1899995803833,14.25,14.229999542236328,11.603611722824308,11.522410491067372,11.571131385000001,11.554890828891677,11.56301110694584,0.011860328225900347,0.10000000149011612,30.149999618530273,0.0,0.0,0.0,0.0,0.0,snow covered,0.250752389431,-8.86382484436035,100.0,456.929077148438
arenacam6_1769615777762259741.png,1769615777762259741,1769615777.7622597,42.30098236346901,-83.69776714448568,238.19882202148438,-0.017872072375395065,-0.999434625419456,-0.005504783246086128,-0.02794129386936173,-0.00143,-0.030140000000000004,-0.006370000000000001,0.8785000000000001,-0.5116,-10.0228,5.16172926295648,11.546478657477868,14.289999961853027,14.210000038146973,14.469999313354492,14.319999694824219,11.603611722824308,11.538651047175694,11.749772855837517,11.627971782594452,11.630001852107993,0.007233650804527546,0.20000000298023224,30.30000114440918,0.0,0.0,0.0,0.0,0.0,snow covered,0.250752389431,-8.86382484436035,100.0,456.929077148438
arenacam6_1769615777783409043.png,1769615777783409043,1769615777.783409,42.300982384887455,-83.69776840396234,238.19683837890625,-0.017877042369671636,-0.9994309366438441,-0.005509289457065986,-0.02806887894091259,-0.00185,-0.025380000000000003,-0.0013200000000000002,0.9006000000000001,-0.3433,-10.159,5.190787681753596,11.61148059682189,14.219999313354492,14.319999694824219,14.769999504089355,14.40999984741211,11.546770550837518,11.627971782594452,11.993375776715984,11.701052736297227,11.717292711611297,0.009112715119066545,0.4000000059604645,30.600000381469727,0.0,0.0,0.0,0.0,0.0,snow covered,0.250752389431,-8.86382484436035,100.0,456.929077148438
arenacam6_1769615777803392310.png,1769615777803392310,1769615777.8033922,42.30098240186277,-83.6977696664421,238.1949462890625,-0.01781648899176752,-0.999425178357003,-0.005618311526038011,-0.02828993039361224,-0.019300000000000005,-0.021080000000000005,-0.008870000000000001,1.5511000000000001,-1.6469,-9.9305,5.223810713946606,11.685351138455722,14.549999237060547,14.380000114440918,14.929999351501465,14.380000114440918,11.81473353148613,11.67669267652708,12.123297128013212,11.67669267652708,11.822854003138376,0.011767114488339255,0.5,30.450000762939453,0.0,0.0,0.0,0.0,0.0,snow covered,0.250752389431,-8.86382484436035,100.0,456.929077148438
arenacam6_1769615777824992320.png,1769615777824992320,1769615777.8249922,42.300982411587924,-83.69777093636897,238.19300842285156,-0.01789389915615397,-0.9994122660836002,-0.006645637229582847,-0.028473957934311258,-0.09246000000000001,0.00969,0.013090000000000001,0.8052,-0.6945,-9.1937,5.246267265574047,11.735585097053209,14.649999618530273,14.40999984741211,14.949999809265137,14.960000038146973,11.895934763243066,11.701052736297227,12.139537684121532,12.147657962175694,11.97104578645938,0.02006382191078781,0.6000000238418579,30.375,0.0,0.0,0.0,0.0,0.0,snow covered,0.250752389431,-8.86382484436035,100.0,456.929077148438
arenacam6_1769615777844830174.png,1769615777844830174,1769615777.8448303,42.30098242273776,-83.69777222133332,238.1905975341797,-0.01798684994429417,-0.9994026333859971,-0.007406974657139832,-0.028565474556601935,-0.06212000000000001,-0.007960000000000002,0.013700000000000002,1.4304000000000001,1.4009,-9.6221,5.288405675594302,11.82984619196392,14.739999771118164,14.609999656677246,14.920000076293945,14.6899995803833,11.96901571694584,11.863454425418759,12.115177624351388,11.928415101067372,11.96901571694584,0.011764271717789421,0.6000000238418579,30.200000762939453,0.0,0.0,0.0,0.0,0.0,snow covered,0.250752389431,-8.86382484436035,100.0,456.929077148438
arenacam6_1769615777907288992.png,1769615777907288992,1769615777.907289,42.3009824411245,-83.69777610475411,238.18214416503906,-0.01813955947938667,-0.9993914819869631,-0.009242758720633364,-0.02832302111406133,-0.01561,-0.009060000000000002,-0.005450000000000001,1.5473000000000001,0.6981,-9.3337,5.3878462161330924,12.052288714716761,15.00999927520752,15.089999198913574,14.929999351501465,15.039999961853027,12.188257803661823,12.253218479310437,12.123297128013212,12.212618637824306,12.194348012202445,0.011786914572683493,0.6000000238418579,30.375,0.0,0.0,0.0,0.0,0.0,snow covered,0.250752389431,-8.86382484436035,100.0,456.929077148438
arenacam6_1769615777927882203.png,1769615777927882203,1769615777.9278822,42.300982441167406,-83.69777741235457,238.1790771484375,-0.018108567706093537,-0.9993924827750171,-0.00959880472310306,-0.028188793807267954,-0.04351000000000001,-0.004190000000000001,0.005350000000000001,0.0213,0.22820000000000001,-9.1569,5.412501750334992,12.107441665394358,15.289999961853027,15.139999389648438,14.920000076293945,15.15999984741211,12.415620942824306,12.293819095188905,12.115177624351388,12.310059651297227,12.283669328415456,0.01455531795166889,0.6000000238418579,30.5,0.0,0.0,0.0,0.0,0.0,snow covered,0.250752389431,-8.86382484436035,100.0,456.929077148438
arenacam6_1769615777948442849.png,1769615777948442849,1769615777.948443,42.300982449119296,-83.69777873174829,238.17578125,-0.018188351654795043,-0.9993965614117213,-0.009863303565880619,-0.02790003844579188,-0.018490000000000003,0.0051600000000000005,0.0008200000000000001,1.8391000000000002,1.5630000000000002,-9.0261,5.453146590941426,12.198361735140514,15.389999389648438,15.25999927520752,15.269999504089355,15.309999465942383,12.496821400188903,12.391260108661823,12.399380386715984,12.431860724540291,12.42983065502675,0.018975410379857026,0.6000000238418579,30.600000381469727,0.0,0.0,0.0,0.0,0.0,snow covered,0.250752389431,-8.86382484436035,100.0,456.929077148438
arenacam6_1769615777969123346.png,1769615777969123346,1769615777.9691234,42.3009824633534,-83.69778006351788,238.17176818847656,-0.018117434709026492,-0.9994047477915451,-0.009899200926860363,-0.02763900273693248,-0.00024,0.01729,-0.006440000000000001,0.5985,1.0141,-8.1433,5.486999672878692,12.274089048249262,15.469999313354492,15.329999923706055,15.34999942779541,15.359999656677246,12.561782075837517,12.448101280648613,12.464341062364598,12.472461340418759,12.486671439817371,0.017319606427202105,0.6000000238418579,30.350000381469727,0.0,0.0,0.0,0.0,0.0,snow covered,0.250752389431,-8.86382484436035,100.0,456.929077148438
arenacam6_1769615777989772143.png,1769615777989772143,1769615777.989772,42.30098247393276,-83.69778139719807,238.16818237304688,-0.01812703801844573,-0.9994109850310295,-0.009966262156536718,-0.027381875586093212,-0.01742,0.016840000000000004,-0.0013300000000000002,1.5317,0.016,-9.534600000000001,5.525718911832062,12.360701662633613,15.460000038146973,15.559999465942383,15.489999771118164,15.449999809265137,12.553662572175694,12.634863029540291,12.578022631945839,12.545542294121534,12.578022631945839,0.017581604608190412,0.6000000238418579,30.75,0.0,0.0,0.0,0.0,0.0,snow covered,0.250752389431,-8.86382484436035,100.0,456.929077148438
arenacam6_1769615778010422074.png,1769615778010422074,1769615778.010422,42.3009824877808,-83.69778273838833,238.16407775878906,-0.018094903553156405,-0.9994170692038942,-0.01018630244283033,-0.027098625275900064,-0.014070000000000003,0.03608000000000001,-0.0034900000000000005,0.1673,2.0932,-7.995900000000001,5.554730930855338,12.42559980846754,15.399999618530273,15.639999389648438,15.519999504089355,15.639999389648438,12.504941678243066,12.699823705188903,12.602382691715986,12.699823705188903,12.626742945084215,0.016187800968739112,0.699999988079071,30.950000762939453,0.0,0.0,0.0,0.0,0.0,snow covered,0.250752389431,-8.86382484436035,100.0,456.929077148438
arenacam6_1769615778031170763.png,1769615778031170763,1769615778.0311708,42.3009825081382,-83.69778409459528,238.1596221923828,-0.01803754572203109,-0.999426549820368,-0.010100244656570119,-0.02681797002680186,0.012480000000000002,0.026420000000000003,-0.012160000000000002,1.1536,0.8627,-9.2233,5.590520051758308,12.505657924580229,15.719999313354492,15.789999961853027,15.559999465942383,15.719999313354492,12.764784380837519,12.821625552824306,12.634863029540291,12.764784380837519,12.74651433600991,0.019259795276845876,0.9000000357627869,30.825000762939453,0.0,0.0,0.0,0.0,0.0,snow covered,0.250752389431,-8.86382484436035,100.0,456.929077148438
arenacam6_1769615778051900152.png,1769615778051900152,1769615778.0519001,42.30098252580376,-83.69778544915862,238.15524291992188,-0.017925619807716675,-0.9994396589798464,-0.010026103678645419,-0.026429480845874615,0.007970000000000001,0.06272000000000001,-0.006660000000000001,0.5297000000000001,0.44470000000000004,-9.8381,5.6117792219737535,12.553213412801968,16.279998779296875,15.979999542236328,15.809999465942383,15.84999942779541,13.219509110377807,12.975906963891678,12.837865334540291,12.870345672364598,12.975906770293594,0.03367212390897113,1.0,30.825000762939453,0.0,0.0,0.0,0.0,0.0,snow covered,0.250752389431,-8.86382484436035,100.0,456.929077148438
arenacam6_1769615778072542796.png,1769615778072542796,1769615778.0725427,42.300982544155886,-83.69778681878952,238.15106201171875,-0.01785038584546672,-0.9994484604437792,-0.01002940539036688,-0.02614478283029331,-0.0018900000000000002,0.030700000000000005,-0.0105,2.9849,-0.1449,-10.372200000000001,5.673663715024248,12.691645310686342,15.65999984741211,16.0,15.84999942779541,15.899999618530273,12.716064261297227,12.99214752,12.870345672364598,12.910946288243066,12.872375935476223,0.014240125717798459,1.0,30.850000381469727,0.0,0.0,0.0,0.0,0.0,snow covered,0.250752389431,-8.86382484436035,100.0,456.929077148438
arenacam6_1769615778092957780.png,1769615778092957780,1769615778.0929577,42.30098256830495,-83.69778820168435,238.14678955078125,-0.017814266028245762,-0.9994515764004355,-0.0100175367894703,-0.026054698486664012,0.0032800000000000004,0.029370000000000004,-0.0021600000000000005,-0.08700000000000001,0.8209000000000001,-10.479600000000001,5.690556218363836,12.7294328271068,15.789999961853027,16.209999084472656,16.010000228881836,16.079999923706055,12.821625552824306,13.162668712783356,13.00026779805416,13.057108195648613,13.010417564827609,0.02207362586669719,1.399999976158142,30.92500114440918,0.0,0.0,0.0,0.0,0.0,snow covered,0.250752389431,-8.86382484436035,100.0,456.929077148438
arenacam6_1769615778113780995.png,1769615778113780995,1769615778.113781,42.300982593057164,-83.6977895890725,238.1425018310547,-0.017652391961880842,-0.9994635789195792,-0.00976266578847716,-0.025799957906804855,0.03363000000000001,0.041400000000000006,-0.022940000000000002,1.4696,0.43460000000000004,-10.5417,5.718317849657127,12.791533930612013,15.949999809265137,16.119998931884766,16.079999923706055,16.1299991607666,12.951546904121534,13.089587759080583,13.057108195648613,13.097708037134742,13.048987723996367,0.020126889767944803,1.3000000715255737,31.325000762939453,0.0,0.0,0.0,0.0,0.0,snow covered,0.250752389431,-8.86382484436035,100.0,456.929077148438
arenacam6_1769615778134608785.png,1769615778134608785,1769615778.134609,42.30098261775334,-83.69779097611624,238.13851928710938,-0.017530333904106132,-0.9994809657808799,-0.009209919478062165,-0.02540991574440148,0.04138000000000001,0.03046,-0.011480000000000002,0.0239,0.9575,-9.2087,5.74954855622764,12.861395147367858,16.469999313354492,15.969999313354492,16.170000076293945,16.219999313354492,13.373791295837517,12.967786685837519,13.130189149351388,13.170788990837517,13.160639030465985,0.02326682911685272,1.3000000715255737,32.17499923706055,0.0,0.0,0.0,0.0,0.0,snow covered,0.250752389431,-8.86382484436035,100.0,456.929077148438
arenacam6_1769615778155459216.png,1769615778155459216,1769615778.1554594,42.30098264820621,-83.6977923732672,238.13433837890625,-0.017421554965723174,-0.9995027281249148,-0.00862422262740932,-0.0248275789698063,0.06638000000000001,0.07633000000000001,-0.009590000000000001,-0.33230000000000004,0.3296,-9.718300000000001,5.752880889905909,12.868849377866125,16.81999969482422,16.779998779296875,16.299999237060547,16.399999618530273,13.657994832594452,13.625513720377807,13.23574966648613,13.316950898243064,13.459052279425363,0.045862911611535495,1.100000023841858,33.45000076293945,0.0,0.0,0.0,0.0,0.0,snow covered,0.250752389431,-8.86382484436035,100.0,456.929077148438
arenacam6_1769615778176234856.png,1769615778176234856,1769615778.1762347,42.30098267629807,-83.6977937739364,238.1302947998047,-0.017287914347377087,-0.9995261127650189,-0.008129814545497943,-0.024136777618900627,0.03869000000000001,0.07085000000000001,-0.02074,2.2430000000000003,-1.3221,-10.6553,5.796113852486815,12.965558921181858,17.219999313354492,16.85999870300293,16.279998779296875,16.369998931884766,13.982798210837517,13.690474396026422,13.219509110377807,13.292590064080583,13.546342945330583,0.044794368501916045,1.100000023841858,34.625,0.0,0.0,0.0,0.0,0.0,snow covered,0.250752389431,-8.86382484436035,100.0,456.929077148438
arenacam6_1769615778217576010.png,1769615778217576010,1769615778.217576,42.30098275854307,-83.69779801123589,238.1187286376953,-0.01703218661943845,-0.9995633036883215,-0.007596773129289708,-0.0229215090400099,0.036160000000000005,0.07601000000000001,-0.015880000000000002,0.7355,0.49310000000000004,-10.051,5.836591069806766,13.056104027693548,17.10999870300293,17.049999237060547,16.479999542236328,16.459999084472656,13.89347670102642,13.844756581486129,13.381911573891678,13.365671017783358,13.621453968546895,0.04330158059817632,0.800000011920929,35.47500228881836,0.0,0.0,0.0,0.0,0.0,snow covered,0.250752389431,-8.86382484436035,100.0,456.929077148438
arenacam6_1769615778237984335.png,1769615778237984335,1769615778.2379842,42.300982783207104,-83.69779943421133,238.1154022216797,-0.01686156182577586,-0.9995859175255304,-0.007332045991424659,-0.022134188917112642,0.020440000000000003,0.06507,-0.018580000000000003,1.5739,-0.5700000000000001,-9.8476,5.876217342659392,13.144745622488502,17.010000228881836,17.139999389648438,16.68000030517578,16.600000381469727,13.812277018054163,13.917837535188903,13.544314037405549,13.479353361756935,13.688445488101387,0.041362524709698714,0.800000011920929,35.25,0.0,0.0,0.0,0.0,0.0,snow covered,0.250752389431,-8.86382484436035,100.0,456.929077148438
arenacam6_1769615778258735371.png,1769615778258735371,1769615778.2587354,42.30098281158908,-83.69780087061896,238.112060546875,-0.016775643655870864,-0.999604276041624,-0.007145401700337573,-0.021419905083190815,0.02415,0.07095000000000001,-0.006240000000000001,0.3265,1.062,-9.6094,5.901552381124019,13.201418583431565,17.100000381469727,17.10999870300293,16.940000534057617,16.81999969482422,13.885357971756937,13.89347670102642,13.75543662045971,13.657994832594452,13.79806653145938,0.04519574500702812,0.800000011920929,35.32500076293945,0.0,0.0,0.0,0.0,0.0,snow covered,0.250752389431,-8.86382484436035,100.0,456.929077148438
arenacam6_1769615778279414094.png,1769615778279414094,1769615778.279414,42.300982833590915,-83.69780231319837,238.10874938964844,-0.016619547499664877,-0.9996293844576778,-0.006638491785967535,-0.02051377089854693,0.05870000000000001,0.09977000000000001,-0.019530000000000002,1.3255000000000001,-0.5369,-9.5356,5.930183620807201,13.26546494872846,17.440000534057617,17.229999542236328,17.0,17.020000457763672,14.161441230459708,13.990918488891678,13.80415674,13.820397296108322,13.94422843886493,0.05116771200707368,0.699999988079071,35.04999923706055,0.0,0.0,0.0,0.0,0.0,snow covered,0.250752389431,-8.86382484436035,100.0,456.929077148438
arenacam6_1769615778300534125.png,1769615778300534125,1769615778.300534,42.30098285517297,-83.69780376097752,238.10574340820312,-0.01652452423084788,-0.9996488874497285,-0.006341556276848685,-0.01971868614922815,0.020280000000000003,0.081,-0.0041,2.3525,-1.7637,-11.079500000000001,5.981162896384978,13.379502529439414,17.510000228881836,17.549999237060547,17.10999870300293,16.920000076293945,14.21828162805416,14.25076119148613,13.89347670102642,13.739196064351386,14.025428896229524,0.048277308171126306,0.699999988079071,35.17499923706055,0.0,0.0,0.0,0.0,0.0,snow covered,0.250752389431,-8.86382484436035,100.0,456.929077148438
arenacam6_1769615778320749267.png,1769615778320749267,1769615778.3207493,42.30098287566537,-83.69780522715098,238.10240173339844,-0.01651578294609729,-0.9996617528184772,-0.006223718162570631,-0.01910168049674712,0.010460000000000002,0.06622000000000001,-0.00135,1.2395,-0.24100000000000002,-10.5395,6.01689085187554,13.459423822194472,17.520000457763672,17.69999885559082,17.149999618530273,17.19999885559082,14.226401906108324,14.372562264729195,13.925957813243066,13.966557654729193,14.122869909702445,0.049292309706003616,0.6000000238418579,34.95000076293945,0.0,0.0,0.0,0.0,0.0,snow covered,0.250752389431,-8.86382484436035,100.0,456.929077148438
arenacam6_1769615778341447734.png,1769615778341447734,1769615778.3414476,42.30098289359311,-83.6978066979562,238.09898376464844,-0.01647742645969602,-0.9996763056711688,-0.006204873448313944,-0.018365125711505472,-0.0011400000000000002,0.05967000000000001,-0.005520000000000001,1.8253000000000001,-0.5938,-9.4384,6.055901955981094,13.546689321412348,17.59000015258789,17.719999313354492,17.100000381469727,17.10999870300293,14.283242303702774,14.388802820837519,13.885357971756937,13.89347670102642,14.112719949330913,0.04178368710529722,0.5,35.04999923706055,0.0,0.0,0.0,0.0,0.0,snow covered,0.250752389431,-8.86382484436035,100.0,456.929077148438
arenacam6_1769615778362129779.png,1769615778362129779,1769615778.3621297,42.30098290820997,-83.6978081742092,238.09622192382812,-0.01651401910659811,-0.9996858840441032,-0.006362593249226103,-0.017746487625771405,-0.019010000000000003,0.05061000000000001,0.005490000000000001,1.2448000000000001,0.08710000000000001,-9.5432,6.097684527240107,13.640154426364486,17.600000381469727,17.489999771118164,17.260000228881836,17.279998779296875,14.291362581756935,14.202041071945839,14.01527932305416,14.031518330377809,14.135050326783686,0.036282279873799415,0.5,34.85000228881836,0.0,0.0,0.0,0.0,0.0,snow covered,0.250752389431,-8.86382484436035,100.0,456.929077148438
arenacam6_1769615778382883204.png,1769615778382883204,1769615778.3828833,42.300982920732736,-83.69780966777172,238.09263610839844,-0.0165453090881984,-0.999702805401457,-0.0068789552995257176,-0.016529778994877616,-0.04570000000000001,0.08976000000000002,0.0031300000000000004,1.5655000000000001,-0.7325,-9.0286,6.146617020571926,13.749613477998166,17.639999389648438,17.65999984741211,17.44999885559082,17.399999618530273,14.323842145188904,14.340082701297225,14.169559959729195,14.128960118243066,14.240611231114597,0.03570993133022361,0.20000000298023224,34.85000228881836,0.0,0.0,0.0,0.0,0.0,snow covered,0.250752389431,-8.86382484436035,100.0,456.929077148438
arenacam6_1769615778403422493.png,1769615778403422493,1769615778.4034224,42.300982933479354,-83.69781116734225,238.08944702148438,-0.0165945810903379,-0.9997091790297571,-0.007500206851903898,-0.01580898919171934,-0.06488000000000001,0.054110000000000005,0.00406,1.9514,0.12240000000000001,-9.7276,6.1995289175653,13.867974216858522,17.6299991607666,17.670000076293945,17.56999969482422,17.520000457763672,14.315721867134743,14.348202979351388,14.267001747594453,14.226401906108324,14.289332125047228,0.0303835226111456,0.10000000149011612,34.97500228881836,0.0,0.0,0.0,0.0,0.0,snow covered,0.250752389431,-8.86382484436035,100.0,456.929077148438
arenacam6_1769615778424157108.png,1769615778424157108,1769615778.4241571,42.30098294135788,-83.69781267315419,238.08651733398438,-0.016660371939623553,-0.9997144687396847,-0.008112844999193855,-0.01508624358091496,-0.056810000000000006,0.07686000000000001,0.009070000000000002,1.2622,0.2707,-9.7994,6.233628604255497,13.944253170003291,17.84000015258789,18.10999870300293,17.69999885559082,17.770000457763672,14.486244608702776,14.70548592102642,14.372562264729195,14.429404211108324,14.498424251391679,0.039741897585488045,-0.10000000149011612,34.85000228881836,0.0,0.0,0.0,0.0,0.0,snow covered,0.250752389431,-8.86382484436035,100.0,456.929077148438
arenacam6_1769615778444911191.png,1769615778444911191,1769615778.444911,42.30098295135463,-83.69781420008808,238.0830841064453,-0.01666759173082838,-0.9997200091048195,-0.008676142973306766,-0.014381214290201842,-0.05648000000000001,0.07428,0.0006100000000000001,2.7927,-0.5732,-10.2554,6.284012724959008,14.056959424969804,18.25,18.049999237060547,17.65999984741211,17.829999923706055,14.819168265,14.65676580148613,14.340082701297225,14.478124330648614,14.573535274607993,0.036748761522394334,-0.4000000059604645,34.67499923706055,0.0,0.0,0.0,0.0,0.0,snow covered,0.250752389431,-8.86382484436035,100.0,456.929077148438
arenacam6_1769615778486644560.png,1769615778486644560,1769615778.4866445,42.30098297440988,-83.69781726322343,238.07676696777344,-0.016743553487640173,-0.9997232670674557,-0.00951231579525866,-0.013511422900278982,-0.03558000000000001,0.0379,0.00412,1.2372,1.2996,-9.4315,6.36194444089066,14.231287997605955,18.10999870300293,18.60999870300293,17.989999771118164,17.85999870300293,14.70548592102642,15.111490531026423,14.60804568194584,14.50248361602642,14.731876437506276,0.0351752026931457,-0.5,34.70000076293945,0.0,0.0,0.0,0.0,0.0,snow covered,0.250752389431,-8.86382484436035,100.0,456.929077148438
arenacam6_1769615778507735815.png,1769615778507735815,1769615778.5077357,42.300982994548384,-83.69781881823536,238.07310485839844,-0.01677292636244543,-0.9997331563346217,-0.009351997202250556,-0.012838427270656632,0.036270000000000004,0.06916,-0.0033200000000000005,2.2317,1.6098000000000001,-8.694600000000001,6.402422705078367,14.321835445898003,18.459999084472656,18.28999900817871,18.010000228881836,18.170000076293945,14.989689457783356,14.85164782843197,14.624286238054161,14.754207589351388,14.80495777840522,0.03373326933773632,-0.5,34.54999923706055,0.0,0.0,0.0,0.0,0.0,snow covered,0.250752389431,-8.86382484436035,100.0,456.929077148438
arenacam6_1769615778527911639.png,1769615778527911639,1769615778.5279117,42.300983007989124,-83.69782037578624,238.06979370117188,-0.016749558547082988,-0.9997423341556763,-0.009015562572555973,-0.012386977716070408,0.029280000000000004,0.04791,0.0031400000000000004,1.3262,-0.6936,-10.514800000000001,6.44580935763643,14.418888784471237,18.389999389648438,18.459999084472656,18.119998931884766,18.229999542236328,14.932849060188905,14.989689457783356,14.713606199080584,14.802927708891678,14.859768106486131,0.03057651172743,-0.6000000238418579,34.79999923706055,0.0,0.0,0.0,0.0,0.0,snow covered,0.250752389431,-8.86382484436035,100.0,456.929077148438
arenacam6_1769615778548402126.png,1769615778548402126,1769615778.548402,42.30098302586914,-83.69782194142667,238.066650390625,-0.016801729574960622,-0.9997492666016827,-0.008910151486425696,-0.011820110539944136,0.00812,0.06171000000000001,0.0065000000000000014,1.6320000000000001,1.1817,-10.1714,6.476241465640559,14.486963584149994,18.229999542236328,18.75,18.5,18.28999900817871,14.802927708891678,15.225172875,15.02217057,14.85164782843197,14.975479745580913,0.03372108714108997,-0.6000000238418579,34.625,0.0,0.0,0.0,0.0,0.0,snow covered,0.250752389431,-8.86382484436035,100.0,456.929077148438
arenacam6_1769615778569057038.png,1769615778569057038,1769615778.569057,42.30098305186028,-83.69782352537825,238.06288146972656,-0.016766712301420794,-0.9997610346221157,-0.008458367800497893,-0.01118959445509369,0.05923000000000001,0.060300000000000006,-0.009520000000000002,2.4579,1.1599000000000002,-8.8971,6.523393061762221,14.592438875578383,18.520000457763672,18.619998931884766,18.440000534057617,18.459999084472656,15.038411126108322,15.119610809080582,14.97345045045971,14.989689457783356,15.030290460857993,0.03000537394831166,-0.6000000238418579,34.72500228881836,0.0,0.0,0.0,0.0,0.0,snow covered,0.250752389431,-8.86382484436035,100.0,456.929077148438
arenacam6_1769615778589819096.png,1769615778589819096,1769615778.5898192,42.30098307368893,-83.69782510545379,238.05873107910156,-0.016774458826691874,-0.9997709518612424,-0.007935808792223869,-0.010662283261573492,0.051570000000000005,0.05688000000000001,0.0038100000000000005,0.8281000000000001,0.6104,-9.603100000000001,6.556387647459605,14.66624578410829,18.719999313354492,18.59000015258789,18.3799991607666,18.529998779296875,15.200812040837517,15.095251523702775,14.924728782134743,15.046529855377807,15.06683055051321,0.027313381508918703,-0.6000000238418579,34.42499923706055,0.0,0.0,0.0,0.0,0.0,snow covered,0.250752389431,-8.86382484436035,100.0,456.929077148438
arenacam6_1769615778610676861.png,1769615778610676861,1769615778.6106768,42.300983100219725,-83.69782669853632,238.05563354492188,-0.01667821614616366,-0.999782303797611,-0.007449128480960338,-0.010084275095292965,0.05113000000000001,0.056810000000000006,-0.013390000000000003,1.5935000000000001,1.3853,-11.4246,6.586919425271148,14.734543539166044,19.170000076293945,18.84000015258789,18.69999885559082,18.459999084472656,15.566216809351387,15.298253828702775,15.184571484729195,14.989689457783356,15.259682895141678,0.03564001521864289,-0.6000000238418579,34.54999923706055,0.0,0.0,0.0,0.0,0.0,snow covered,0.250752389431,-8.86382484436035,100.0,456.929077148438
arenacam6_1769615778631155739.png,1769615778631155739,1769615778.6311557,42.3009831366199,-83.69782830613968,238.05230712890625,-0.01658001851656482,-0.9997932308774818,-0.006720148430529138,-0.00966633760159876,0.08174000000000001,0.029860000000000005,-0.015060000000000002,2.1173,0.5071,-11.9815,6.6309494291356845,14.833036016010778,19.420000076293945,18.8799991607666,18.81999969482422,18.729999542236328,15.769219114351388,15.330733392134745,15.282013272594453,15.20893231889168,15.397724524493068,0.03806965127521869,-0.5,34.17499923706055,0.0,0.0,0.0,0.0,0.0,snow covered,0.250752389431,-8.86382484436035,100.0,456.929077148438
arenacam6_1769615778651717763.png,1769615778651717763,1769615778.651718,42.30098316815208,-83.69782991165137,238.04908752441406,-0.01640059551731088,-0.9998013124326997,-0.006233287178568245,-0.009460563169189043,0.03576000000000001,0.0164,-0.015940000000000003,1.0563,-0.1966,-12.271500000000001,6.661390473274042,14.901130805285637,19.649999618530273,19.059999465942383,18.889999389648438,18.770000457763672,15.955980863243067,15.476895299540292,15.338853670188904,15.241413431108322,15.503285816020146,0.04041002113214894,-0.5,34.70000076293945,0.0,0.0,0.0,0.0,0.0,snow covered,0.250752389431,-8.86382484436035,100.0,456.929077148438
arenacam6_1769615778672481858.png,1769615778672481858,1769615778.6724818,42.30098320071372,-83.69783153253239,238.04794311523438,-0.016146837348758936,-0.9998101570219495,-0.005666502455812664,-0.009317741641376293,0.03148,-0.01208,-0.02857,2.5729,-0.9998,-11.7225,6.733319523494449,15.062031774885675,19.829999923706055,18.989999771118164,18.959999084472656,18.84000015258789,16.102142770648612,15.42005490194584,15.395694067783356,15.298253828702775,15.554036392270147,0.03266522237755713,-0.4000000059604645,34.47500228881836,0.0,0.0,0.0,0.0,0.0,snow covered,0.250752389431,-8.86382484436035,100.0,456.929077148438
arenacam6_1769615778693451347.png,1769615778693451347,1769615778.6934512,42.30098323348102,-83.6978331694948,238.04701232910156,-0.016059650087635824,-0.9998108184820239,-0.005617543743055564,-0.009426456792608727,0.00928,-0.021780000000000004,-0.01768,1.3817000000000002,-1.0231000000000001,-11.4862,6.766977162996351,15.13732189499306,20.03999900817871,19.10999870300293,18.869998931884766,19.0,16.27266396343197,15.517495141026421,15.322613114080582,15.428175180000002,15.635236849634744,0.032893199873511234,-0.30000001192092896,34.525001525878906,0.0,0.0,0.0,0.0,0.0,snow covered,0.250752389431,-8.86382484436035,100.0,456.929077148438
arenacam6_1769615778714127629.png,1769615778714127629,1769615778.7141275,42.30098326899112,-83.6978348066274,238.0463104248047,-0.01586340186280949,-0.9998096071047531,-0.005707486730568074,-0.009824796058889128,-0.00491,-0.04136000000000001,-0.01795,2.491,0.637,-11.814,6.817465253530325,15.250260724232126,19.69999885559082,19.170000076293945,19.0,19.03999900817871,15.996580704729196,15.566216809351387,15.428175180000002,15.46065474343197,15.612906859378139,0.023779667882646845,-0.20000000298023224,34.22500228881836,0.0,0.0,0.0,0.0,0.0,snow covered,0.250752389431,-8.86382484436035,100.0,456.929077148438
arenacam6_1769615778734793757.png,1769615778734793757,1769615778.7347937,42.300983297169495,-83.69783645881806,238.04739379882812,-0.01571867690195078,-0.9998063851138428,-0.005619466219035389,-0.010418113142776027,0.0058200000000000005,-0.06855,-0.018330000000000003,1.9280000000000002,-1.2910000000000001,-11.5302,6.863012015584881,15.352146098142445,19.44999885559082,19.170000076293945,19.170000076293945,19.170000076293945,15.793578399729196,15.566216809351387,15.566216809351387,15.566216809351387,15.62305720694584,0.017646465000497484,-0.10000000149011612,34.42499923706055,0.0,0.0,0.0,0.0,0.0,snow covered,0.250752389431,-8.86382484436035,100.0,456.929077148438
arenacam6_1769615778755882996.png,1769615778755882996,1769615778.755883,42.300983324261374,-83.69783812834962,238.04864501953125,-0.01561932891999468,-0.9998002747846678,-0.005749285268348539,-0.011063129010119683,-0.01725,-0.06024000000000001,-0.0073100000000000005,1.5478,-0.4183,-10.766,6.8969094102473205,15.427972536158642,19.28999900817871,19.489999771118164,19.279998779296875,19.229999542236328,15.663657048431968,15.82605951194584,15.65553677037781,15.614936928891678,15.690047564911824,0.016987003842465712,0.0,34.32500076293945,0.0,0.0,0.0,0.0,0.0,snow covered,0.250752389431,-8.86382484436035,100.0,456.929077148438
arenacam6_1769615778797348051.png,1769615778797348051,1769615778.797348,42.300983377651995,-83.69784148231093,238.05210876464844,-0.015532876724316524,-0.9997828183672635,-0.0058514880715891514,-0.01260182231371961,-0.0026400000000000004,-0.07481000000000002,-0.0048400000000000006,1.1922000000000001,-0.4924,-9.6538,6.9726592828812555,15.597420456248397,19.43000030517578,19.350000381469727,19.439998626708984,19.389999389648438,15.77733939240555,15.712378716756936,15.785458121675035,15.744858280188904,15.755008627756606,0.010103476529997529,0.10000000149011612,34.45000076293945,0.0,0.0,0.0,0.0,0.0,snow covered,0.250752389431,-8.86382484436035,100.0,456.929077148438
arenacam6_1769615778817956876.png,1769615778817956876,1769615778.817957,42.30098342301734,-83.69784487278206,238.0552978515625,-0.015493914500308292,-0.9997730282405832,-0.005929424433358688,-0.013366844878278534,-0.015160000000000003,-0.07685000000000002,-0.0028000000000000004,1.0530000000000002,-1.3597000000000001,-10.8869,7.000482403648739,15.659659108018012,19.600000381469727,19.489999771118164,19.520000457763672,19.68000030517578,15.915381021756936,15.82605951194584,15.850420346108324,15.980341697405548,15.893050644304163,0.01490399852744242,0.10000000149011612,34.400001525878906,0.0,0.0,0.0,0.0,0.0,snow covered,0.250752389431,-8.86382484436035,100.0,456.929077148438
arenacam6_1769615778838402230.png,1769615778838402230,1769615778.8384023,42.30098343922253,-83.69784658018924,238.0577850341797,-0.01552890832957815,-0.9997607142857025,-0.006232486505870285,-0.014089829274612541,-0.032690000000000004,-0.07086000000000002,0.0036100000000000004,2.0938,-0.17930000000000001,-9.985700000000001,7.041703930911102,15.75186919121228,19.549999237060547,19.479999542236328,19.649999618530273,19.600000381469727,15.874779631486131,15.817939233891678,15.955980863243067,15.915381021756936,15.891020187594453,0.008833935496353813,0.10000000149011612,34.35000228881836,0.0,0.0,0.0,0.0,0.0,snow covered,0.250752389431,-8.86382484436035,100.0,456.929077148438
arenacam6_1769615778859098739.png,1769615778859098739,1769615778.8590987,42.30098345770342,-83.69784829241523,238.05857849121094,-0.01560556393332968,-0.9997483788467829,-0.00640229511563998,-0.01478702082247952,-0.013480000000000002,-0.053770000000000005,0.006740000000000001,0.2159,0.4248,-7.939900000000001,7.060446050232133,15.793794187606268,19.829999923706055,19.6299991607666,19.779998779296875,19.739999771118164,16.102142770648612,15.939740307134743,16.061541380377808,16.029061816945838,16.03312156877675,0.015153254393949657,0.10000000149011612,34.20000076293945,0.0,0.0,0.0,0.0,0.0,snow covered,0.250752389431,-8.86382484436035,100.0,456.929077148438
arenacam6_1769615778879844612.png,1769615778879844612,1769615778.8798447,42.300983472302704,-83.69785001134916,238.05950927734375,-0.015566969998182967,-0.9997427625185398,-0.00662524979795986,-0.015105770486442403,-0.029230000000000003,-0.023490000000000004,-0.008810000000000002,1.3156,-1.3888,-7.385000000000001,7.085015077834253,15.848753628210556,20.06999969482422,19.75,20.06999969482422,20.06999969482422,16.297024797594453,16.037182095000002,16.297024797594453,16.297024797594453,16.23206412194584,0.024185529204832634,0.10000000149011612,34.29999923706055,0.0,0.0,0.0,0.0,0.0,snow covered,0.250752389431,-8.86382484436035,100.0,456.929077148438
arenacam6_1769615778900476418.png,1769615778900476418,1769615778.9004765,42.30098348437247,-83.697851737284,238.0599365234375,-0.015598544864129205,-0.9997331321484524,-0.007209819214788754,-0.015439183581302732,-0.06293000000000001,-0.029210000000000003,0.00871,1.207,-0.10020000000000001,-7.2778,7.11948241807727,15.92585500029377,20.229999542236328,19.959999084472656,20.18000030517578,20.389999389648438,16.426946148891677,16.207703287783357,16.38634630740555,16.556867500188904,16.39446581106737,0.02942453078751221,0.10000000149011612,34.42499923706055,0.0,0.0,0.0,0.0,0.0,snow covered,0.250752389431,-8.86382484436035,100.0,456.929077148438
arenacam6_1769615778920837598.png,1769615778920837598,1769615778.9208376,42.30098350108145,-83.6978534713929,238.05813598632812,-0.015642587750960668,-0.9997266089291021,-0.007721431805189545,-0.015569082774818445,-0.04684000000000001,-0.006090000000000001,-0.00135,1.2899,0.7761,-7.962400000000001,7.148389603750275,15.990518640213143,20.28999900817871,20.1299991607666,20.149999618530273,20.489999771118164,16.47566626843197,16.34574491713474,16.361985473243067,16.63806873194584,16.455366347688905,0.029070208286225176,0.10000000149011612,34.22500228881836,0.0,0.0,0.0,0.0,0.0,snow covered,0.250752389431,-8.86382484436035,100.0,456.929077148438
