image_filename,timestamp_ns,timestamp_sec,latitude,longitude,altitude,orientation_x,orientation_y,orientation_z,orientation_w,angular_velocity_x,angular_velocity_y,angular_velocity_z,linear_acceleration_x,linear_acceleration_y,linear_acceleration_z,vehicle_speed_mps,vehicle_speed_mph,wheel_speed_fl_rads,wheel_speed_fr_rads,wheel_speed_rl_rads,wheel_speed_rr_rads,wheel_speed_fl_mph,wheel_speed_fr_mph,wheel_speed_rl_mph,wheel_speed_rr_mph,avg_wheel_speed_mph,wheel_slip,steering_angle_deg,throttle_pedal,brake_pedal,brake_torque_actual,abs_active,esc_active,trac_active,marwis_road_condition,marwis_friction,marwis_surface_temp_c,marwis_ice_percent,marwis_water_film_height
arenacam6_1769712007159386237.png,1769712007159386237,1769712007.1593862,42.30114137350404,-83.69745206294986,239.20513916015625,0.7156902155781515,0.6982909161666332,0.007723330068561754,0.010847206899235845,0.0017500000000000003,-0.00011000000000000002,-0.00044000000000000007,-0.21250000000000002,0.25220000000000004,-9.7349,-0.040944788386280705,0.09159103493280676,0.0,0.0,0.0,0.0,0.0,0.0,0.0,0.0,0.0,0.0,-0.10000000149011612,15.199999809265137,0.0,0.0,0.0,0.0,0.0,,,,,
arenacam6_1769712007179914514.png,1769712007179914514,1769712007.1799145,42.30114137350404,-83.69745206294986,239.20513916015625,0.7156902155781515,0.6982909161666332,0.007723330068561754,0.010847206899235845,0.0017500000000000003,-0.00011000000000000002,-0.00044000000000000007,-0.21250000000000002,0.25220000000000004,-9.7349,-0.040944788386280705,0.09159103493280676,0.0,0.0,0.0,0.0,0.0,0.0,0.0,0.0,0.0,0.0,-0.10000000149011612,15.199999809265137,0.0,0.0,0.0,0.0,0.0,,,,,
arenacam6_1769712007198883624.png,1769712007198883624,1769712007.1988835,42.30114137350404,-83.69745206294986,239.20513916015625,0.7156902155781515,0.6982909161666332,0.007723330068561754,0.010847206899235845,0.0017500000000000003,-0.00011000000000000002,-0.00044000000000000007,-0.21250000000000002,0.25220000000000004,-9.7349,-0.040944788386280705,0.09159103493280676,0.0,0.0,0.0,0.0,0.0,0.0,0.0,0.0,0.0,0.0,-0.10000000149011612,15.199999809265137,0.0,0.0,0.0,0.0,0.0,,,,,
arenacam6_1769712007219341883.png,1769712007219341883,1769712007.2193418,42.30114137350404,-83.69745206294986,239.20513916015625,0.7156902155781515,0.6982909161666332,0.007723330068561754,0.010847206899235845,0.0017500000000000003,-0.00011000000000000002,-0.00044000000000000007,-0.21250000000000002,0.25220000000000004,-9.7349,-0.040944788386280705,0.09159103493280676,0.0,0.0,0.0,0.0,0.0,0.0,0.0,0.0,0.0,0.0,-0.10000000149011612,15.199999809265137,0.0,0.0,0.0,0.0,0.0,,,,,
arenacam6_1769712007240139579.png,1769712007240139579,1769712007.2401395,42.30114137350404,-83.69745206294986,239.20513916015625,0.7156902155781515,0.6982909161666332,0.007723330068561754,0.010847206899235845,0.0017500000000000003,-0.00011000000000000002,-0.00044000000000000007,-0.21250000000000002,0.25220000000000004,-9.7349,-0.040944788386280705,0.09159103493280676,0.0,0.0,0.0,0.0,0.0,0.0,0.0,0.0,0.0,0.0,-0.10000000149011612,15.199999809265137,0.0,0.0,0.0,0.0,0.0,,,,,
arenacam6_1769712007260836637.png,1769712007260836637,1769712007.2608366,42.30114137350404,-83.69745206294986,239.20513916015625,0.7156902155781515,0.6982909161666332,0.007723330068561754,0.010847206899235845,0.0017500000000000003,-0.00011000000000000002,-0.00044000000000000007,-0.21250000000000002,0.25220000000000004,-9.7349,-0.040944788386280705,0.09159103493280676,0.0,0.0,0.0,0.0,0.0,0.0,0.0,0.0,0.0,0.0,-0.10000000149011612,15.199999809265137,0.0,0.0,0.0,0.0,0.0,,,,,
arenacam6_1769712007283110635.png,1769712007283110635,1769712007.2831106,42.30114137350404,-83.69745206294986,239.20513916015625,0.7156902155781515,0.6982909161666332,0.007723330068561754,0.010847206899235845,0.0017500000000000003,-0.00011000000000000002,-0.00044000000000000007,-0.21250000000000002,0.25220000000000004,-9.7349,-0.040944788386280705,0.09159103493280676,0.0,0.0,0.0,0.0,0.0,0.0,0.0,0.0,0.0,0.0,-0.10000000149011612,15.199999809265137,0.0,0.0,0.0,0.0,0.0,,,,,
arenacam6_1769712007303917918.png,1769712007303917918,1769712007.303918,42.30114137350404,-83.69745206294986,239.20513916015625,0.7156902155781515,0.6982909161666332,0.007723330068561754,0.010847206899235845,0.0017500000000000003,-0.00011000000000000002,-0.00044000000000000007,-0.21250000000000002,0.25220000000000004,-9.7349,-0.040944788386280705,0.09159103493280676,0.0,0.0,0.0,0.0,0.0,0.0,0.0,0.0,0.0,0.0,-0.10000000149011612,15.199999809265137,0.0,0.0,0.0,0.0,0.0,,,,,
arenacam6_1769712007324728379.png,1769712007324728379,1769712007.3247283,42.30114137350404,-83.69745206294986,239.20513916015625,0.7156902155781515,0.6982909161666332,0.007723330068561754,0.010847206899235845,0.0017500000000000003,-0.00011000000000000002,-0.00044000000000000007,-0.21250000000000002,0.25220000000000004,-9.7349,-0.040944788386280705,0.09159103493280676,0.0,0.0,0.0,0.0,0.0,0.0,0.0,0.0,0.0,0.0,-0.10000000149011612,15.199999809265137,0.0,0.0,0.0,0.0,0.0,,,,,
arenacam6_1769712007345066649.png,1769712007345066649,1769712007.3450668,42.30114137350404,-83.69745206294986,239.20513916015625,0.7156902155781515,0.6982909161666332,0.007723330068561754,0.010847206899235845,0.0017500000000000003,-0.00011000000000000002,-0.00044000000000000007,-0.21250000000000002,0.25220000000000004,-9.7349,-0.040944788386280705,0.09159103493280676,0.0,0.0,0.0,0.0,0.0,0.0,0.0,0.0,0.0,0.0,-0.10000000149011612,15.199999809265137,0.0,0.0,0.0,0.0,0.0,,,,,
arenacam6_1769712007365976228.png,1769712007365976228,1769712007.3659763,42.30114137350404,-83.69745206294986,239.20513916015625,0.7156902155781515,0.6982909161666332,0.007723330068561754,0.010847206899235845,0.0017500000000000003,-0.00011000000000000002,-0.00044000000000000007,-0.21250000000000002,0.25220000000000004,-9.7349,-0.040944788386280705,0.09159103493280676,0.0,0.0,0.0,0.0,0.0,0.0,0.0,0.0,0.0,0.0,-0.10000000149011612,15.199999809265137,0.0,0.0,0.0,0.0,0.0,,,,,
arenacam6_1769712007386527812.png,1769712007386527812,1769712007.3865278,42.30114137350404,-83.69745206294986,239.20513916015625,0.7156902155781515,0.6982909161666332,0.007723330068561754,0.010847206899235845,0.0017500000000000003,-0.00011000000000000002,-0.00044000000000000007,-0.21250000000000002,0.25220000000000004,-9.7349,-0.040944788386280705,0.09159103493280676,0.0,0.0,0.0,0.0,0.0,0.0,0.0,0.0,0.0,0.0,-0.10000000149011612,15.199999809265137,0.0,0.0,0.0,0.0,0.0,,,,,
arenacam6_1769712007407605496.png,1769712007407605496,1769712007.4076054,42.30114137350404,-83.69745206294986,239.20513916015625,0.7156902155781515,0.6982909161666332,0.007723330068561754,0.010847206899235845,0.0017500000000000003,-0.00011000000000000002,-0.00044000000000000007,-0.21250000000000002,0.25220000000000004,-9.7349,-0.040944788386280705,0.09159103493280676,0.0,0.0,0.0,0.0,0.0,0.0,0.0,0.0,0.0,0.0,-0.10000000149011612,15.199999809265137,0.0,0.0,0.0,0.0,0.0,,,,,
arenacam6_1769712007427981187.png,1769712007427981187,1769712007.4279814,42.30114137350404,-83.69745206294986,239.20513916015625,0.7156902155781515,0.6982909161666332,0.007723330068561754,0.010847206899235845,0.0017500000000000003,-0.00011000000000000002,-0.00044000000000000007,-0.21250000000000002,0.25220000000000004,-9.7349,-0.040944788386280705,0.09159103493280676,0.0,0.0,0.0,0.0,0.0,0.0,0.0,0.0,0.0,0.0,-0.10000000149011612,15.199999809265137,0.0,0.0,0.0,0.0,0.0,,,,,
arenacam6_1769712007448933144.png,1769712007448933144,1769712007.4489331,42.30114137350404,-83.69745206294986,239.20513916015625,0.7156902155781515,0.6982909161666332,0.007723330068561754,0.010847206899235845,0.0017500000000000003,-0.00011000000000000002,-0.00044000000000000007,-0.21250000000000002,0.25220000000000004,-9.7349,-0.040944788386280705,0.09159103493280676,0.0,0.0,0.0,0.0,0.0,0.0,0.0,0.0,0.0,0.0,-0.10000000149011612,15.199999809265137,0.0,0.0,0.0,0.0,0.0,,,,,
arenacam6_1769712007469304721.png,1769712007469304721,1769712007.4693048,42.30114137350404,-83.69745206294986,239.20513916015625,0.7156902155781515,0.6982909161666332,0.007723330068561754,0.010847206899235845,0.0017500000000000003,-0.00011000000000000002,-0.00044000000000000007,-0.21250000000000002,0.25220000000000004,-9.7349,-0.040944788386280705,0.09159103493280676,0.0,0.0,0.0,0.0,0.0,0.0,0.0,0.0,0.0,0.0,-0.10000000149011612,15.199999809265137,0.0,0.0,0.0,0.0,0.0,,,,,
arenacam6_1769712007490507459.png,1769712007490507459,1769712007.4905076,42.30114137350404,-83.69745206294986,239.20513916015625,0.7156902155781515,0.6982909161666332,0.007723330068561754,0.010847206899235845,0.0017500000000000003,-0.00011000000000000002,-0.00044000000000000007,-0.21250000000000002,0.25220000000000004,-9.7349,-0.040944788386280705,0.09159103493280676,0.0,0.0,0.0,0.0,0.0,0.0,0.0,0.0,0.0,0.0,-0.10000000149011612,15.199999809265137,0.0,0.0,0.0,0.0,0.0,,,,,
arenacam6_1769712007511142500.png,1769712007511142500,1769712007.5111425,42.30114137350404,-83.69745206294986,239.20513916015625,0.7156902155781515,0.6982909161666332,0.007723330068561754,0.010847206899235845,0.0017500000000000003,-0.00011000000000000002,-0.00044000000000000007,-0.21250000000000002,0.25220000000000004,-9.7349,-0.040944788386280705,0.09159103493280676,0.0,0.0,0.0,0.0,0.0,0.0,0.0,0.0,0.0,0.0,-0.10000000149011612,15.199999809265137,0.0,0.0,0.0,0.0,0.0,,,,,
arenacam6_1769712007531429107.png,1769712007531429107,1769712007.531429,42.30114137350404,-83.69745206294986,239.20513916015625,0.7156902155781515,0.6982909161666332,0.007723330068561754,0.010847206899235845,0.0017500000000000003,-0.00011000000000000002,-0.00044000000000000007,-0.21250000000000002,0.25220000000000004,-9.7349,-0.040944788386280705,0.09159103493280676,0.0,0.0,0.0,0.0,0.0,0.0,0.0,0.0,0.0,0.0,-0.10000000149011612,15.199999809265137,0.0,0.0,0.0,0.0,0.0,,,,,
arenacam6_1769712007552165020.png,1769712007552165020,1769712007.552165,42.30114137350404,-83.69745206294986,239.20513916015625,0.7156902155781515,0.6982909161666332,0.007723330068561754,0.010847206899235845,0.0017500000000000003,-0.00011000000000000002,-0.00044000000000000007,-0.21250000000000002,0.25220000000000004,-9.7349,-0.040944788386280705,0.09159103493280676,0.0,0.0,0.0,0.0,0.0,0.0,0.0,0.0,0.0,0.0,-0.10000000149011612,15.199999809265137,0.0,0.0,0.0,0.0,0.0,,,,,
arenacam6_1769712007572715961.png,1769712007572715961,1769712007.572716,42.30114137350404,-83.69745206294986,239.20513916015625,0.7156902155781515,0.6982909161666332,0.007723330068561754,0.010847206899235845,0.0017500000000000003,-0.00011000000000000002,-0.00044000000000000007,-0.21250000000000002,0.25220000000000004,-9.7349,-0.040944788386280705,0.09159103493280676,0.0,0.0,0.0,0.0,0.0,0.0,0.0,0.0,0.0,0.0,-0.10000000149011612,15.199999809265137,0.0,0.0,0.0,0.0,0.0,,,,,
arenacam6_1769712007593470101.png,1769712007593470101,1769712007.59347,42.30114137350404,-83.69745206294986,239.20513916015625,0.7156902155781515,0.6982909161666332,0.007723330068561754,0.010847206899235845,0.0017500000000000003,-0.00011000000000000002,-0.00044000000000000007,-0.21250000000000002,0.25220000000000004,-9.7349,-0.040944788386280705,0.09159103493280676,0.0,0.0,0.0,0.0,0.0,0.0,0.0,0.0,0.0,0.0,-0.10000000149011612,15.199999809265137,0.0,0.0,0.0,0.0,0.0,,,,,
arenacam6_1769712007614032795.png,1769712007614032795,1769712007.614033,42.30114137350404,-83.69745206294986,239.20513916015625,0.7156902155781515,0.6982909161666332,0.007723330068561754,0.010847206899235845,0.0017500000000000003,-0.00011000000000000002,-0.00044000000000000007,-0.21250000000000002,0.25220000000000004,-9.7349,-0.040944788386280705,0.09159103493280676,0.0,0.0,0.0,0.0,0.0,0.0,0.0,0.0,0.0,0.0,-0.10000000149011612,15.199999809265137,0.0,0.0,0.0,0.0,0.0,,,,,
arenacam6_1769712007634782270.png,1769712007634782270,1769712007.6347823,42.30114137350404,-83.69745206294986,239.20513916015625,0.7156902155781515,0.6982909161666332,0.007723330068561754,0.010847206899235845,0.0017500000000000003,-0.00011000000000000002,-0.00044000000000000007,-0.21250000000000002,0.25220000000000004,-9.7349,-0.040944788386280705,0.09159103493280676,0.0,0.0,0.0,0.0,0.0,0.0,0.0,0.0,0.0,0.0,-0.10000000149011612,15.199999809265137,0.0,0.0,0.0,0.0,0.0,,,,,
arenacam6_1769712007655455649.png,1769712007655455649,1769712007.6554558,42.30114137350404,-83.69745206294986,239.20513916015625,0.7156902155781515,0.6982909161666332,0.007723330068561754,0.010847206899235845,0.0017500000000000003,-0.00011000000000000002,-0.00044000000000000007,-0.21250000000000002,0.25220000000000004,-9.7349,-0.040944788386280705,0.09159103493280676,0.0,0.0,0.0,0.0,0.0,0.0,0.0,0.0,0.0,0.0,-0.10000000149011612,15.199999809265137,0.0,0.0,0.0,0.0,0.0,,,,,
arenacam6_1769712007676301024.png,1769712007676301024,1769712007.676301,42.30114137350404,-83.69745206294986,239.20513916015625,0.7156902155781515,0.6982909161666332,0.007723330068561754,0.010847206899235845,0.0017500000000000003,-0.00011000000000000002,-0.00044000000000000007,-0.21250000000000002,0.25220000000000004,-9.7349,-0.040944788386280705,0.09159103493280676,0.0,0.0,0.0,0.0,0.0,0.0,0.0,0.0,0.0,0.0,-0.10000000149011612,15.199999809265137,0.0,0.0,0.0,0.0,0.0,,,,,
arenacam6_1769712007696862029.png,1769712007696862029,1769712007.696862,42.30114137350404,-83.69745206294986,239.20513916015625,0.7156902155781515,0.6982909161666332,0.007723330068561754,0.010847206899235845,0.0017500000000000003,-0.00011000000000000002,-0.00044000000000000007,-0.21250000000000002,0.25220000000000004,-9.7349,-0.040944788386280705,0.09159103493280676,0.0,0.0,0.0,0.0,0.0,0.0,0.0,0.0,0.0,0.0,-0.10000000149011612,15.199999809265137,0.0,0.0,0.0,0.0,0.0,,,,,
arenacam6_1769712007717756106.png,1769712007717756106,1769712007.7177563,42.30114137350404,-83.69745206294986,239.20513916015625,0.7156902155781515,0.6982909161666332,0.007723330068561754,0.010847206899235845,0.0017500000000000003,-0.00011000000000000002,-0.00044000000000000007,-0.21250000000000002,0.25220000000000004,-9.7349,-0.040944788386280705,0.09159103493280676,0.0,0.0,0.0,0.0,0.0,0.0,0.0,0.0,0.0,0.0,-0.10000000149011612,15.199999809265137,0.0,0.0,0.0,0.0,0.0,,,,,
arenacam6_1769712007738358712.png,1769712007738358712,1769712007.7383587,42.30114137350404,-83.69745206294986,239.20513916015625,0.7156902155781515,0.6982909161666332,0.007723330068561754,0.010847206899235845,0.0017500000000000003,-0.00011000000000000002,-0.00044000000000000007,-0.21250000000000002,0.25220000000000004,-9.7349,-0.040944788386280705,0.09159103493280676,0.0,0.0,0.0,0.0,0.0,0.0,0.0,0.0,0.0,0.0,-0.10000000149011612,15.199999809265137,0.0,0.0,0.0,0.0,0.0,,,,,
arenacam6_1769712007759184588.png,1769712007759184588,1769712007.7591846,42.30114137350404,-83.69745206294986,239.20513916015625,0.7156902155781515,0.6982909161666332,0.007723330068561754,0.010847206899235845,0.0017500000000000003,-0.00011000000000000002,-0.00044000000000000007,-0.21250000000000002,0.25220000000000004,-9.7349,-0.040944788386280705,0.09159103493280676,0.0,0.0,0.0,0.0,0.0,0.0,0.0,0.0,0.0,0.0,-0.10000000149011612,15.199999809265137,0.0,0.0,0.0,0.0,0.0,,,,,
arenacam6_1769712007779712683.png,1769712007779712683,1769712007.7797127,42.30114137350404,-83.69745206294986,239.20513916015625,0.7156902155781515,0.6982909161666332,0.007723330068561754,0.010847206899235845,0.0017500000000000003,-0.00011000000000000002,-0.00044000000000000007,-0.21250000000000002,0.25220000000000004,-9.7349,-0.040944788386280705,0.09159103493280676,0.0,0.0,0.0,0.0,0.0,0.0,0.0,0.0,0.0,0.0,-0.10000000149011612,15.199999809265137,0.0,0.0,0.0,0.0,0.0,,,,,
arenacam6_1769712007821030846.png,1769712007821030846,1769712007.8210309,42.30114137350404,-83.69745206294986,239.20513916015625,0.7156902155781515,0.6982909161666332,0.007723330068561754,0.010847206899235845,0.0017500000000000003,-0.00011000000000000002,-0.00044000000000000007,-0.21250000000000002,0.25220000000000004,-9.7349,-0.040944788386280705,0.09159103493280676,0.0,0.0,0.0,0.0,0.0,0.0,0.0,0.0,0.0,0.0,-0.10000000149011612,15.199999809265137,0.0,0.0,0.0,0.0,0.0,,,,,
arenacam6_1769712007841793498.png,1769712007841793498,1769712007.8417935,42.30114137350404,-83.69745206294986,239.20513916015625,0.7156902155781515,0.6982909161666332,0.007723330068561754,0.010847206899235845,0.0017500000000000003,-0.00011000000000000002,-0.00044000000000000007,-0.21250000000000002,0.25220000000000004,-9.7349,-0.040944788386280705,0.09159103493280676,0.0,0.0,0.0,0.0,0.0,0.0,0.0,0.0,0.0,0.0,-0.10000000149011612,15.199999809265137,0.0,0.0,0.0,0.0,0.0,,,,,
arenacam6_1769712007862450729.png,1769712007862450729,1769712007.8624506,42.30114137350404,-83.69745206294986,239.20513916015625,0.7156902155781515,0.6982909161666332,0.007723330068561754,0.010847206899235845,0.0017500000000000003,-0.00011000000000000002,-0.00044000000000000007,-0.21250000000000002,0.25220000000000004,-9.7349,-0.040944788386280705,0.09159103493280676,0.0,0.0,0.0,0.0,0.0,0.0,0.0,0.0,0.0,0.0,-0.10000000149011612,15.199999809265137,0.0,0.0,0.0,0.0,0.0,,,,,
arenacam6_1769712007883234651.png,1769712007883234651,1769712007.8832345,42.30114137350404,-83.69745206294986,239.20513916015625,0.7156902155781515,0.6982909161666332,0.007723330068561754,0.010847206899235845,0.0017500000000000003,-0.00011000000000000002,-0.00044000000000000007,-0.21250000000000002,0.25220000000000004,-9.7349,-0.040944788386280705,0.09159103493280676,0.0,0.0,0.0,0.0,0.0,0.0,0.0,0.0,0.0,0.0,-0.10000000149011612,15.199999809265137,0.0,0.0,0.0,0.0,0.0,,,,,
arenacam6_1769712007903853993.png,1769712007903853993,1769712007.9038541,42.30114137350404,-83.69745206294986,239.20513916015625,0.7156902155781515,0.6982909161666332,0.007723330068561754,0.010847206899235845,0.0017500000000000003,-0.00011000000000000002,-0.00044000000000000007,-0.21250000000000002,0.25220000000000004,-9.7349,-0.040944788386280705,0.09159103493280676,0.0,0.0,0.0,0.0,0.0,0.0,0.0,0.0,0.0,0.0,-0.10000000149011612,15.199999809265137,0.0,0.0,0.0,0.0,0.0,,,,,
arenacam6_1769712007924737133.png,1769712007924737133,1769712007.924737,42.30114137350404,-83.69745206294986,239.20513916015625,0.7156902155781515,0.6982909161666332,0.007723330068561754,0.010847206899235845,0.0017500000000000003,-0.00011000000000000002,-0.00044000000000000007,-0.21250000000000002,0.25220000000000004,-9.7349,-0.040944788386280705,0.09159103493280676,0.0,0.0,0.0,0.0,0.0,0.0,0.0,0.0,0.0,0.0,-0.10000000149011612,15.199999809265137,0.0,0.0,0.0,0.0,0.0,,,,,
arenacam6_1769712007945231801.png,1769712007945231801,1769712007.945232,42.30114137350404,-83.69745206294986,239.20513916015625,0.7156902155781515,0.6982909161666332,0.007723330068561754,0.010847206899235845,0.0017500000000000003,-0.00011000000000000002,-0.00044000000000000007,-0.21250000000000002,0.25220000000000004,-9.7349,-0.040944788386280705,0.09159103493280676,0.0,0.0,0.0,0.0,0.0,0.0,0.0,0.0,0.0,0.0,-0.10000000149011612,15.199999809265137,0.0,0.0,0.0,0.0,0.0,,,,,
arenacam6_1769712007966457169.png,1769712007966457169,1769712007.9664571,42.30114137350404,-83.69745206294986,239.20513916015625,0.7156902155781515,0.6982909161666332,0.007723330068561754,0.010847206899235845,0.0017500000000000003,-0.00011000000000000002,-0.00044000000000000007,-0.21250000000000002,0.25220000000000004,-9.7349,-0.040944788386280705,0.09159103493280676,0.0,0.0,0.0,0.0,0.0,0.0,0.0,0.0,0.0,0.0,-0.10000000149011612,15.199999809265137,0.0,0.0,0.0,0.0,0.0,,,,,
arenacam6_1769712007986514973.png,1769712007986514973,1769712007.986515,42.30114137350404,-83.69745206294986,239.20513916015625,0.7156902155781515,0.6982909161666332,0.007723330068561754,0.010847206899235845,0.0017500000000000003,-0.00011000000000000002,-0.00044000000000000007,-0.21250000000000002,0.25220000000000004,-9.7349,-0.040944788386280705,0.09159103493280676,0.0,0.0,0.0,0.0,0.0,0.0,0.0,0.0,0.0,0.0,-0.10000000149011612,15.199999809265137,0.0,0.0,0.0,0.0,0.0,,,,,
arenacam6_1769712008007524958.png,1769712008007524958,1769712008.007525,42.30114137350404,-83.69745206294986,239.20513916015625,0.7156902155781515,0.6982909161666332,0.007723330068561754,0.010847206899235845,0.0017500000000000003,-0.00011000000000000002,-0.00044000000000000007,-0.21250000000000002,0.25220000000000004,-9.7349,-0.040944788386280705,0.09159103493280676,0.0,0.0,0.0,0.0,0.0,0.0,0.0,0.0,0.0,0.0,-0.10000000149011612,15.199999809265137,0.0,0.0,0.0,0.0,0.0,,,,,
arenacam6_1769712008028033524.png,1769712008028033524,1769712008.0280335,42.30114137350404,-83.69745206294986,239.20513916015625,0.7156902155781515,0.6982909161666332,0.007723330068561754,0.010847206899235845,0.0017500000000000003,-0.00011000000000000002,-0.00044000000000000007,-0.21250000000000002,0.25220000000000004,-9.7349,-0.040944788386280705,0.09159103493280676,0.0,0.0,0.0,0.0,0.0,0.0,0.0,0.0,0.0,0.0,-0.10000000149011612,15.199999809265137,0.0,0.0,0.0,0.0,0.0,,,,,
arenacam6_1769712008048769839.png,1769712008048769839,1769712008.0487697,42.30114137350404,-83.69745206294986,239.20513916015625,0.7156902155781515,0.6982909161666332,0.007723330068561754,0.010847206899235845,0.0017500000000000003,-0.00011000000000000002,-0.00044000000000000007,-0.21250000000000002,0.25220000000000004,-9.7349,-0.040944788386280705,0.09159103493280676,0.0,0.0,0.0,0.0,0.0,0.0,0.0,0.0,0.0,0.0,-0.10000000149011612,15.199999809265137,0.0,0.0,0.0,0.0,0.0,,,,,
arenacam6_1769712008069323623.png,1769712008069323623,1769712008.0693235,42.30114137350404,-83.69745206294986,239.20513916015625,0.7156902155781515,0.6982909161666332,0.007723330068561754,0.010847206899235845,0.0017500000000000003,-0.00011000000000000002,-0.00044000000000000007,-0.21250000000000002,0.25220000000000004,-9.7349,-0.040944788386280705,0.09159103493280676,0.0,0.0,0.0,0.0,0.0,0.0,0.0,0.0,0.0,0.0,-0.10000000149011612,15.199999809265137,0.0,0.0,0.0,0.0,0.0,,,,,
arenacam6_1769712008090324590.png,1769712008090324590,1769712008.0903244,42.30114137350404,-83.69745206294986,239.20513916015625,0.7156902155781515,0.6982909161666332,0.007723330068561754,0.010847206899235845,0.0017500000000000003,-0.00011000000000000002,-0.00044000000000000007,-0.21250000000000002,0.25220000000000004,-9.7349,-0.040944788386280705,0.09159103493280676,0.0,0.0,0.0,0.0,0.0,0.0,0.0,0.0,0.0,0.0,-0.10000000149011612,15.199999809265137,0.0,0.0,0.0,0.0,0.0,,,,,
arenacam6_1769712008111222822.png,1769712008111222822,1769712008.1112227,42.30114137350404,-83.69745206294986,239.20513916015625,0.7156902155781515,0.6982909161666332,0.007723330068561754,0.010847206899235845,0.0017500000000000003,-0.00011000000000000002,-0.00044000000000000007,-0.21250000000000002,0.25220000000000004,-9.7349,-0.040944788386280705,0.09159103493280676,0.0,0.0,0.0,0.0,0.0,0.0,0.0,0.0,0.0,0.0,-0.10000000149011612,17.375,0.0,0.0,0.0,0.0,0.0,,,,,
arenacam6_1769712008132630299.png,1769712008132630299,1769712008.1326303,42.30114136586069,-83.69745206239392,239.20521545410156,0.7156902155781515,0.6982909161666332,0.007723330068561754,0.010847206899235845,0.0017500000000000003,-0.00011000000000000002,-0.00044000000000000007,-0.21250000000000002,0.25220000000000004,-9.7349,-0.040944788386280705,0.09159103493280676,0.0,0.0,0.0,0.0,0.0,0.0,0.0,0.0,0.0,0.0,-0.10000000149011612,19.5,0.0,0.0,0.0,0.0,0.0,,,,,
arenacam6_1769712008152685720.png,1769712008152685720,1769712008.1526859,42.30114136152919,-83.69745206465474,239.2052459716797,0.7156902155781515,0.6982909161666332,0.007723330068561754,0.010847206899235845,0.0017500000000000003,-0.00011000000000000002,-0.00044000000000000007,-0.21250000000000002,0.25220000000000004,-9.7349,-0.040944788386280705,0.09159103493280676,0.0,0.0,0.0,0.0,0.0,0.0,0.0,0.0,0.0,0.0,-0.10000000149011612,20.524999618530273,0.0,0.0,0.0,0.0,0.0,,,,,
arenacam6_1769712008171269454.png,1769712008171269454,1769712008.1712694,42.30114135784025,-83.69745206679052,239.2052459716797,0.7156902155781515,0.6982909161666332,0.007723330068561754,0.010847206899235845,0.0017500000000000003,-0.00011000000000000002,-0.00044000000000000007,-0.21250000000000002,0.25220000000000004,-9.7349,-0.040944788386280705,0.09159103493280676,0.0,0.0,0.0,0.0,0.0,0.0,0.0,0.0,0.0,0.0,-0.10000000149011612,21.475000381469727,0.0,0.0,0.0,0.0,0.0,,,,,
arenacam6_1769712008192579751.png,1769712008192579751,1769712008.1925797,42.30114135784025,-83.69745206679052,239.2052459716797,0.7156902155781515,0.6982909161666332,0.007723330068561754,0.010847206899235845,0.0017500000000000003,-0.00011000000000000002,-0.00044000000000000007,-0.21250000000000002,0.25220000000000004,-9.7349,-0.040944788386280705,0.09159103493280676,0.0,0.0,0.0,0.0,0.0,0.0,0.0,0.0,0.0,0.0,-0.10000000149011612,21.92500114440918,0.0,0.0,0.0,0.0,0.0,,,,,
arenacam6_1769712008214593695.png,1769712008214593695,1769712008.214594,42.30114135784025,-83.69745206679052,239.2052459716797,0.7157052090999912,0.6982760438089406,0.00799328095804106,0.010617333431619837,0.00027000000000000006,0.012240000000000003,0.00011000000000000002,0.4581,0.2642,-9.6357,-0.019196197830049194,0.04294074277395025,0.0,0.0,0.0,0.0,0.0,0.0,0.0,0.0,0.0,0.0,-0.10000000149011612,22.17500114440918,0.0,0.0,0.0,0.0,0.0,,,,,
arenacam6_1769712008255416592.png,1769712008255416592,1769712008.2554166,42.30114135064518,-83.69745206637735,239.2051544189453,0.7157059418021804,0.6982761570613811,0.008198209703978662,0.010402052984521348,0.0015900000000000003,0.015240000000000002,7.000000000000002e-05,0.6365000000000001,0.2398,-9.762400000000001,0.0043993299966874405,0.009841037242790004,0.0,0.0,0.0,0.0,0.0,0.0,0.0,0.0,0.0,0.0,-0.10000000149011612,23.024999618530273,0.0,0.0,0.0,0.0,0.0,,,,,
arenacam6_1769712008275754092.png,1769712008275754092,1769712008.275754,42.30114135064518,-83.69745206637735,239.2051544189453,0.7156994692604847,0.6982831578422997,0.008301829776565111,0.010294697489856402,0.00010000000000000002,0.015220000000000003,-0.0014900000000000002,0.7332000000000001,0.29400000000000004,-9.8359,0.018808147725959425,0.04207269797410768,0.0,0.0,0.0,0.0,0.0,0.0,0.0,0.0,0.0,0.0,-0.10000000149011612,23.700000762939453,0.0,0.0,0.0,0.0,0.0,,,,,
arenacam6_1769712008296522538.png,1769712008296522538,1769712008.2965224,42.30114135064518,-83.69745206637735,239.2051544189453,0.715687022788379,0.6982961166773638,0.008414707410858455,0.010188795061699127,-0.0013000000000000002,0.015510000000000001,-0.0006900000000000001,0.8583000000000001,0.2023,-9.8652,0.03647921824808812,0.08160182246787824,0.0,0.0,0.0,0.0,0.0,0.0,0.0,0.0,0.0,0.0,-0.10000000149011612,24.17500114440918,0.0,0.0,0.0,0.0,0.0,,,,,
arenacam6_1769712008316132346.png,1769712008316132346,1769712008.3161323,42.30114138206657,-83.69745207567098,239.20315551757812,0.7156922755131367,0.6982907312528074,0.00853360810387126,0.010089546569465445,-0.0016700000000000003,0.015770000000000003,0.0018800000000000004,0.9873000000000001,0.2796,-9.9251,0.05606435395888469,0.12541259594478754,0.0,0.0,0.0,0.0,0.0,0.0,0.0,0.0,0.0,0.0,-0.10000000149011612,24.950000762939453,0.0,0.0,0.0,0.0,0.0,,,,,
arenacam6_1769712008338192058.png,1769712008338192058,1769712008.3381922,42.301141399284596,-83.69745207804425,239.20291137695312,0.7156861053413776,0.6982971294973952,0.008653128058483619,0.009982030444372084,2e-05,0.016610000000000003,-0.0003800000000000001,1.2027,0.22710000000000002,-9.9337,0.07896738535595879,0.17664530299815848,0.0,0.0,0.0,0.0,0.0,0.0,0.0,0.0,0.0,0.0,-0.10000000149011612,25.149999618530273,0.0,0.0,0.0,0.0,0.0,,,,,
arenacam6_1769712008357512447.png,1769712008357512447,1769712008.3575125,42.301141417641375,-83.69745207721594,239.20272827148438,0.7156809707164863,0.698302456828326,0.008770867449129789,0.009874149382179955,-0.00144,0.015690000000000003,-0.00016,1.3915,0.2315,-9.8579,0.10594971509676417,0.23700315568855565,0.0,0.0,0.0,0.0,0.0,0.0,0.0,0.0,0.0,0.0,-0.10000000149011612,25.149999618530273,0.0,0.0,0.0,0.0,0.0,,,,,
arenacam6_1769712008378206536.png,1769712008378206536,1769712008.3782065,42.30114144923814,-83.69745207909732,239.2025146484375,0.7156785858049098,0.6983052338392575,0.008890629000462596,0.00974263460060231,0.0012500000000000002,0.017720000000000003,-0.0004500000000000001,1.5806,0.2494,-9.767900000000001,0.13734978855928157,0.3072432360197993,0.0,0.0,0.0,0.0,0.0,0.0,0.0,0.0,0.0,0.0,-0.10000000149011612,25.475000381469727,0.0,0.0,0.0,0.0,0.0,,,,,
arenacam6_1769712008399004690.png,1769712008399004690,1769712008.3990047,42.3011414819435,-83.6974520808982,239.20230102539062,0.7156758821365219,0.6983082389981431,0.009018929582794565,0.00960697583032069,0.00033000000000000005,0.02236,-3e-05,1.7357,0.24400000000000002,-9.816600000000001,0.1708513693726726,0.38218426220450624,0.0,0.0,0.0,0.0,0.0,0.0,0.0,0.0,0.0,0.0,-0.10000000149011612,25.200000762939453,0.0,0.0,0.0,0.0,0.0,,,,,
arenacam6_1769712008419561286.png,1769712008419561286,1769712008.4195611,42.30114151843446,-83.69745207969167,239.2021026611328,0.7156763223769713,0.698308028727476,0.009145090568552255,0.009469209165116671,0.0021400000000000004,0.022670000000000003,0.00039000000000000005,1.8450000000000002,0.306,-9.7904,0.20736894609895315,0.4638718902865923,0.0,0.0,0.0,0.0,0.0,0.0,0.0,0.0,0.0,0.0,-0.10000000149011612,25.30000114440918,0.0,0.0,0.0,0.0,0.0,,,,,
arenacam6_1769712008440302404.png,1769712008440302404,1769712008.4403024,42.30114157073012,-83.69745208076445,239.20184326171875,0.7156831683304298,0.6983014303118977,0.009292501208310421,0.009293245620822505,0.0018800000000000004,0.02375,0.0031000000000000003,2.1636,0.19090000000000001,-9.8107,0.24936132676819717,0.557806326300851,0.0,0.0,0.0,0.0,0.0,0.0,0.0,0.0,0.0,0.0,-0.10000000149011612,25.30000114440918,0.0,0.0,0.0,0.0,0.0,,,,,
arenacam6_1769712008460929932.png,1769712008460929932,1769712008.46093,42.3011416237742,-83.69745208152389,239.20166015625,0.715686907990386,0.6982978594779558,0.009425549700465692,0.00913828170444576,0.0020000000000000005,0.020300000000000002,0.0019700000000000004,2.0613,0.3038,-9.990300000000001,0.2902851170378005,0.6493503897065376,0.0,0.0,0.0,0.0,0.0,0.0,0.0,0.0,0.0,0.0,-0.10000000149011612,25.274999618530273,0.0,0.0,0.0,0.0,0.0,,,,,
arenacam6_1769712008481880347.png,1769712008481880347,1769712008.4818804,42.301141683102394,-83.69745207967249,239.20152282714844,0.7156896654080267,0.6982956882421428,0.009637535556904416,0.008862985894638624,0.00248,0.023030000000000002,2e-05,2.4846,0.15710000000000002,-10.0525,0.3584798688548243,0.8018979578361107,0.0,0.0,0.0,0.0,0.0,0.0,0.0,0.0,0.0,0.0,-0.10000000149011612,25.30000114440918,0.0,0.0,0.0,0.0,0.0,,,,,
arenacam6_1769712008502432497.png,1769712008502432497,1769712008.5024326,42.30114175941779,-83.69745208000192,239.20152282714844,0.715691460924033,0.6982943341109148,0.009735501911697315,0.008716404737303432,0.00408,0.019040000000000005,0.0016300000000000002,2.3223000000000003,0.2356,-10.173300000000001,0.4042986543569636,0.9043918318772662,0.0,0.0,0.0,0.0,0.0,0.0,0.0,0.0,0.0,0.0,-0.10000000149011612,25.0,0.0,0.0,0.0,0.0,0.0,,,,,
arenacam6_1769712008587730306.png,1769712008587730306,1769712008.5877304,42.30114212880195,-83.69745207621669,239.20242309570312,0.7157238357403484,0.6982651670348436,0.009825719549000286,0.008282674342813436,0.00512,-0.008400000000000001,0.0017600000000000003,2.5102,0.058300000000000005,-10.396700000000001,0.5953518299103558,1.3317663223996714,1.25,1.0499999523162842,1.2400000095367432,1.25,1.015011525,0.852609642280383,1.0068914405439235,1.015011525,0.9723810332060767,0.2698561175101865,0.4000000059604645,24.899999618530273,0.0,0.0,0.0,0.0,0.0,,,,,
arenacam6_1769712008607849498.png,1769712008607849498,1769712008.6078494,42.301142238624244,-83.69745207308598,239.20309448242188,0.7157255727860786,0.6982642982285683,0.009811243757093783,0.008222759594176239,0.005200000000000001,-0.0027900000000000004,0.0007800000000000001,2.3476,0.25780000000000003,-10.340300000000001,0.6399010472832733,1.4314202487098455,1.25,1.409999966621399,1.2400000095367432,1.25,1.015011525,1.1449329730962683,1.0068914405439235,1.015011525,1.045461865910048,0.26963317247165247,0.699999988079071,25.325000762939453,0.0,0.0,0.0,0.0,0.0,,,,,
arenacam6_1769712008628857499.png,1769712008628857499,1769712008.6288576,42.30114236736361,-83.69745207227484,239.20387268066406,0.7157383029399043,0.6982525573673123,0.009755082514838843,0.008178398366592877,0.0066900000000000015,-0.00538,0.00030000000000000003,2.666,0.07010000000000001,-10.041500000000001,0.6898672933768141,1.5431917432463307,1.5699999332427979,1.409999966621399,1.5499999523162842,1.5699999332427979,1.2748544211925366,1.1449329730962683,1.2586142522803832,1.2748544211925366,1.238314016940431,0.19756308808686637,1.100000023841858,24.80000114440918,0.0,0.0,0.0,0.0,0.0,,,,,
arenacam6_1769712008648772024.png,1769712008648772024,1769712008.648772,42.301142496860614,-83.69745207186868,239.2046661376953,0.7157470695756416,0.6982439202253196,0.00970690948547925,0.008205861959585644,0.0009000000000000002,0.0005700000000000001,0.0024300000000000007,2.3413,0.3,-9.8622,0.7377177514463287,1.6502303469203505,1.5699999332427979,1.6899999380111694,1.5499999523162842,1.5699999332427979,1.2748544211925366,1.3722955314644982,1.2586142522803832,1.2748544211925366,1.2951546565324885,0.21516734984937227,1.600000023841858,25.100000381469727,0.0,0.0,0.0,0.0,0.0,,,,,
arenacam6_1769712008670909818.png,1769712008670909818,1769712008.6709096,42.30114263317109,-83.697452070302,239.2056427001953,0.7157588666470069,0.6982319967649157,0.009663175885050192,0.00824296922749385,-0.0004700000000000001,0.00143,0.00103,2.5562,0.0601,-9.8622,0.7857578283177911,1.7576931164771996,1.8399999141693115,1.9499999284744263,1.8399999141693115,1.8399999141693115,1.4940968951046896,1.5834179209205748,1.4940968951046896,1.4940968951046896,1.516427151558661,0.13726284904732874,2.1000001430511475,24.975000381469727,0.0,0.0,0.0,0.0,0.0,,,,,
arenacam6_1769712008691065264.png,1769712008691065264,1769712008.6910653,42.301142787619696,-83.6974520704208,239.2064666748047,0.7157622016050892,0.6982278660618395,0.009625062916304035,0.00834721342860999,-0.00408,-0.0022600000000000003,0.00024,2.3555,0.1393,-9.682400000000001,0.8573786778072755,1.917904659534207,2.0899999141693115,1.9499999284744263,2.0799999237060547,2.0899999141693115,1.6970992001046896,1.5834179209205748,1.6889791156486131,1.6970992001046896,1.6666488591946418,0.13100536519922043,2.6000001430511475,24.774999618530273,0.0,0.0,0.0,0.0,0.0,,,,,
arenacam6_1769712008711096390.png,1769712008711096390,1769712008.7110963,42.30114294248009,-83.69745207004867,239.20726013183594,0.7157619599293178,0.6982279353147838,0.0096460413868256,0.008337922388657042,-0.00096,0.008740000000000001,0.0,2.717,-0.32230000000000003,-9.4673,0.904116144453829,2.0224535681745484,2.309999942779541,2.180000066757202,2.0799999237060547,2.0899999141693115,1.8757412517364598,1.7701801538074635,1.6889791156486131,1.6970992001046896,1.7579999303243066,0.13075881790894991,2.9000000953674316,24.899999618530273,0.0,0.0,0.0,0.0,0.0,,,,,
arenacam6_1769712008731881019.png,1769712008731881019,1769712008.731881,42.30114310507544,-83.69745206985588,239.20809936523438,0.7157704082463231,0.6982180308668835,0.0096632759367483,0.008421707037994974,-0.007070000000000001,-0.004260000000000001,0.004370000000000001,2.2621,0.6328,-9.293700000000001,0.954678572008358,2.1355586848683767,2.309999942779541,2.3899998664855957,2.3299999237060547,2.3299999237060547,1.8757412517364598,1.9407019273850727,1.8919814206486132,1.8919814206486132,1.9001015051046897,0.11025554176152236,3.1000001430511475,25.075000762939453,0.0,0.0,0.0,0.0,0.0,,,,,
arenacam6_1769712008750527010.png,1769712008750527010,1769712008.750527,42.30114328533571,-83.69745207070721,239.20863342285156,0.7157789451493558,0.6982088326494864,0.009707183427075643,0.008408226984919864,-0.004190000000000001,0.00817,0.0025700000000000007,2.41,0.0724,-9.6967,0.9786410099234744,2.189161220738217,2.549999952316284,2.3899998664855957,2.549999952316284,2.5199999809265137,2.070623472280383,1.9407019273850727,2.070623472280383,2.046263218912153,2.032053022714498,0.07176639003807112,3.200000047683716,24.975000381469727,0.0,0.0,0.0,0.0,0.0,,,,,
arenacam6_1769712008771571393.png,1769712008771571393,1769712008.7715714,42.301143466613304,-83.69745207249754,239.2091522216797,0.7157729648961695,0.6982135912603301,0.009802313507726522,0.008411798440043854,-0.0049900000000000005,-0.0018700000000000004,0.0032800000000000004,2.3842000000000003,0.1278,-9.720500000000001,1.0510174577782312,2.351062992002437,2.7699999809265137,2.5999999046325684,2.7200000286102295,2.7100000381469727,2.2492655239121535,2.111223894560766,2.20866510163177,2.2005450171756937,2.1924248843200957,0.0674750562711323,3.200000047683716,25.075000762939453,0.0,0.0,0.0,0.0,0.0,,,,,
arenacam6_1769712008792175566.png,1769712008792175566,1769712008.7921755,42.301143654241095,-83.6974520713627,239.2095947265625,0.715771982833803,0.6982134185412718,0.009916261299363164,0.008376068344952081,-0.007440000000000001,0.00468,-0.003920000000000001,2.7680000000000002,0.0043,-9.6986,1.1031022018045342,2.467573439304635,2.8999998569488525,2.799999952316284,2.9099998474121094,2.7100000381469727,2.3548266218411498,2.2736257772803836,2.362946706297226,2.2005450171756937,2.2979860306486133,0.06872638761414605,3.299999952316284,24.899999618530273,0.0,0.0,0.0,0.0,0.0,,,,,
arenacam6_1769712008812658787.png,1769712008812658787,1769712008.8126588,42.30114386032945,-83.69745207166794,239.209716796875,0.7157693732178384,0.6982165007154355,0.010026927360116601,0.008208728266276477,0.005650000000000001,0.029820000000000006,-0.00032,2.9698,-0.0988,-9.5172,1.1517429950015565,2.576379975238782,3.069999933242798,2.9800000190734863,3.0799999237060547,2.8999998569488525,2.492868251192536,2.4197874910878467,2.500988335648613,2.3548266218411498,2.4421176749425366,0.052112771247494936,3.5,25.30000114440918,0.0,0.0,0.0,0.0,0.0,,,,,
arenacam6_1769712008876486246.png,1769712008876486246,1769712008.876486,42.301144753191345,-83.697452074208,239.21034240722656,0.7156894269852866,0.6982967244825331,0.010270912109576633,0.0080521452343019,-0.005130000000000001,0.0073300000000000014,-0.009810000000000001,2.7749,-0.40040000000000003,-9.8518,1.3017173117207916,2.911863523280708,3.4499998092651367,3.43999981880188,3.379999876022339,3.379999876022339,2.8014316541215325,2.793311569665456,2.7445910629289965,2.7445910629289965,2.7709813374112455,0.0483821390470714,4.200000286102295,25.075000762939453,0.0,0.0,0.0,0.0,0.0,,,,,
arenacam6_1769712008896788252.png,1769712008896788252,1769712008.8967881,42.30114499516468,-83.69745207226026,239.21063232421875,0.7156505702850895,0.6983344150992202,0.010408783906929663,0.00805997247110432,-0.00595,0.009950000000000002,-0.004900000000000001,2.2234000000000003,0.8687,-9.984200000000001,1.3481379871463348,3.0157037889671225,3.629999876022339,3.609999895095825,3.5,3.5299999713897705,2.947593367928996,2.931353199016843,2.8420322700000002,2.86639252336823,2.8968428400785173,0.03941399991718518,4.5,25.125,0.0,0.0,0.0,0.0,0.0,,,,,
arenacam6_1769712008916606955.png,1769712008916606955,1769712008.916607,42.30114525447875,-83.69745207020878,239.21092224121094,0.7155694764888466,0.6984166150473499,0.010488147557431004,0.008034606654542474,0.00018,0.006670000000000001,-0.0148,2.2783,0.4872,-9.6941,1.396580562100373,3.1240669225848086,3.7799999713897705,3.740000009536743,3.6999998092651367,3.669999837875366,3.06939482836823,3.0369144905439236,3.0044339591215325,2.9800737057533024,3.022704245946747,0.03244574432938059,4.5,25.075000762939453,0.0,0.0,0.0,0.0,0.0,,,,,
arenacam6_1769712008936917966.png,1769712008936917966,1769712008.936918,42.3011455147196,-83.69745206705387,239.2113494873047,0.7155109108241544,0.6984747217298616,0.010597803894623467,0.008055193889174788,-0.011590000000000001,0.00144,-0.010650000000000001,2.448,0.2288,-10.349400000000001,1.4448302244483577,3.2319985222775096,3.9700000286102295,3.859999895095825,3.8299999237060547,3.7899999618530273,3.2236766266317702,3.1343555040168427,3.109995250648613,3.0775149128243067,3.136385573530383,0.029583227866004896,4.5,24.92500114440918,0.0,0.0,0.0,0.0,0.0,,,,,
arenacam6_1769712008957774052.png,1769712008957774052,1769712008.9577742,42.30114578279596,-83.69745206402116,239.2120819091797,0.7154283171191067,0.6985592240613575,0.010641046228603908,0.008006352357834793,0.00221,0.00651,-0.013110000000000002,3.1234,-0.020200000000000003,-10.806600000000001,1.4970052943753511,3.348711023199998,4.130000114440918,4.019999980926514,3.990000009536743,4.019999980926514,3.3535981715270804,3.2642770489121533,3.239916795543923,3.2642770489121533,3.2805172662238276,0.02036418087548362,4.5,25.25,0.0,0.0,0.0,0.0,0.0,,,,,
arenacam6_1769712008978125940.png,1769712008978125940,1769712008.9781258,42.30114606766683,-83.69745206015385,239.21304321289062,0.7153749077800994,0.6986141770740832,0.010603135118401795,0.008034079622251802,0.00012,0.00839,-0.007580000000000002,2.0829,0.3526,-10.6888,1.5393324903551728,3.4433944209751006,4.279999732971191,4.179999828338623,4.150000095367432,4.130000114440918,3.4753992447701454,3.3941984002093792,3.369838340439234,3.3535981715270804,3.3982585392364597,0.013107961569461837,4.599999904632568,25.149999618530273,0.0,0.0,0.0,0.0,0.0,,,,,
arenacam6_1769712008998825536.png,1769712008998825536,1769712008.9988256,42.301146354616755,-83.69745205764286,239.2140655517578,0.7153140831288232,0.6986778450514491,0.010508683266543365,0.00803734333208614,0.007550000000000001,-0.00316,-0.007880000000000002,2.6801,0.08510000000000001,-10.5569,1.5905654413933052,3.5579994584703405,4.489999771118164,4.339999675750732,4.279999732971191,4.349999904632568,3.645921211945839,3.524119751506605,3.4753992447701454,3.5322400295607665,3.544420059445839,0.0038165826563502404,4.599999904632568,25.399999618530273,0.0,0.0,0.0,0.0,0.0,,,,,
arenacam6_1769712009019554550.png,1769712009019554550,1769712009.0195546,42.30114664835427,-83.6974520530898,239.21556091308594,0.7152807854751587,0.6987132553616697,0.010340266705261154,0.008140245475556637,0.0006100000000000001,-0.01391,-0.0018700000000000004,2.6772,-0.25630000000000003,-10.4928,1.6426642156030853,3.674541290451166,4.589999675750732,4.5,4.420000076293945,4.449999809265137,3.727122056506605,3.65404149,3.5890808143513873,3.6134408741215327,3.6459213087448816,0.007788722304102946,4.599999904632568,25.149999618530273,0.0,0.0,0.0,0.0,0.0,,,,,
arenacam6_1769712009040559628.png,1769712009040559628,1769712009.0405595,42.30114695986165,-83.69745205147434,239.21726989746094,0.7152683638783605,0.6987272446061945,0.010166239186306927,0.008249415774180221,0.00854,-0.009940000000000001,-0.0027400000000000002,2.1619,0.4559,-10.4068,1.683942860558623,3.7668791424980066,4.690000057220459,4.569999694824219,4.519999980926514,4.539999961853027,3.8083232882635407,3.710881887594452,3.6702816589121534,3.6865218278243064,3.719002165648613,0.012709984854370394,4.800000190734863,25.524999618530273,0.0,0.0,0.0,0.0,0.0,,,,,
arenacam6_1769712009060854512.png,1769712009060854512,1769712009.0608544,42.301147272686485,-83.69745205019665,239.21896362304688,0.7152346587469275,0.6987632414943286,0.009950798138637081,0.008384323461613646,0.005220000000000001,-0.019270000000000002,-0.004920000000000001,2.2348,0.13090000000000002,-10.2676,1.7303262176778187,3.87063592937222,4.960000038146973,4.670000076293945,4.699999809265137,4.730000019073486,4.027565762175694,3.7920831193513873,3.8164431791215323,3.8408036260878466,3.8692239216841156,0.0003647999227696882,4.800000190734863,25.149999618530273,0.0,0.0,0.0,0.0,0.0,,,,,
arenacam6_1769712009082274257.png,1769712009082274257,1769712009.0822742,42.30114759096886,-83.69745204736972,239.2210693359375,0.7152593458514875,0.6987397888362304,0.009554123226940972,0.008688751266256282,0.005790000000000001,-0.03314,0.0033600000000000006,1.6995,0.7663000000000001,-9.7509,1.8002362424504814,4.02702046018718,4.849999904632568,4.829999923706055,4.809999942779541,4.829999923706055,3.9382446395607666,3.922004470648613,3.90576430173646,3.922004470648613,3.922004470648613,0.026077838584829573,4.900000095367432,25.075000762939453,0.0,0.0,0.0,0.0,0.0,,,,,
arenacam6_1769712009102592343.png,1769712009102592343,1769712009.1025922,42.301147925859865,-83.69745204635859,239.22303771972656,0.7152379776700173,0.6987624842807475,0.009356783681298582,0.008836088469638452,0.0007400000000000001,-0.01964,-0.005640000000000001,2.0058000000000002,-0.057300000000000004,-9.584200000000001,1.8392183163297402,4.11422102053065,4.869999885559082,4.96999979019165,4.920000076293945,4.96999979019165,3.9544848084729196,4.035685653033686,3.995085424351387,4.035685653033686,4.005235384722919,0.02648998079195893,5.0,25.200000762939453,0.0,0.0,0.0,0.0,0.0,,,,,
arenacam6_1769712009124997698.png,1769712009124997698,1769712009.1249976,42.30114826390688,-83.69745204493273,239.22500610351562,0.7152371994370694,0.6987634683736491,0.009174423212586883,0.009010758378872484,-0.00177,-0.032170000000000004,0.0014900000000000002,2.9752,-0.3325,-9.9245,1.8950743469191775,4.239167609597385,5.029999732971191,5.029999732971191,5.150000095367432,5.109999656677246,4.084406159770146,4.084406159770146,4.181847560439234,4.149366835418759,4.125006678849571,0.026930034681656854,5.0,25.17500114440918,0.0,0.0,0.0,0.0,0.0,,,,,
arenacam6_1769712009143941399.png,1769712009143941399,1769712009.1439414,42.30114860577088,-83.69745204058212,239.2270050048828,0.7152376375906213,0.6987633551322104,0.008962574881122697,0.009196061638757433,0.006300000000000001,-0.019170000000000003,0.00011000000000000002,1.5753000000000001,1.0722,-9.3415,1.929339145162665,4.315815907380172,5.21999979019165,5.199999809265137,5.230000019073486,5.259999752044678,4.238687958033686,4.222447789121532,4.246808236087847,4.271168295857993,4.244778069775265,0.016459885947273607,5.0,25.075000762939453,0.0,0.0,0.0,0.0,0.0,,,,,
arenacam6_1769712009164794294.png,1769712009164794294,1769712009.1647944,42.301148964304964,-83.69745203770258,239.228515625,0.7151933930570853,0.6988097598158033,0.008857597931961735,0.009212658278074983,0.0018600000000000003,-0.008000000000000002,-0.007190000000000001,2.3008,0.11960000000000001,-8.8991,1.9718333171456999,4.410872820455902,5.319999694824219,5.299999713897705,5.400000095367432,5.46999979019165,4.319888802594452,4.3036486336822986,4.384849865439234,4.441690263033686,4.362519391187417,0.010962326785809858,5.0,25.350000381469727,0.0,0.0,0.0,0.0,0.0,,,,,
arenacam6_1769712009187200819.png,1769712009187200819,1769712009.1872008,42.301149325016375,-83.69745203288925,239.22991943359375,0.7151646252664046,0.6988394514727042,0.00877203364322505,0.009275303696119206,0.0029500000000000004,-0.010060000000000001,-0.004690000000000001,2.5111000000000003,0.3885,-9.1857,2.022834248737736,4.524958844371392,5.639999866485596,5.489999771118164,5.46999979019165,5.579999923706055,4.579731892385073,4.457930431945839,4.441690263033686,4.531011385648613,4.502590993253303,0.004943216477186825,5.0,25.149999618530273,0.0,0.0,0.0,0.0,0.0,,,,,
arenacam6_1769712009207535732.png,1769712009207535732,1769712009.2075355,42.30114969151544,-83.69745202707666,239.23098754882812,0.7150971522161226,0.6989092978892071,0.008706080254105148,0.00927687355828311,0.005300000000000001,-0.005460000000000001,-0.01119,1.9224,0.48560000000000003,-9.0928,2.0646361615601228,4.618467215240301,5.619999885559082,5.679999828338623,5.690000057220459,5.819999694824219,4.56349172347292,4.612212230209379,4.620332508263541,4.725893412594452,4.630482468635073,0.0026015673241379846,5.0,25.149999618530273,0.0,0.0,0.0,0.0,0.0,,,,,
arenacam6_1769712009226914256.png,1769712009226914256,1769712009.2269144,42.30115007314608,-83.69745201886401,239.2313232421875,0.7150100738465354,0.6990003162393124,0.008747908978487422,0.00908990009939977,0.01081,0.022980000000000004,-0.01152,2.4455,0.5751000000000001,-8.9147,2.1018190808706128,4.701643174762709,5.650000095367432,5.789999961853027,5.799999713897705,5.859999656677246,4.587852170439234,4.701533352824307,4.7096532436822995,4.758373750418759,4.68935312934115,0.002613989400031271,5.0,25.149999618530273,0.0,0.0,0.0,0.0,0.0,,,,,
arenacam6_1769712009247347042.png,1769712009247347042,1769712009.2473469,42.30115045709627,-83.69745201123487,239.2316436767578,0.71489692825715,0.699118811358696,0.008735765697600397,0.008885717223285227,0.01624,0.019360000000000002,-0.016960000000000003,2.1939,0.2575,-8.827300000000001,2.1480826777819337,4.805132065237519,5.909999847412109,5.920000076293945,5.859999656677246,5.909999847412109,4.798974366297227,4.807094644351388,4.758373750418759,4.798974366297227,4.79085428184115,0.0029713612867502378,5.0,25.125,0.0,0.0,0.0,0.0,0.0,,,,,
arenacam6_1769712009289774135.png,1769712009289774135,1769712009.2897742,42.30115124858569,-83.69745198944328,239.23170471191406,0.714692931861668,0.6993350480048424,0.00868025459591713,0.00831606632899968,0.03218,0.024210000000000002,-0.015010000000000003,1.8348,0.4015,-10.007800000000001,2.2203590146441603,4.966809894218108,6.190000057220459,6.230000019073486,6.179999828338623,6.21999979019165,5.02633711826354,5.058817456087847,5.01821684020938,5.050697178033686,5.038517148148613,0.014437285794646551,5.099999904632568,25.200000762939453,0.0,0.0,0.0,0.0,0.0,,,,,
arenacam6_1769712009309547405.png,1769712009309547405,1769712009.3095474,42.301151654205725,-83.69745197994891,239.23184204101562,0.7145819111575188,0.6994532837356693,0.008656051798260778,0.007928990170455633,0.026260000000000006,0.02101,-0.016580000000000004,2.2995,-0.48600000000000004,-9.8933,2.2647369391083263,5.066080648568979,6.339999675750732,6.359999656677246,6.269999980926514,6.239999771118164,5.148138191506605,5.164378360418758,5.091297793912154,5.0669373469458385,5.117687923195839,0.010186824530998576,5.099999904632568,25.149999618530273,0.0,0.0,0.0,0.0,0.0,,,,,
arenacam6_1769712009329982723.png,1769712009329982723,1769712009.3299828,42.301152063401375,-83.69745196877884,239.23194885253906,0.7145179031389371,0.6995218986511156,0.008684620938891515,0.007606363166604607,0.02099,0.030400000000000003,-0.007550000000000001,1.8998000000000002,0.0969,-10.5212,2.299094885262193,5.14293731263841,6.480000019073486,6.460000038146973,6.46999979019165,6.359999656677246,5.261819761087847,5.245579592175694,5.253699483033686,5.164378360418758,5.231369299178996,0.017194840451053253,5.200000286102295,25.225000381469727,0.0,0.0,0.0,0.0,0.0,,,,,
arenacam6_1769712009351074117.png,1769712009351074117,1769712009.351074,42.301152488442845,-83.69745196218872,239.23251342773438,0.7144498206068697,0.6995951062299411,0.008717005885604118,0.007221840646221997,0.006260000000000001,0.009210000000000001,-0.0021000000000000003,1.8406,-0.6188,-10.4078,2.358418240551883,5.27564009902013,6.639999866485596,6.579999923706055,6.599999904632568,6.460000038146973,5.391741112385073,5.343020605648613,5.3592607745607665,5.245579592175694,5.334900521192537,0.011232840197612053,5.300000190734863,25.075000762939453,0.0,0.0,0.0,0.0,0.0,,,,,
arenacam6_1769712009371411269.png,1769712009371411269,1769712009.371411,42.3011529135635,-83.69745195628587,239.23306274414062,0.7144531091808998,0.699591728348059,0.00887278100147424,0.007031512356582641,0.0010000000000000002,0.01623,-0.00143,2.3938,-0.3432,-10.5359,2.4001840104124943,5.3690676202521255,6.779999732971191,6.679999828338623,6.659999847412109,6.649999618530273,5.505422294770145,5.424221450209379,5.407981281297226,5.399861003243066,5.434371507379954,0.012162984664507093,5.400000095367432,25.075000762939453,0.0,0.0,0.0,0.0,0.0,,,,,
arenacam6_1769712009394058862.png,1769712009394058862,1769712009.3940587,42.30115334451736,-83.69745195368479,239.23382568359375,0.71447558775607,0.699568888062806,0.008983436394905918,0.006877734054619617,0.00515,0.02261,0.003,1.9597,-0.3138,-10.890500000000001,2.436033131008502,5.449259952078159,6.87999963760376,6.789999961853027,6.849999904632568,6.759999752044678,5.586623139330912,5.513542572824306,5.562263079560767,5.489182125857993,5.537902729393494,0.01626693864761023,5.5,24.850000381469727,0.0,0.0,0.0,0.0,0.0,,,,,
arenacam6_1769712009455527475.png,1769712009455527475,1769712009.4555273,42.3011546910138,-83.69745195561137,239.23765563964844,0.7145658603534183,0.6994721954652781,0.009409457231991531,0.006763216909308107,-0.01118,0.021300000000000003,0.005110000000000001,2.3301000000000003,-0.7103,-9.864600000000001,2.566647481475232,5.741436417211205,7.199999809265137,7.039999961853027,7.25,7.179999828338623,5.846466229121533,5.716544877824306,5.887066845,5.83022606020938,5.820076003038805,0.013696848682650285,5.5,24.649999618530273,0.0,0.0,0.0,0.0,0.0,,,,,
arenacam6_1769712009476100743.png,1769712009476100743,1769712009.476101,42.30115516110238,-83.69745196158755,239.23922729492188,0.714621145170921,0.6994121382360571,0.00956929506718841,0.006907123466759765,-0.018660000000000003,0.005200000000000001,0.010210000000000002,1.8718000000000001,1.0842,-9.903500000000001,2.610416742054788,5.8393456269720385,7.339999675750732,7.239999771118164,7.25,7.269999980926514,5.960147411506605,5.878946566945839,5.887066845,5.903307013912154,5.907366959341149,0.011648793668749298,5.400000095367432,24.774999618530273,0.0,0.0,0.0,0.0,0.0,,,,,
arenacam6_1769712009496720340.png,1769712009496720340,1769712009.4967203,42.3011561074954,-83.69745196805324,239.2423553466797,0.7146254574307572,0.6994063297210686,0.00960179684939351,0.007003358854693979,-0.013510000000000003,-0.011840000000000002,-0.00222,2.0893,-0.7096,-9.9478,2.654462451479679,5.937873236212954,7.37999963760376,7.369999885559082,7.37999963760376,7.369999885559082,5.992627749330913,5.98450785847292,5.992627749330913,5.98450785847292,5.988567803901916,0.008537495778757044,5.200000286102295,24.649999618530273,0.0,0.0,0.0,0.0,0.0,,,,,
arenacam6_1769712009516181133.png,1769712009516181133,1769712009.5161812,42.30115659936349,-83.69745197182301,239.2443084716797,0.7146581960295172,0.6993688732285577,0.009725946019734111,0.007228276480274319,-0.025710000000000004,-0.00928,0.0066500000000000005,2.1761,0.4812,-10.283000000000001,2.6956289933049056,6.029960320283476,7.369999885559082,7.399999618530273,7.349999904632568,7.480000019073486,5.98450785847292,6.008867918243065,5.968267689560766,6.073828981087847,6.008868111841149,0.0034979016978564912,5.0,24.725000381469727,0.0,0.0,0.0,0.0,0.0,,,,,
arenacam6_1769712009536980201.png,1769712009536980201,1769712009.5369802,42.301157092461395,-83.69745197807141,239.24620056152344,0.7146412260041802,0.6993850118450553,0.009669614509922361,0.007417671936924794,-0.0026500000000000004,-0.014260000000000002,-0.0082,2.1849000000000003,0.3058,-9.9456,2.735943873197597,6.1201422877106335,7.519999980926514,7.489999771118164,7.619999885559082,7.589999675750732,6.106309318912153,6.08194887194584,6.187510163472919,6.163149716506606,6.1347295177093795,0.0023834788985278004,4.599999904632568,24.875,0.0,0.0,0.0,0.0,0.0,,,,,
arenacam6_1769712009557506212.png,1769712009557506212,1769712009.5575063,42.30115759107923,-83.69745197953645,239.2480926513672,0.7146267540688701,0.699397568925713,0.009613359524421394,0.007695860474777394,-0.01972,-0.01898,0.0019000000000000002,1.5899,0.5871000000000001,-9.5248,2.7728103093035457,6.202610293293474,7.569999694824219,7.659999847412109,7.639999866485596,7.669999599456787,6.146909547594452,6.219990501297226,6.203750332385074,6.2281103921552186,6.199690193357993,0.0004707856527175582,4.400000095367432,24.825000762939453,0.0,0.0,0.0,0.0,0.0,,,,,
arenacam6_1769712009578579384.png,1769712009578579384,1769712009.5785794,42.301158103117736,-83.6974519822281,239.24996948242188,0.7145931147015016,0.6994326633486101,0.009449984580565403,0.007831197462942077,0.0073300000000000014,-0.025840000000000002,-0.008450000000000001,2.0566,0.4501,-9.537,2.812385492965316,6.2911376046338345,7.699999809265137,7.710000038146973,7.869999885559082,7.839999675750732,6.252470839121533,6.260591117175694,6.390512468472919,6.366152021506606,6.317431611569187,0.004179531364245716,4.200000286102295,24.975000381469727,0.0,0.0,0.0,0.0,0.0,,,,,
arenacam6_1769712009599028240.png,1769712009599028240,1769712009.599028,42.30115861377998,-83.6974519857895,239.25172424316406,0.7145669707621066,0.6994588777875101,0.009333408849074255,0.008013117954928312,-0.011800000000000001,-0.014810000000000002,-0.00039000000000000005,1.0368,-0.432,-9.462100000000001,2.8379023104623755,6.348217194365707,7.789999961853027,7.859999656677246,7.96999979019165,7.960000038146973,6.325551792824307,6.382392190418759,6.471713313033686,6.463593422175694,6.4108126796131115,0.00986032508512167,4.099999904632568,24.725000381469727,0.0,0.0,0.0,0.0,0.0,,,,,
arenacam6_1769712009642008814.png,1769712009642008814,1769712009.6420088,42.301159658173766,-83.69745198965293,239.25440979003906,0.7144998895791773,0.6995243845973165,0.009457717983014771,0.00812986565957868,-0.01137,0.0091,-0.0033200000000000005,1.2615,-0.2907,-9.496500000000001,2.9171594480466867,6.525510655713556,8.109999656677246,8.119999885559082,8.300000190734863,8.149999618530273,6.585394495418758,6.59351477347292,6.739676680878468,6.617874833243065,6.634115195753303,0.01664307144217989,4.0,24.774999618530273,0.0,0.0,0.0,0.0,0.0,,,,,
arenacam6_1769712009660814851.png,1769712009660814851,1769712009.6608148,42.30116018729432,-83.69745198875695,239.25558471679688,0.7144921587341233,0.6995284538842733,0.00973460204859232,0.00813233279483795,-0.01946,0.02329,0.00014000000000000004,1.9389,0.7284,-9.247300000000001,2.951830614896337,6.603067975686213,8.25,8.199999809265137,8.399999618530273,8.269999504089355,6.699076065,6.658475449121532,6.820877138243064,6.715315846715985,6.723436124770145,0.018229124632239278,4.099999904632568,24.649999618530273,0.0,0.0,0.0,0.0,0.0,,,,,
arenacam6_1769712009682047669.png,1769712009682047669,1769712009.6820478,42.30116072064616,-83.69745198906442,239.2564697265625,0.714490446619481,0.6995292610601741,0.009830444668003493,0.008097960714321272,-0.008450000000000001,0.01857,-0.00019000000000000004,1.8815000000000002,1.0326,-9.0672,2.9703921732610423,6.6445890680545565,8.34000015258789,8.399999618530273,8.289999961853027,8.34000015258789,6.772157018702774,6.820877138243064,6.731556402824307,6.772157018702774,6.7741868946182295,0.0195042650849163,4.099999904632568,24.80000114440918,0.0,0.0,0.0,0.0,0.0,,,,,
arenacam6_1769712009703773501.png,1769712009703773501,1769712009.7037735,42.30116126693983,-83.69745198459556,239.25738525390625,0.7144671857016512,0.6995532108789635,0.009956641481876466,0.007925338787443769,0.005220000000000001,0.016030000000000003,-0.0033900000000000007,1.6249,0.4612,-10.055200000000001,3.0039746595931676,6.71971107503034,8.420000076293945,8.550000190734863,8.449999809265137,8.460000038146973,6.837117694351387,6.9426789858784685,6.861477754121532,6.869598032175693,6.877718116631771,0.023513963597120414,4.099999904632568,24.825000762939453,0.0,0.0,0.0,0.0,0.0,,,,,
arenacam6_1769712009722931924.png,1769712009722931924,1769712009.7229319,42.30116126693983,-83.69745198459556,239.25738525390625,0.7144418628667917,0.6995785729686633,0.010132070229754788,0.007745061614747101,-0.0007100000000000001,0.022010000000000002,-0.0023500000000000005,2.0073000000000003,0.45890000000000003,-10.1456,3.040462736279587,6.8013327132932595,8.529999732971191,8.519999504089355,8.569999694824219,8.59999942779541,6.926438429770146,6.918318151715985,6.958918767594452,6.983278827364597,6.9467385441112945,0.02137902039902241,4.099999904632568,24.725000381469727,0.0,0.0,0.0,0.0,0.0,,,,,
arenacam6_1769712009745226687.png,1769712009745226687,1769712009.7452269,42.301161814700244,-83.69745197850368,239.25830078125,0.7144103842529232,0.6996130184857191,0.010171973896624387,0.0074805202985909315,0.022600000000000006,0.01997,-0.007420000000000001,2.0769,0.9541000000000001,-9.911900000000001,3.078264625551084,6.885893271480243,8.639999389648438,8.739999771118164,8.679999351501465,8.609999656677246,7.015759165188904,7.096960396945839,7.04823950301321,6.9913991054187585,7.038089542641678,0.022102618376586804,4.099999904632568,24.850000381469727,0.0,0.0,0.0,0.0,0.0,,,,,
arenacam6_1769712009766375082.png,1769712009766375082,1769712009.766375,42.30116293466965,-83.6974519652063,239.2606658935547,0.7143620149849658,0.6996664823141527,0.01008227293607477,0.007216151689203178,0.010290000000000002,0.00817,0.00024,1.8724,0.43460000000000004,-10.5108,3.134320282273284,7.011286412228401,8.75,8.739999771118164,8.729999542236328,8.720000267028809,7.105080675000001,7.096960396945839,7.088840118891678,7.080720615229854,7.092900451516843,0.01164038016562819,4.0,25.05000114440918,0.0,0.0,0.0,0.0,0.0,,,,,
arenacam6_1769712009786095708.png,1769712009786095708,1769712009.7860956,42.301163502968926,-83.69745195633386,239.26202392578125,0.7143149424387739,0.6997178465725458,0.009937645503614301,0.0070951672577240265,0.020820000000000005,-0.00613,-0.009640000000000001,2.3808000000000002,0.45680000000000004,-10.4451,3.178835902527251,7.1108651837993095,8.859999656677246,8.889999389648438,8.769999504089355,8.800000190734863,7.1944014104187595,7.2187614701889045,7.121320456715984,7.145681290878468,7.170041157050529,0.008321909039428914,4.0,25.225000381469727,0.0,0.0,0.0,0.0,0.0,,,,,
arenacam6_1769712009807778627.png,1769712009807778627,1769712009.8077786,42.30116407673859,-83.6974519470049,239.2636260986328,0.7142616291603952,0.6997765355027669,0.009674322670320566,0.007037964887197924,0.020930000000000004,-0.014320000000000003,-0.008140000000000001,1.7264000000000002,0.1555,-10.4639,3.2141737815013665,7.1899138987916675,8.829999923706055,8.929999351501465,8.869999885559082,8.889999389648438,7.170041350648613,7.25124180801321,7.2025216884729195,7.2187614701889045,7.210641579330912,0.002882882998463714,4.0,24.899999618530273,0.0,0.0,0.0,0.0,0.0,,,,,
arenacam6_1769712009827939857.png,1769712009827939857,1769712009.8279397,42.30116466380168,-83.69745193594024,239.26577758789062,0.7142031500252879,0.6998402668324376,0.009373282935593237,0.007042938368898306,0.026990000000000004,-0.021270000000000004,-0.008050000000000002,1.7547000000000001,1.1395,-10.081800000000001,3.2505862719359158,7.271366455144328,8.960000038146973,9.019999504089355,9.0,8.989999771118164,7.275602642175694,7.324322761715985,7.30808298,7.299962701945839,7.301992771459378,0.00421190659334505,4.0,25.0,0.0,0.0,0.0,0.0,0.0,,,,,
arenacam6_1769712009849453259.png,1769712009849453259,1769712009.8494532,42.30116525328434,-83.69745192667077,239.26779174804688,0.7141234830524532,0.6999277103336244,0.008911407149516708,0.007031221997492847,0.031920000000000004,-0.03990000000000001,-0.014910000000000003,2.2234000000000003,-0.041100000000000005,-10.0014,3.296604901028623,7.374307367306969,9.059999465942383,9.069999694824219,9.059999465942383,9.119999885559082,7.356803099540292,7.364923377594453,7.356803099540292,7.4055239934729205,7.371013392536989,0.00044668259755255405,4.0,24.875,0.0,0.0,0.0,0.0,0.0,,,,,
arenacam6_1769712009870331990.png,1769712009870331990,1769712009.870332,42.30116584767333,-83.69745191310291,239.27000427246094,0.7140545622964828,0.7000048459263359,0.008389932505230136,0.006993337957151666,0.04383,-0.028880000000000003,-0.008780000000000001,1.2744,0.1202,-10.479600000000001,3.3212383335924107,7.429410877946208,9.179999351501465,9.09999942779541,9.220000267028809,9.199999809265137,7.45424411301321,7.389283437364598,7.486725225229855,7.470484669121532,7.450184361182298,0.0027961144668624174,4.0,24.975000381469727,0.0,0.0,0.0,0.0,0.0,,,,,
arenacam6_1769712009888883706.png,1769712009888883706,1769712009.8888838,42.30116645297384,-83.69745190396716,239.27236938476562,0.7140030850754893,0.7000630340342439,0.007930805580575595,0.00696025892451159,0.029980000000000003,-0.027180000000000003,-0.00839,1.7905,-0.5494,-9.7296,3.352447033387958,7.499222866866859,9.260000228881836,9.40999984741211,9.239999771118164,9.289999961853027,7.519205563054161,7.641006636297226,7.502965006945839,7.543565622824306,7.551685707280384,0.006995770274452921,4.0,25.149999618530273,0.0,0.0,0.0,0.0,0.0,,,,,
arenacam6_1769712009909394339.png,1769712009909394339,1769712009.9093945,42.30116705926266,-83.69745189299098,239.27468872070312,0.7139770762251026,0.7000933004792986,0.0075501781294535705,0.0070071434458000665,0.025250000000000005,-0.03125000000000001,-0.004020000000000001,1.62,0.6415000000000001,-9.9032,3.385614075097459,7.5734155491485105,9.34000015258789,9.359999656677246,9.429999351501465,9.319999694824219,7.584166238702775,7.600406020418759,7.6572464180132105,7.567925682594453,7.6024360899323,0.003831896004577772,4.0,24.875,0.0,0.0,0.0,0.0,0.0,,,,,
arenacam6_1769712009929930765.png,1769712009929930765,1769712009.9299307,42.30116767061844,-83.69745188630111,239.27696228027344,0.7139304201776135,0.700144751086908,0.007137600184216262,0.00705247006928422,0.020310000000000005,-0.03567000000000001,-0.00821,1.0518,-1.1544,-10.0913,3.413427494069277,7.6356324985833295,9.399999618530273,9.300000190734863,9.609999656677246,9.59999942779541,7.632886358243065,7.551685900878468,7.803408325418759,7.795288047364597,7.695817157976222,0.007882079107927084,4.0,25.17500114440918,0.0,0.0,0.0,0.0,0.0,,,,,
arenacam6_1769712009950733830.png,1769712009950733830,1769712009.950734,42.3011682911807,-83.69745188465926,239.27938842773438,0.7139346368542812,0.7001395271909566,0.0070541771944489995,0.0072260188678602184,-0.013150000000000002,-0.0166,0.0008400000000000001,1.2169,-0.1573,-9.1792,3.437247149691941,7.68891563903189,9.539999961853027,9.579999923706055,9.84000015258789,9.529999732971191,7.746567927824307,7.779048265648614,7.990170848702774,7.738447649770146,7.81355867298646,0.01621074281551923,4.0,24.975000381469727,0.0,0.0,0.0,0.0,0.0,,,,,
arenacam6_1769712009971462963.png,1769712009971462963,1769712009.971463,42.301168913801824,-83.69745188018076,239.28158569335938,0.7139125795660582,0.7001590369030881,0.007101911225574976,0.007464223819040423,-0.01938,-0.009840000000000002,-0.004070000000000001,1.2788000000000002,-0.9819,-8.948400000000001,3.485420393069954,7.796676294073903,9.619999885559082,9.59000015258789,9.809999465942383,9.630000114440918,7.81152860347292,7.787168543702775,7.965810014540291,7.819648881527081,7.846039010810767,0.0063312512761859304,4.0,25.0,0.0,0.0,0.0,0.0,0.0,,,,,
arenacam6_1769712009993810302.png,1769712009993810302,1769712009.9938102,42.301169539546855,-83.69745188072552,239.2835693359375,0.7139481272091022,0.7001180195933617,0.00737445573444824,0.00764510941092178,-0.03393000000000001,0.01523,0.006060000000000001,0.8036000000000001,-0.1834,-9.1493,3.5030865193947216,7.836194358694829,9.739999771118164,9.809999465942383,9.819999694824219,9.819999694824219,7.908969616945839,7.965810014540291,7.973930292594452,7.973930292594452,7.955660054168759,0.015245371669651613,3.9000000953674316,24.875,0.0,0.0,0.0,0.0,0.0,,,,,
arenacam6_1769712010013499407.png,1769712010013499407,1769712010.0134995,42.30117017495083,-83.69745188662048,239.28518676757812,0.7139418229924701,0.7001184970768074,0.007791841800433622,0.007775000608234168,-0.03837000000000001,0.020120000000000002,-0.0019700000000000004,2.067,0.2318,-8.851700000000001,3.5405482848089536,7.919994080220541,9.899999618530273,9.889999389648438,9.869999885559082,9.889999389648438,8.038890968243065,8.030770690188904,8.014530908472919,8.030770690188904,8.028740814273448,0.013730658501941493,3.9000000953674316,24.850000381469727,0.0,0.0,0.0,0.0,0.0,,,,,
arenacam6_1769712010035172522.png,1769712010035172522,1769712010.0351727,42.301170812897695,-83.69745189062415,239.28671264648438,0.7139299407905454,0.7001263612922315,0.008074590368306296,0.007868853594519484,-0.022810000000000004,0.01832,-0.00033000000000000005,1.0385,0.07050000000000001,-9.9929,3.5656791244039887,7.976210260544259,10.0,9.949999809265137,9.949999809265137,9.949999809265137,8.1200922,8.079491584121532,8.079491584121532,8.079491584121532,8.08964173809115,0.014221224596848865,3.700000047683716,24.825000762939453,0.0,0.0,0.0,0.0,0.0,,,,,
arenacam6_1769712010056063602.png,1769712010056063602,1769712010.0560634,42.301171454767584,-83.69745189657176,239.28802490234375,0.7138867590250181,0.7001664603573825,0.008398816165537382,0.007879274483548743,-0.025370000000000004,0.02033,-0.005890000000000001,1.8087000000000002,-0.1534,-10.254800000000001,3.597464798076103,8.047312905408358,9.969999313354492,10.149999618530273,9.929999351501465,10.069999694824219,8.095731365837517,8.241893273243065,8.06325102801321,8.176932597594453,8.144452066172061,0.01207100580100704,3.5,24.975000381469727,0.0,0.0,0.0,0.0,0.0,,,,,
arenacam6_1769712010076100236.png,1769712010076100236,1769712010.0761003,42.30117210767873,-83.69745190577817,239.2900390625,0.7138546485304054,0.7001958688378224,0.008651740374060567,0.007901482296274912,-0.013590000000000001,0.017820000000000003,-0.00417,1.4426,0.9442,-9.414100000000001,3.6283722754889687,8.116451077932295,10.0,10.069999694824219,10.079999923706055,10.15999984741211,8.1200922,8.176932597594453,8.185052875648612,8.250013551297226,8.183022806135073,0.008202073487977858,3.4000000953674316,24.899999618530273,0.0,0.0,0.0,0.0,0.0,,,,,
arenacam6_1769712010096678239.png,1769712010096678239,1769712010.0966783,42.301173418995006,-83.69745191676503,239.29339599609375,0.7137771490584129,0.7002738535698361,0.00878181160740359,0.007848010791797998,-0.0048400000000000006,0.007380000000000001,-0.00909,1.6399000000000001,-0.095,-10.018,3.6619559464439297,8.191575734838285,10.149999618530273,10.25,10.25,10.229999542236328,8.241893273243065,8.323094505,8.323094505,8.306853948891678,8.298734058033686,0.013081527494113643,3.1000001430511475,24.55000114440918,0.0,0.0,0.0,0.0,0.0,,,,,
arenacam6_1769712010116334896.png,1769712010116334896,1769712010.116335,42.301173418995006,-83.69745191676503,239.29339599609375,0.7137330193437392,0.7003173523178235,0.008926849963595938,0.007816296485572208,-0.007510000000000001,0.013330000000000003,-0.00445,1.6141,0.5461,-9.7468,3.6925284059557253,8.2599644924186,10.219999313354492,10.359999656677246,10.380000114440918,10.329999923706055,8.298733670837517,8.412415240418758,8.428655796527082,8.388055180648614,8.381964972107992,0.01477009735348985,3.1000001430511475,24.725000381469727,0.0,0.0,0.0,0.0,0.0,,,,,
arenacam6_1769712010138475367.png,1769712010138475367,1769712010.1384752,42.301174759072225,-83.6974519275337,239.2972869873047,0.7136723634009428,0.7003795940666263,0.008971865741963403,0.007725772316636672,0.0082,0.004380000000000001,-0.007240000000000001,1.6062,0.8935000000000001,-9.6439,3.725879787103007,8.3345695309622,10.399999618530273,10.269999504089355,10.449999809265137,10.449999809265137,8.444895578243065,8.339334286715985,8.485496194121533,8.485496194121533,8.438805563300528,0.01250646862457623,3.1000001430511475,25.274999618530273,0.0,0.0,0.0,0.0,0.0,,,,,
arenacam6_1769712010157838279.png,1769712010157838279,1769712010.1578383,42.30117543474806,-83.6974519284564,239.29869079589844,0.7136265292412641,0.7004283493940098,0.008954863435918682,0.007557416826827147,0.011990000000000002,0.013880000000000002,-0.005220000000000001,1.3682,-0.0478,-9.6944,3.7527320446212924,8.394636419895154,10.429999351501465,10.609999656677246,10.529999732971191,10.5,8.46925563801321,8.615417545418758,8.550456869770146,8.52609681,8.540306715800527,0.017352782016876594,3.200000047683716,24.649999618530273,0.0,0.0,0.0,0.0,0.0,,,,,
arenacam6_1769712010178430263.png,1769712010178430263,1769712010.1784303,42.301176119677706,-83.69745193100185,239.30043029785156,0.7136023980569036,0.7004522730265246,0.009065025786234181,0.007487055957224118,-0.0035200000000000006,0.016080000000000004,-0.0007300000000000002,1.2864,0.5271,-9.4562,3.7798572127369594,8.455313793459814,10.609999656677246,10.519999504089355,10.639999389648438,10.59999942779541,8.615417545418758,8.542336591715985,8.639777605188904,8.607297267364597,8.60120725242206,0.017254647494584475,3.299999952316284,24.700000762939453,0.0,0.0,0.0,0.0,0.0,,,,,
arenacam6_1769712010199308921.png,1769712010199308921,1769712010.1993089,42.30117680585054,-83.69745193533858,239.30221557617188,0.7135675566913376,0.7004866170412651,0.009222811595808376,0.007401427558732352,-0.006720000000000001,0.016560000000000002,-0.006150000000000001,1.639,0.0064,-9.841800000000001,3.8104009707189843,8.523638347440125,10.710000038146973,10.670000076293945,10.630000114440918,10.699999809265137,8.696618777175694,8.664138439351387,8.631658101527082,8.688498499121533,8.670228454293923,0.0171980674071916,3.299999952316284,24.92500114440918,0.0,0.0,0.0,0.0,0.0,,,,,
arenacam6_1769712010219665454.png,1769712010219665454,1769712010.2196653,42.30117749651463,-83.6974519353309,239.3035125732422,0.7135665359755399,0.7004849741742275,0.009453678534247825,0.007363942841392853,-0.013710000000000003,0.021970000000000003,0.0032200000000000006,1.4516,0.3894,-9.8023,3.839237750722428,8.588144494101028,10.789999961853027,10.84000015258789,10.739999771118164,10.760000228881836,8.761579452824307,8.802180068702775,8.72097883694584,8.737219393054161,8.75548943788177,0.019485576179544634,3.299999952316284,25.125,0.0,0.0,0.0,0.0,0.0,,,,,
arenacam6_1769712010240432882.png,1769712010240432882,1769712010.240433,42.30117819815349,-83.69745193909162,239.3053741455078,0.7135293208201458,0.7005179600881513,0.009780703829136178,0.007404981869231456,-0.030190000000000005,0.020670000000000004,-0.006520000000000001,1.8478,-0.1622,-10.209100000000001,3.871868194307215,8.661136838573581,10.789999961853027,10.899999618530273,10.760000228881836,10.859999656677246,8.761579452824307,8.850900188243065,8.737219393054161,8.81841985041876,8.792029721135073,0.015112667655652542,3.299999952316284,24.950000762939453,0.0,0.0,0.0,0.0,0.0,,,,,
arenacam6_1769712010261200979.png,1769712010261200979,1769712010.261201,42.301178900479556,-83.69745194096893,239.3074951171875,0.7135084136237414,0.7005311393895826,0.010133914797865528,0.007692217140376685,-0.023320000000000004,-0.005860000000000001,-0.0032900000000000004,1.6235000000000002,0.7413000000000001,-11.2848,3.921425946595976,8.771994556978402,10.829999923706055,10.920000076293945,10.779999732971191,10.899999618530273,8.794059790648614,8.867140744351389,8.753459174770146,8.850900188243065,8.816389974503304,0.00506104024991483,3.299999952316284,24.825000762939453,0.0,0.0,0.0,0.0,0.0,,,,,
arenacam6_1769712010281682957.png,1769712010281682957,1769712010.281683,42.30117960870118,-83.69745194125774,239.30958557128906,0.7134672090163656,0.7005709858823478,0.010166221319675832,0.007841131443358686,-0.010290000000000002,-0.00619,-0.0073300000000000014,1.7140000000000002,0.2655,-11.153500000000001,3.950875744568657,8.837871988055412,10.949999809265137,10.960000038146973,10.859999656677246,10.989999771118164,8.891500804121533,8.899621082175694,8.81841985041876,8.92398114194584,8.883380719665457,0.005149286125840182,3.200000047683716,24.75,0.0,0.0,0.0,0.0,0.0,,,,,
arenacam6_1769712010302314284.png,1769712010302314284,1769712010.3023143,42.30118032693522,-83.69745194294354,239.31277465820312,0.7134220239579918,0.7006171019864956,0.010035531453223381,0.00799876516583267,0.0030300000000000006,-0.016220000000000002,-0.005890000000000001,1.5616,0.652,-10.8579,3.9808237963738,8.904863983060409,10.979999542236328,10.979999542236328,11.109999656677246,11.039999961853027,8.915860863891679,8.915860863891679,9.021422155418758,8.964581757824307,8.954431410256605,0.005566331758743055,3.200000047683716,24.950000762939453,0.0,0.0,0.0,0.0,0.0,,,,,
arenacam6_1769712010327431158.png,1769712010327431158,1769712010.3274312,42.30118104550498,-83.69745194460981,239.31602478027344,0.7133461166795846,0.7006974434478672,0.009726015867242662,0.008112655491850076,0.017210000000000003,-0.023220000000000005,-0.00969,1.4634,0.5658000000000001,-10.7368,4.009205198304516,8.968351476295304,11.050000190734863,11.079999923706055,11.25,11.059999465942383,8.972702035878468,8.997062095648614,9.135103725,8.980821539540292,9.021422349016843,0.005917572796049942,3.200000047683716,25.375,0.0,0.0,0.0,0.0,0.0,,,,,
arenacam6_1769712010387479776.png,1769712010387479776,1769712010.3874798,42.301183233634816,-83.69745193864114,239.32676696777344,0.713155816194892,0.7009043294053403,0.008692401648055823,0.008145244123815565,0.022970000000000004,-0.017320000000000002,-0.008520000000000002,1.1560000000000001,0.025900000000000003,-9.1865,4.082116262184678,9.131449151531394,11.309999465942383,11.309999465942383,11.359999656677246,11.34000015258789,9.18382384454029,9.18382384454029,9.224424460418758,9.208184678702773,9.200064207050527,0.007514147467779141,3.200000047683716,24.92500114440918,0.0,0.0,0.0,0.0,0.0,,,,,
arenacam6_1769712010407269575.png,1769712010407269575,1769712010.4072697,42.301183970431424,-83.69745193245204,239.32998657226562,0.7131099611288255,0.7009532129874692,0.008545111633052549,0.008109106520877919,0.01119,-0.011840000000000002,-0.00534,1.1887,0.678,-9.108500000000001,4.107235807030238,9.187640066178222,11.449999809265137,11.449999809265137,11.4399995803833,11.460000038146973,9.297505414121533,9.297505414121533,9.289385136067372,9.305625692175694,9.297505414121533,0.011957950806948768,3.200000047683716,25.0,0.0,0.0,0.0,0.0,0.0,,,,,
arenacam6_1769712010428459759.png,1769712010428459759,1769712010.42846,42.301184715317994,-83.6974519314356,239.33285522460938,0.7130353924315218,0.7010313496778221,0.008482767440211536,0.007976124715158066,0.012060000000000003,0.00572,-0.011920000000000002,1.4613,-0.303,-9.440100000000001,4.13029995027417,9.239233170766303,11.479999542236328,11.539999961853027,11.519999504089355,11.550000190734863,9.321865473891679,9.370586367824306,9.354345811715985,9.378706645878468,9.35637607482761,0.012678855690313871,3.1000001430511475,25.100000381469727,0.0,0.0,0.0,0.0,0.0,,,,,
arenacam6_1769712010447332688.png,1769712010447332688,1769712010.4473326,42.30118546050403,-83.69745192985151,239.33583068847656,0.7129834719115983,0.7010851263267581,0.008488022200621647,0.007884662541826785,0.0059700000000000005,0.012050000000000002,-0.006820000000000001,1.3244,0.42300000000000004,-9.9411,4.153639737652943,9.291442874745375,11.579999923706055,11.619999885559082,11.539999961853027,11.609999656677246,9.403066705648614,9.435547043472921,9.370586367824306,9.427426765418758,9.409156720591149,0.012669059847069222,3.1000001430511475,25.100000381469727,0.0,0.0,0.0,0.0,0.0,,,,,
arenacam6_1769712010468310291.png,1769712010468310291,1769712010.4683104,42.301186209827605,-83.69745192374027,239.33827209472656,0.7129433771214665,0.7011286249166495,0.0084288392913141,0.007703701014978272,0.021140000000000003,0.013820000000000002,-0.005940000000000001,1.4286,0.5498000000000001,-9.523200000000001,4.1797154408249915,9.349772658199058,11.719999313354492,11.649999618530273,11.649999618530273,11.710000038146973,9.516747500837518,9.459907103243065,9.459907103243065,9.508627997175694,9.486297426124835,0.01460193449795334,2.9000000953674316,24.92500114440918,0.0,0.0,0.0,0.0,0.0,,,,,
arenacam6_1769712010488692412.png,1769712010488692412,1769712010.4886925,42.30118696745447,-83.69745192065571,239.34097290039062,0.7128941570458405,0.7011819847520476,0.008319205931052637,0.007519037289203944,0.020680000000000004,0.011450000000000002,-0.0032200000000000006,0.9764,0.2929,-9.671800000000001,4.2018793038708635,9.39935189000089,11.789999961853027,11.710000038146973,11.800000190734863,11.819999694824219,9.573588672824306,9.508627997175694,9.581708950878468,9.597948732594453,9.56546858836823,0.017673207718082777,2.700000047683716,24.975000381469727,0.0,0.0,0.0,0.0,0.0,,,,,
arenacam6_1769712010509323100.png,1769712010509323100,1769712010.5093231,42.30118772619721,-83.69745191794559,239.3437042236328,0.7128592571723257,0.7012202960676879,0.00824474680938646,0.007334848090660363,0.018280000000000005,0.00661,-0.004670000000000001,1.2991000000000001,-0.013900000000000001,-9.4777,4.22822053249665,9.458275637963057,11.869999885559082,11.789999961853027,11.829999923706055,11.899999618530273,9.638549348472921,9.573588672824306,9.606069010648612,9.662909408243065,9.620279110047226,0.017128224877897367,2.4000000953674316,25.149999618530273,0.0,0.0,0.0,0.0,0.0,,,,,
arenacam6_1769712010530116382.png,1769712010530116382,1769712010.5301163,42.30118848895027,-83.6974519121323,239.3462371826172,0.712857586445365,0.7012253710097824,0.008146154439208589,0.007119035562065145,0.022080000000000002,0.011580000000000002,-1e-05,1.0653000000000001,-0.4506,-9.1491,4.252667860870356,9.512962844695336,11.859999656677246,12.0,12.0,12.029999732971191,9.630429070418758,9.74411064,9.74411064,9.768470699770145,9.721780262547227,0.02195082870194677,2.0,24.875,0.0,0.0,0.0,0.0,0.0,,,,,
arenacam6_1769712010550685040.png,1769712010550685040,1769712010.550685,42.301189261037855,-83.697451913044,239.34854125976562,0.7128619583659163,0.7012221695504661,0.00814571981729111,0.006996034184174282,0.00839,0.009110000000000002,0.0029800000000000004,1.0021,0.32830000000000004,-9.202200000000001,4.2761496470191265,9.565490191402965,11.989999771118164,12.179999351501465,12.079999923706055,12.0,9.73599036194584,9.890271773013211,9.809071315648612,9.74411064,9.794861022651915,0.023978993931236082,1.600000023841858,24.875,0.0,0.0,0.0,0.0,0.0,,,,,
arenacam6_1769712010571464052.png,1769712010571464052,1769712010.5714638,42.30119003356477,-83.69745191108117,239.3509063720703,0.7128938104122119,0.7011956676150337,0.00800198394204887,0.006558890672637863,0.03773000000000001,0.013360000000000002,0.005510000000000001,1.8145,0.4408,-9.2225,4.318798974188715,9.660894177321705,12.029999732971191,12.479999542236328,12.170000076293945,12.139999389648438,9.768470699770145,10.133874693891677,9.882152269351387,9.857791435188904,9.910572274550528,0.025844201649048795,0.9000000357627869,25.024999618530273,0.0,0.0,0.0,0.0,0.0,,,,,
arenacam6_1769712010592242231.png,1769712010592242231,1769712010.5922422,42.30119081056505,-83.69745190606588,239.35284423828125,0.7129336932520419,0.7011621962456742,0.0076470561357799465,0.006216599906879068,0.057510000000000006,-0.00477,0.006060000000000001,1.0841,1.3719000000000001,-8.6072,4.351085901077703,9.733118095556758,12.139999389648438,12.529999732971191,12.179999351501465,12.170000076293945,9.857791435188904,10.174475309770145,9.890271773013211,9.882152269351387,9.951172696830913,0.022403365410073265,0.5,25.0,0.0,0.0,0.0,0.0,0.0,,,,,
arenacam6_1769712010617242032.png,1769712010617242032,1769712010.617242,42.301192386846736,-83.69745189138038,239.35623168945312,0.7129300212729733,0.7011769662028191,0.007089743118330043,0.005601997576251256,0.08886000000000001,-0.0029500000000000004,-0.0037700000000000003,1.2016,0.9530000000000001,-8.9443,4.37702218979766,9.791136017245977,12.179999351501465,12.300000190734863,12.179999351501465,12.25999927520752,9.890271773013211,9.987713560878468,9.890271773013211,9.955232448661823,9.930872388891679,0.014271722035070503,-0.10000000149011612,25.05000114440918,0.0,0.0,0.0,0.0,0.0,,,,,
arenacam6_1769712010633706887.png,1769712010633706887,1769712010.633707,42.301192386846736,-83.69745189138038,239.35623168945312,0.7129189666698552,0.7012000997623702,0.006428138548126333,0.004862724589560953,0.10082,0.0007800000000000001,0.0004700000000000001,1.5601,0.2078,-9.2954,4.406406834283633,9.85686770388243,12.1899995803833,12.309999465942383,12.329999923706055,12.139999389648438,9.898392051067372,9.99583306454029,10.012073620648613,9.857791435188904,9.941022542861294,0.008537685754442675,-0.6000000238418579,25.024999618530273,0.0,0.0,0.0,0.0,0.0,,,,,
arenacam6_1769712010655532019.png,1769712010655532019,1769712010.6555321,42.30119317892777,-83.69745187553407,239.35743713378906,0.7129241719463446,0.7012037323373487,0.005850391687336707,0.004268925847963523,0.07711000000000001,-0.0028300000000000005,-0.0008200000000000001,0.4037,0.8315,-9.387500000000001,4.422223103169185,9.892247748403276,12.25999927520752,12.25999927520752,12.359999656677246,12.300000190734863,9.955232448661823,9.955232448661823,10.03643368041876,9.987713560878468,9.98365303465522,0.00924009270458242,-0.699999988079071,25.274999618530273,0.0,0.0,0.0,0.0,0.0,,,,,
arenacam6_1769712010676055970.png,1769712010676055970,1769712010.6760561,42.301193976787836,-83.69745186075644,239.3585205078125,0.7128970352758062,0.7012389015394801,0.005469115444044316,0.0034509185630511633,0.08871000000000001,0.03656000000000001,-0.0039000000000000007,0.8818,0.4506,-9.3458,4.430341476008437,9.910408061342315,12.559999465942383,12.40999984741211,12.539999961853027,12.369999885559082,10.198835369540292,10.077034296297228,10.182595587824308,10.04455395847292,10.125754803033686,0.021729351643085024,-1.0,25.225000381469727,0.0,0.0,0.0,0.0,0.0,,,,,
arenacam6_1769712010696562278.png,1769712010696562278,1769712010.6965623,42.301195578113365,-83.69745183110878,239.36033630371094,0.7128960612548494,0.7012453416499408,0.005186120780516874,0.0026982981357963824,0.06253,0.027080000000000003,0.0016400000000000002,1.6098000000000001,-1.0986,-9.1128,4.464241450668363,9.98624027065809,12.59000015258789,12.550000190734863,12.579999923706055,12.269999504089355,10.223196203702775,10.190715865878467,10.215075925648613,9.963352726715986,10.148085180486461,0.016206791088725293,-0.9000000357627869,25.200000762939453,0.0,0.0,0.0,0.0,0.0,,,,,
arenacam6_1769712010716446699.png,1769712010716446699,1769712010.7164466,42.3011963891617,-83.69745182314335,239.36155700683594,0.7128898758921749,0.7012519297001426,0.005308058170246605,0.0023622998808120257,0.004110000000000001,0.034050000000000004,0.0036200000000000004,0.7641,-0.1305,-10.397300000000001,4.481467664679229,10.024774277827555,12.630000114440918,12.559999465942383,12.609999656677246,12.479999542236328,10.255676541527082,10.198835369540292,10.23943598541876,10.133874693891677,10.206955647594453,0.018173114398180545,-0.9000000357627869,25.325000762939453,0.0,0.0,0.0,0.0,0.0,,,,,
arenacam6_1769712010757692598.png,1769712010757692598,1769712010.7576926,42.301198017235095,-83.69745181203366,239.3648223876953,0.7129175274952325,0.7012202389478575,0.005801651437085093,0.0022619285126900513,-0.05169000000000001,0.0030900000000000003,0.005930000000000001,2.2827,-2.089,-11.0585,4.544840935623719,10.166536482534122,12.960000038146973,12.929999351501465,12.670000076293945,12.579999923706055,10.523639522175694,10.499278688013211,10.288156879351387,10.215075925648613,10.381537753797225,0.021147936825139105,-0.9000000357627869,25.024999618530273,0.0,0.0,0.0,0.0,0.0,,,,,
arenacam6_1769712010778600290.png,1769712010778600290,1769712010.7786002,42.30119884582166,-83.697451819745,239.3675537109375,0.7129834322308146,0.7011485139066326,0.006144083167954623,0.0027635218314596443,-0.05629000000000001,-0.020870000000000003,0.00496,1.8467,0.1066,-11.1981,4.582037140161733,10.249742160313387,12.739999771118164,12.779999732971191,12.710000038146973,12.859999656677246,10.34499727694584,10.377477614770147,10.320637217175694,10.442438290418758,10.37138759982761,0.01186814630178989,-0.9000000357627869,25.024999618530273,0.0,0.0,0.0,0.0,0.0,,,,,
arenacam6_1769712010799212834.png,1769712010799212834,1769712010.7992127,42.30119967483409,-83.69745182714804,239.37037658691406,0.7129699342327874,0.7011566265739975,0.006469582706720888,0.0033767426712101568,-0.07154,-0.02014,0.0021900000000000005,1.8515000000000001,-1.1624,-11.078700000000001,4.610859616093645,10.31421630962452,12.829999923706055,12.75,12.75,12.75999927520752,10.418078230648614,10.353117554999999,10.353117554999999,10.361237058661825,10.37138759982761,0.005542960171364835,-1.100000023841858,24.875,0.0,0.0,0.0,0.0,0.0,,,,,
arenacam6_1769712010819629680.png,1769712010819629680,1769712010.8196297,42.30120050964731,-83.69745183588317,239.37356567382812,0.7130509495132379,0.7010698641991162,0.006557906164799703,0.004047564309046597,-0.044520000000000004,-0.03211000000000001,0.007360000000000001,1.3946,0.3899,-10.4734,4.638307107788709,10.375614701696875,12.779999732971191,12.829999923706055,12.809999465942383,13.059999465942383,10.377477614770147,10.418078230648614,10.401837674540293,10.60483997954029,10.450558374874836,0.007223058617019005,-1.3000000715255737,25.17500114440918,0.0,0.0,0.0,0.0,0.0,,,,,
arenacam6_1769712010840472887.png,1769712010840472887,1769712010.840473,42.30120135101994,-83.6974518426372,239.37718200683594,0.7130478640964757,0.7010711009745452,0.006422391062663625,0.004561554431420568,-0.02338,-0.03880000000000001,0.0029400000000000003,0.9275,0.4214,-9.7554,4.660806938149159,10.42594547222338,12.9399995803833,12.880000114440918,12.929999351501465,12.859999656677246,10.507398966067372,10.458678846527082,10.499278688013211,10.442438290418758,10.476948697756606,0.004891952069872939,-1.5,25.0,0.0,0.0,0.0,0.0,0.0,,,,,
arenacam6_1769712010861011718.png,1769712010861011718,1769712010.8610117,42.30120219251744,-83.69745185159489,239.380859375,0.7130500905555355,0.701072160717544,0.005808514429803695,0.004863639141164681,0.019340000000000003,-0.03817000000000001,-0.00642,1.0325,-0.8673000000000001,-10.4013,4.686705144173643,10.48387820520779,12.84999942779541,12.929999351501465,12.9399995803833,13.039999961853027,10.434318012364598,10.499278688013211,10.507398966067372,10.588600197824306,10.507398966067372,0.0022435171793486796,-1.5,25.375,0.0,0.0,0.0,0.0,0.0,,,,,
arenacam6_1769712010882044764.png,1769712010882044764,1769712010.8820446,42.30120303671479,-83.69745185390303,239.3843994140625,0.7130926750557522,0.7010308409194471,0.005447555340658735,0.004992093990956284,0.023150000000000004,-0.03214,0.009470000000000001,0.5182,1.5377,-9.693100000000001,4.6974723340365205,10.507963762899655,13.139999389648438,13.019999504089355,13.029999732971191,13.029999732971191,10.669800655188904,10.572359641715984,10.580479919770147,10.580479919770147,10.600780034111295,0.008832945497903793,-1.399999976158142,25.30000114440918,0.0,0.0,0.0,0.0,0.0,,,,,
arenacam6_1769712010902543747.png,1769712010902543747,1769712010.9025438,42.3012038869666,-83.69745185984583,239.38819885253906,0.713066121582184,0.7010628234161342,0.004982549917655991,0.0047747326478488825,0.04711000000000001,-0.009580000000000002,-0.00872,1.4080000000000001,-0.9332,-9.9383,4.718889032901806,10.555871633259367,13.25999927520752,13.09999942779541,13.229999542236328,13.09999942779541,10.767241668661823,10.637320317364598,10.742881608891679,10.637320317364598,10.696190978070675,0.013293013564999318,-1.399999976158142,25.225000381469727,0.0,0.0,0.0,0.0,0.0,,,,,
arenacam6_1769712010927850974.png,1769712010927850974,1769712010.927851,42.301204738815585,-83.69745187202804,239.39195251464844,0.7131437301864222,0.7009837828834988,0.0048124891227194514,0.004959453455682535,-0.017530000000000004,-0.028220000000000002,0.018940000000000002,1.1346,-0.6682,-9.4624,4.745320232488626,10.614996640863108,13.039999961853027,13.09000015258789,13.289999961853027,13.149999618530273,10.588600197824306,10.629200813702774,10.791602502824306,10.677920933243065,10.671831111898612,0.005354167594996336,-0.800000011920929,25.55000114440918,0.0,0.0,0.0,0.0,0.0,,,,,
arenacam6_1769712010988045685.png,1769712010988045685,1769712010.9880455,42.30120731835999,-83.69745190300375,239.40200805664062,0.7133960761216208,0.7007148254634552,0.005358848465982829,0.00600455602959919,-0.07442000000000001,-0.016110000000000003,0.015210000000000003,1.0882,-0.18530000000000002,-9.3805,4.8094758329460285,10.75850886975029,13.299999237060547,13.25999927520752,13.40999984741211,13.420000076293945,10.799722006486132,10.767241668661823,10.889043516297226,10.897163794351389,10.838292746449142,0.007415886129273884,-0.30000001192092896,25.30000114440918,0.0,0.0,0.0,0.0,0.0,,,,,
arenacam6_1769712011008590582.png,1769712011008590582,1769712011.0085907,42.301208185752884,-83.69745191561147,239.40489196777344,0.7134547534671616,0.7006453673353045,0.005879531733133473,0.006619297038735354,-0.07956,-0.006710000000000001,0.006410000000000002,0.6648000000000001,0.30060000000000003,-9.767000000000001,4.822425777892386,10.787477119598595,13.469999313354492,13.34000015258789,13.429999351501465,13.449999809265137,10.937763635837516,10.832203118702774,10.905283298013211,10.921523854121533,10.899193476668758,0.010356115320717374,-0.4000000059604645,25.600000381469727,0.0,0.0,0.0,0.0,0.0,,,,,
arenacam6_1769712011026791991.png,1769712011026791991,1769712011.026792,42.30120905977109,-83.69745193109922,239.4079132080078,0.7134948882028972,0.7005926595959291,0.006475852067065308,0.007282387564737695,-0.09418000000000001,-0.0021200000000000004,0.007280000000000001,1.7018,-0.3785,-9.8216,4.8502881160576425,10.849803498333983,13.539999961853027,13.679999351501465,13.449999809265137,13.429999351501465,10.994604807824306,11.108285603013211,10.921523854121533,10.905283298013211,10.982424390743065,0.012223345098318631,-0.5,25.55000114440918,0.0,0.0,0.0,0.0,0.0,,,,,
arenacam6_1769712011047384686.png,1769712011047384686,1769712011.0473845,42.30120993474458,-83.6974519456149,239.4106903076172,0.7135484162868794,0.7005253740483186,0.006908832229743825,0.008070066057388919,-0.07726000000000001,-0.027230000000000004,0.008100000000000001,1.1266,1.2127000000000001,-10.126100000000001,4.879200513355639,10.914478796345763,13.449999809265137,13.619999885559082,13.5,13.649999618530273,10.921523854121533,11.059565483472921,10.962124470000001,11.083925543243065,11.006784837709379,0.008457210196287162,-0.800000011920929,25.524999618530273,0.0,0.0,0.0,0.0,0.0,,,,,
arenacam6_1769712011067981460.png,1769712011067981460,1769712011.0679815,42.301210814174006,-83.69745195830788,239.41363525390625,0.7135334043536449,0.7005329348263591,0.007116330376624385,0.008546691584271007,-0.0407,-0.00974,-0.0031500000000000005,0.1661,0.5894,-9.6586,4.8857695719350716,10.92917338624444,13.75,13.679999351501465,13.609999656677246,13.65999984741211,11.165126775000001,11.108285603013211,11.051445205418759,11.092045821297226,11.1042258511823,0.016016990375336385,-1.100000023841858,25.600000381469727,0.0,0.0,0.0,0.0,0.0,,,,,
arenacam6_1769712011088590562.png,1769712011088590562,1769712011.0885906,42.30121169794713,-83.69745196540218,239.41622924804688,0.7135317887841189,0.7005336279951349,0.007153386907895725,0.008593689443719464,0.008380000000000002,0.004540000000000001,-0.0008400000000000001,1.5775000000000001,1.199,-9.0162,4.906383687276511,10.975285925416319,13.75999927520752,13.569999694824219,13.65999984741211,13.779999732971191,11.173246278661823,11.018964867594454,11.092045821297226,11.189486834770145,11.118435950580912,0.01304294267478617,-1.2000000476837158,25.75,0.0,0.0,0.0,0.0,0.0,,,,,
arenacam6_1769712011109321943.png,1769712011109321943,1769712011.109322,42.3012125834975,-83.69745197361173,239.41893005371094,0.7134947033249415,0.7005757945247361,0.006825538959278879,0.008501556987051621,0.03563000000000001,-0.017490000000000002,-0.0034700000000000004,0.26030000000000003,0.9962000000000001,-9.3774,4.928305828059624,11.024324439019697,13.699999809265137,13.84999942779541,13.769999504089355,13.75999927520752,11.124526159121533,11.246327232364598,11.181366556715986,11.173246278661823,11.181366556715984,0.014245055882104602,-1.2000000476837158,26.05000114440918,0.0,0.0,0.0,0.0,0.0,,,,,
arenacam6_1769712011129913196.png,1769712011129913196,1769712011.129913,42.30121347236116,-83.697451970981,239.4215087890625,0.7135231810825681,0.700555198284005,0.0065151929373205505,0.008039681340730385,0.05875000000000001,0.016380000000000002,0.00013000000000000002,0.2469,1.3943,-9.577200000000001,4.929320859616817,11.026595003711245,13.809999465942383,13.889999389648438,13.84000015258789,13.75999927520752,11.213846894540291,11.278807570188903,11.238207728702776,11.173246278661823,11.226027118023447,0.018086464066656923,-1.0,26.375,0.0,0.0,0.0,0.0,0.0,,,,,
arenacam6_1769712011150651073.png,1769712011150651073,1769712011.1506512,42.30121436519752,-83.69745196705392,239.42384338378906,0.7134581981924123,0.7006310058304834,0.006180957847716916,0.007442369319394946,0.06728,0.010610000000000003,-0.00543,1.5898,0.5914,-9.5328,4.957862359429498,11.090440626302222,14.119999885559082,13.989999771118164,13.920000076293945,13.84000015258789,11.46557009347292,11.36000880194584,11.303168404351387,11.238207728702776,11.34173875711823,0.022658985272418056,-0.9000000357627869,26.774999618530273,0.0,0.0,0.0,0.0,0.0,,,,,
arenacam6_1769712011171347184.png,1769712011171347184,1769712011.1713471,42.301215257398475,-83.697451962233,239.4263153076172,0.7134580209159987,0.7006440987963583,0.005599255252216344,0.006644362504083461,0.05791000000000001,0.009040000000000001,-0.006070000000000001,1.1681000000000001,0.2762,-10.2516,4.990401687292133,11.163229150371265,14.25,14.1899995803833,14.029999732971191,13.949999809265137,11.571131385000001,11.522410491067372,11.392489139770145,11.327528464121533,11.453389869989763,0.025992543529293064,-0.6000000238418579,26.200000762939453,0.0,0.0,0.0,0.0,0.0,,,,,
arenacam6_1769712011192077403.png,1769712011192077403,1769712011.1920774,42.30121615578934,-83.69745195123417,239.42881774902344,0.7134412467731708,0.7006673632064065,0.005314500725591494,0.00621205458467324,0.05054,0.0032000000000000006,-0.0009200000000000001,1.6111,1.0665,-9.6259,5.019054797783783,11.227324439354456,13.929999351501465,14.139999389648438,14.00999927520752,14.170000076293945,11.311287908013211,11.481809875188905,11.376248583661823,11.506170709351387,11.41887926905383,0.01706148519480996,-0.20000000298023224,26.30000114440918,0.0,0.0,0.0,0.0,0.0,,,,,
arenacam6_1769712011213121047.png,1769712011213121047,1769712011.213121,42.301217062228936,-83.6974519390837,239.4311981201172,0.713346543239416,0.7007694546212935,0.004914076164078153,0.005893434788367237,0.049670000000000006,-0.007410000000000001,-0.01957,1.3856000000000002,0.332,-9.5905,5.048139713356425,11.292385650395524,14.049999237060547,14.039999961853027,14.059999465942383,14.229999542236328,11.40872892148613,11.400609417824308,11.416849199540291,11.554890828891677,11.4452695919356,0.013538675198780716,-0.10000000149011612,26.274999618530273,0.0,0.0,0.0,0.0,0.0,,,,,
arenacam6_1769712011235693406.png,1769712011235693406,1769712011.2356932,42.30121796832789,-83.69745192944633,239.43357849121094,0.7132573030390587,0.7008647469685736,0.004589505139997095,0.005618056665425112,0.04191,0.0031400000000000004,-0.00973,0.9421,0.4207,-9.2416,5.065896420206906,11.332106338217637,14.139999389648438,14.09999942779541,14.069999694824219,14.289999961853027,11.481809875188905,11.449329537364598,11.424969477594452,11.603611722824308,11.489930153243066,0.013927138549094501,-0.20000000298023224,26.0,0.0,0.0,0.0,0.0,0.0,,,,,
arenacam6_1769712011255948930.png,1769712011255948930,1769712011.255949,42.30121888115376,-83.69745191073294,239.4359130859375,0.7131819199949688,0.7009463419002937,0.004203240733450549,0.005301654102550291,0.054020000000000006,-0.0013300000000000002,-0.014620000000000001,0.8436,0.5304,-8.959200000000001,5.08669483801616,11.37863115095187,14.059999465942383,14.279999732971191,14.1899995803833,14.25,11.416849199540291,11.595491444770145,11.522410491067372,11.571131385000001,11.526470630094451,0.012992729721291089,-0.10000000149011612,26.375,0.0,0.0,0.0,0.0,0.0,,,,,
arenacam6_1769712011276799896.png,1769712011276799896,1769712011.2768,42.301220717188286,-83.69745187872044,239.43971252441406,0.7130514700031634,0.7010824978584075,0.0039046239221377675,0.005068158933039615,0.028120000000000003,-0.011200000000000002,-0.017070000000000002,1.2291,-0.38370000000000004,-10.1646,5.111789638845723,11.434766714719553,14.25999927520752,14.219999313354492,14.00999927520752,14.289999961853027,11.579250888661823,11.546770550837518,11.376248583661823,11.603611722824308,11.526470436496368,0.008019728260723348,-0.30000001192092896,26.225000381469727,0.0,0.0,0.0,0.0,0.0,,,,,
arenacam6_1769712011297415651.png,1769712011297415651,1769712011.2974157,42.30122164006619,-83.69745186279319,239.44204711914062,0.7130122872422588,0.7011256494399228,0.0034979164999996253,0.004905763871990174,0.047670000000000004,-0.012150000000000001,-0.005490000000000001,0.3519,0.4257,-11.4053,5.124182521908816,11.462488850558708,14.359999656677246,14.449999809265137,14.34000015258789,14.210000038146973,11.66045212041876,11.733533074121533,11.644212338702776,11.538651047175694,11.644212145104689,0.015853737954748173,-0.30000001192092896,26.325000762939453,0.0,0.0,0.0,0.0,0.0,,,,,
arenacam6_1769712011316583116.png,1769712011316583116,1769712011.3165832,42.30122256782763,-83.69745185167193,239.44456481933594,0.712928003667591,0.7012138889307153,0.003237013069537989,0.0047186124648623635,0.021120000000000003,-0.004660000000000001,-0.016860000000000003,1.4349,-1.5854000000000001,-10.4595,5.14680792925205,11.513100529261083,14.269999504089355,14.4399995803833,14.219999313354492,14.329999923706055,11.587371166715984,11.725412796067372,11.546770550837518,11.636092060648613,11.623911643567373,0.009624784741925864,-0.30000001192092896,26.5,0.0,0.0,0.0,0.0,0.0,,,,,
arenacam6_1769712011337172953.png,1769712011337172953,1769712011.337173,42.30122349533724,-83.69745183795219,239.4469451904297,0.7129254838165975,0.7012172542913176,0.0030435536662196763,0.004727958343383384,0.01729,-0.010940000000000002,0.0035300000000000006,0.9707,0.1831,-9.597100000000001,5.167222758981127,11.558767278475242,14.469999313354492,14.420000076293945,14.469999313354492,14.399999618530273,11.749772855837517,11.709173014351387,11.749772855837517,11.692932458243066,11.72541279606737,0.01441723962229569,-0.5,26.575000762939453,0.0,0.0,0.0,0.0,0.0,,,,,
arenacam6_1769712011358261845.png,1769712011358261845,1769712011.3582618,42.30122442858903,-83.69745183278471,239.44979858398438,0.7128969733585013,0.7012471865830262,0.0028778760365828567,0.004691110230714057,0.004790000000000001,-0.010410000000000003,-0.0037700000000000003,0.8585,-2.0398,-9.640500000000001,5.186459998314496,11.60179982862963,14.469999313354492,14.589999198913574,14.65999984741211,14.559999465942383,11.749772855837517,11.847213869310437,11.904055041297227,11.822853809540293,11.830973893996369,0.01975332006687514,-0.5,26.575000762939453,0.0,0.0,0.0,0.0,0.0,,,,,
arenacam6_1769712011378645948.png,1769712011378645948,1769712011.378646,42.30122536692149,-83.69745183985442,239.45144653320312,0.7129792313848936,0.7011610405196684,0.0031791924359810533,0.004868634987047024,-0.044610000000000004,0.015880000000000002,0.015880000000000002,0.9944000000000001,-1.3909,-8.6381,5.201318714400976,11.635037884992121,14.50999927520752,14.50999927520752,14.739999771118164,14.589999198913574,11.782253193661825,11.782253193661825,11.96901571694584,11.847213869310437,11.845183993394983,0.018061488968070003,-0.6000000238418579,26.524999618530273,0.0,0.0,0.0,0.0,0.0,,,,,
arenacam6_1769712011401027303.png,1769712011401027303,1769712011.4010274,42.30122630556346,-83.69745184650407,239.45314025878906,0.7130389713257793,0.7010962493177193,0.0036013843708423,0.005148261251558598,-0.04844000000000001,0.010720000000000002,0.007240000000000001,1.2169,-0.7318,-8.3985,5.227126954352423,11.69276936926911,14.6899995803833,14.65999984741211,14.699999809265137,14.65999984741211,11.928415101067372,11.904055041297227,11.936535379121532,11.904055041297227,11.918265140695839,0.019285061075383584,-0.699999988079071,26.475000381469727,0.0,0.0,0.0,0.0,0.0,,,,,
arenacam6_1769712011421576024.png,1769712011421576024,1769712011.421576,42.30122725033527,-83.6974518587953,239.45465087890625,0.7132140394878955,0.7009107522152214,0.004366657875916785,0.005548297526797661,-0.055990000000000005,0.023870000000000006,0.018330000000000003,1.1748,-0.1797,-9.5966,5.254152002972851,11.75322278153009,14.75999927520752,14.769999504089355,14.679999351501465,14.6899995803833,11.985255498661825,11.993375776715984,11.92029482301321,11.928415101067372,11.956835299864597,0.01732397335771425,-0.9000000357627869,26.700000762939453,0.0,0.0,0.0,0.0,0.0,,,,,
arenacam6_1769712011442390133.png,1769712011442390133,1769712011.44239,42.30122820020922,-83.69745187254327,239.45594787597656,0.7133061011310726,0.7008131131232737,0.004737947474955867,0.005739200064309334,-0.03411,0.010340000000000002,0.011460000000000001,1.1767,0.0471,-10.4533,5.278256321723184,11.80714269631546,14.809999465942383,14.6899995803833,14.679999351501465,14.769999504089355,12.025856114540291,11.928415101067372,11.92029482301321,11.993375776715984,11.966985453834214,0.013537801789135252,-1.3000000715255737,26.67500114440918,0.0,0.0,0.0,0.0,0.0,,,,,
arenacam6_1769712011463126273.png,1769712011463126273,1769712011.4631262,42.30122915096908,-83.69745188801996,239.4575653076172,0.7133998694693455,0.7007143435697506,0.004989689584935688,0.0059277276068049585,-0.03230000000000001,-0.00158,0.01523,1.2376,0.38780000000000003,-10.8556,5.304037046071023,11.864812629838115,14.789999961853027,14.809999465942383,14.65999984741211,14.699999809265137,12.009616332824306,12.025856114540291,11.904055041297227,11.936535379121532,11.969015716945838,0.008782531200338518,-1.600000023841858,26.399999618530273,0.0,0.0,0.0,0.0,0.0,,,,,
arenacam6_1769712011483732324.png,1769712011483732324,1769712011.4837322,42.301230107088884,-83.6974519006622,239.4597930908203,0.7134682233414635,0.7006437101348922,0.0049897764413920406,0.00604879008179205,0.0025400000000000006,-0.00992,0.007190000000000001,0.5074000000000001,1.3694000000000002,-10.4754,5.319167410471236,11.898658347179527,14.84999942779541,14.710000038146973,14.880000114440918,14.929999351501465,12.058336452364598,11.944655657175694,12.082697286527083,12.123297128013212,12.052246631020148,0.012908033776516328,-1.8000000715255737,26.67500114440918,0.0,0.0,0.0,0.0,0.0,,,,,
arenacam6_1769712011504213089.png,1769712011504213089,1769712011.504213,42.301231067611766,-83.69745191142651,239.4620819091797,0.7134801340842755,0.7006319623650463,0.0049861638246376,0.00600747450288579,-0.0027700000000000003,-0.00020000000000000004,-0.00032,0.9452,-0.6271,-9.8285,5.337425802013614,11.939501273556335,14.960000038146973,14.949999809265137,14.899999618530273,15.0,12.147657962175694,12.139537684121532,12.098937068243064,12.180138300000001,12.141567753635075,0.016924197707175386,-2.1000001430511475,26.600000381469727,0.0,0.0,0.0,0.0,0.0,,,,,
arenacam6_1769712011586388301.png,1769712011586388301,1769712011.586388,42.30123493856733,-83.69745194062037,239.47137451171875,0.713545229184645,0.7005564371591191,0.0058049118038825944,0.006339342371453718,-0.06841000000000001,-0.0015,0.01523,1.0525,0.0327,-9.0149,5.420609839955513,12.125578975390086,15.059999465942383,15.1899995803833,15.210000038146973,15.119999885559082,12.228858419540291,12.33441971106737,12.350660267175694,12.27757931347292,12.297879427814069,0.014209668072236495,-1.5,27.05000114440918,0.0,0.0,0.0,0.0,0.0,,,,,
arenacam6_1769712011606172552.png,1769712011606172552,1769712011.6061726,42.301235915006146,-83.69745195072096,239.47377014160156,0.7135754036901913,0.7005190915174876,0.006366094515403849,0.006528285266049932,-0.042260000000000006,0.044390000000000006,0.00128,0.2831,0.8122,-9.2933,5.422805229692675,12.130489930508734,15.319999694824219,15.429999351501465,15.369999885559082,15.25999927520752,12.439981002594452,12.529301738013212,12.480581618472918,12.391260108661823,12.460281116935601,0.02718696345457797,-1.3000000715255737,27.075000762939453,0.0,0.0,0.0,0.0,0.0,,,,,
arenacam6_1769712011626743080.png,1769712011626743080,1769712011.626743,42.30123689854331,-83.69745196147797,239.47549438476562,0.7136465821939222,0.7004399091294261,0.006926588414719396,0.006671716018235934,-0.05977000000000001,0.018670000000000003,0.015370000000000002,2.2765,-1.0921,-9.9543,5.463022290219125,12.22045308188277,15.1899995803833,15.299999237060547,15.229999542236328,15.339999198913574,12.33441971106737,12.42374044648613,12.36690004889168,12.456220784310437,12.395320247688906,0.014309384818586,-1.100000023841858,27.149999618530273,0.0,0.0,0.0,0.0,0.0,,,,,
arenacam6_1769712011647461962.png,1769712011647461962,1769712011.647462,42.3012378796267,-83.69745196262761,239.4775390625,0.7137799852302275,0.700296876261504,0.007270746546753551,0.0070394621789387525,-0.035690000000000006,0.0071200000000000005,0.015260000000000003,0.4323,2.595,-10.923300000000001,5.4793904804487426,12.25706774133501,15.429999351501465,15.25,15.299999237060547,15.329999923706055,12.529301738013212,12.383140605000001,12.42374044648613,12.448101280648613,12.446071017536989,0.015419942207269912,-1.100000023841858,27.274999618530273,0.0,0.0,0.0,0.0,0.0,,,,,
arenacam6_1769712011668157740.png,1769712011668157740,1769712011.6681576,42.30123886978298,-83.69745197098973,239.47998046875,0.7137894371594764,0.7002887838175832,0.007293950960789233,0.006859805990686248,0.017210000000000003,0.016970000000000002,0.0016000000000000003,1.5815000000000001,0.19060000000000002,-11.2108,5.498810121599608,12.30050831341103,15.34999942779541,15.339999198913574,15.309999465942383,15.399999618530273,12.464341062364598,12.456220784310437,12.431860724540291,12.504941678243066,12.464341062364598,0.01331918525472193,-1.100000023841858,26.899999618530273,0.0,0.0,0.0,0.0,0.0,,,,,
arenacam6_1769712011689033946.png,1769712011689033946,1769712011.689034,42.3012398645778,-83.6974519686411,239.48300170898438,0.7138462823403497,0.7002329354032452,0.007101540293966684,0.006847590150506345,0.015500000000000002,-0.014570000000000001,0.006980000000000001,0.9660000000000001,1.0993,-10.4054,5.52659515600967,12.362661768284273,15.559999465942383,15.389999389648438,15.429999351501465,15.549999237060547,12.634863029540291,12.496821400188903,12.529301738013212,12.62674275148613,12.571932229807135,0.016927621692258418,-1.100000023841858,27.350000381469727,0.0,0.0,0.0,0.0,0.0,,,,,
arenacam6_1769712011709758805.png,1769712011709758805,1769712011.7097588,42.301240858431825,-83.69745195935965,239.4860382080078,0.7138637167953933,0.7002217748580362,0.006675677761512634,0.006595087880603811,0.05821000000000001,-0.016110000000000003,-0.0018300000000000002,0.9804,1.7796,-10.3949,5.545356192082446,12.404629080316907,15.529999732971191,15.489999771118164,15.619999885559082,15.519999504089355,12.610502969770145,12.578022631945839,12.68358392347292,12.602382691715986,12.618623054226223,0.01725113846804754,-1.100000023841858,27.024999618530273,0.0,0.0,0.0,0.0,0.0,,,,,
arenacam6_1769712011730443250.png,1769712011730443250,1769712011.7304432,42.30124185879997,-83.69745195223193,239.48971557617188,0.7138159830971914,0.7002781065751562,0.006136644884970207,0.0062974055022709105,0.05231000000000001,-0.0206,-0.00708,0.9954000000000001,-0.7015,-10.0074,5.567317368937674,12.453754915271443,15.40999984741211,15.489999771118164,15.809999465942383,15.670000076293945,12.513061956297227,12.578022631945839,12.837865334540291,12.724184539351388,12.663283615533686,0.016824540203959567,-1.0,27.55000114440918,0.0,0.0,0.0,0.0,0.0,,,,,
arenacam6_1769712011750835394.png,1769712011750835394,1769712011.7508354,42.301242864508076,-83.69745194484969,239.4928741455078,0.7138472085765754,0.7002492792320878,0.00591945673634242,0.0061700708520461885,0.016520000000000003,-0.01042,0.005600000000000001,1.0274,0.32480000000000003,-8.4688,5.5874589837750674,12.498810499165801,15.559999465942383,15.699999809265137,15.75,15.75,12.634863029540291,12.748544599121534,12.789145215000001,12.789145215000001,12.740424514665456,0.019330960775489875,-0.9000000357627869,27.850000381469727,0.0,0.0,0.0,0.0,0.0,,,,,
arenacam6_1769712011771467799.png,1769712011771467799,1769712011.7714677,42.30124386869047,-83.69745193144,239.49563598632812,0.7138206002542709,0.7002822953556623,0.005638417663670417,0.005750279148668662,0.03844,0.019560000000000004,-0.005920000000000001,0.4889,0.11670000000000001,-8.4415,5.5992883306683305,12.525272038405216,15.75999927520752,15.699999809265137,15.809999465942383,15.75,12.797264718661824,12.748544599121534,12.837865334540291,12.789145215000001,12.793204966830913,0.021391385959854323,-0.699999988079071,28.55000114440918,0.0,0.0,0.0,0.0,0.0,,,,,
arenacam6_1769712011792211449.png,1769712011792211449,1769712011.7922115,42.30124487794251,-83.69745192171933,239.49827575683594,0.7138121683820979,0.700294225282896,0.005619725156422472,0.005348363697632541,0.027290000000000005,0.02109,0.0006500000000000001,1.0413000000000001,-0.2452,-9.520900000000001,5.618019282938493,12.567172054776433,15.880000114440918,15.789999961853027,15.829999923706055,15.710000038146973,12.894706506527081,12.821625552824306,12.854105890648613,12.756664877175693,12.831775706793923,0.021055146763660437,-0.699999988079071,29.225000381469727,0.0,0.0,0.0,0.0,0.0,,,,,
arenacam6_1769712011855599277.png,1769712011855599277,1769712011.8555994,42.301247922753,-83.69745190019637,239.50482177734375,0.7137829766030513,0.700326576135408,0.0060236707527285,0.004501606469596295,0.0006500000000000001,0.027980000000000005,-0.004850000000000001,1.7631000000000001,-0.8231,-10.037600000000001,5.6841556306874175,12.715115096509912,15.960000038146973,15.90999984741211,15.9399995803833,15.9399995803833,12.959667182175693,12.919066566297225,12.943426626067373,12.943426626067373,12.941396750151915,0.017796272540553996,-0.30000001192092896,29.024999618530273,0.0,0.0,0.0,0.0,0.0,,,,,
arenacam6_1769712011876254674.png,1769712011876254674,1769712011.8762548,42.30124997257665,-83.69745189288092,239.5096893310547,0.7138188022154522,0.70028919215209,0.006095556518338762,0.0045397301023794604,-0.006170000000000001,-0.00642,0.007760000000000001,0.9543,0.030100000000000002,-10.775400000000001,5.709485813153825,12.771777194876318,15.889999389648438,15.920000076293945,16.029998779296875,15.869999885559082,12.902826010188903,12.927186844351388,13.016506805377809,12.88658622847292,12.933276472097756,0.012645012104206366,-0.30000001192092896,29.325000762939453,0.0,0.0,0.0,0.0,0.0,,,,,
arenacam6_1769712011895790087.png,1769712011895790087,1769712011.89579,42.30124997257665,-83.69745189288092,239.5096893310547,0.7137912868967548,0.7003161284172668,0.006239151886679359,0.004515751616260371,-0.012150000000000001,0.0148,-0.007740000000000001,1.3013000000000001,-1.0246,-9.9898,5.72879521408334,12.814971166191588,16.170000076293945,16.06999969482422,16.1299991607666,15.979999542236328,13.130189149351388,13.048987917594452,13.097708037134742,12.975906963891678,13.063198016993066,0.01937006705534767,-0.30000001192092896,29.149999618530273,0.0,0.0,0.0,0.0,0.0,,,,,
arenacam6_1769712011917101969.png,1769712011917101969,1769712011.917102,42.30125204618472,-83.69745189907701,239.5151824951172,0.7138118107219344,0.7002918327005972,0.006438982724835335,0.004752623294682487,-0.03662,-0.012240000000000003,0.009450000000000002,2.1473,-0.8972,-10.113800000000001,5.768672274611541,12.904173757969541,16.029998779296875,16.020000457763672,16.149999618530273,16.139999389648438,13.016506805377809,13.008388076108323,13.113948593243066,13.105828315188905,13.061167947479525,0.012166155885263487,-0.5,29.149999618530273,0.0,0.0,0.0,0.0,0.0,,,,,
arenacam6_1769712011937279754.png,1769712011937279754,1769712011.9372797,42.30125308426203,-83.69745190587307,239.51797485351562,0.7138982542522704,0.700199430159496,0.006548494492710307,0.005211314590081204,-0.03934000000000001,-0.020010000000000003,0.0076500000000000005,0.7387,-0.108,-10.2018,5.789390131719959,12.950518361249648,16.06999969482422,16.149999618530273,16.139999389648438,16.19999885559082,13.048987917594452,13.113948593243066,13.105828315188905,13.154548434729195,13.105828315188905,0.011992566599030774,-0.6000000238418579,29.325000762939453,0.0,0.0,0.0,0.0,0.0,,,,,
arenacam6_1769712011957843970.png,1769712011957843970,1769712011.957844,42.30125413117681,-83.69745191322839,239.52088928222656,0.7139208748995196,0.7001707460672838,0.006823134815255626,0.005599604055685741,-0.05039000000000001,0.0007700000000000001,0.007500000000000001,1.2219,-0.803,-9.6624,5.805820350102686,12.987271773958703,16.09000015258789,16.19999885559082,16.239999771118164,16.260000228881836,13.065228473702776,13.154548434729195,13.18702954694584,13.203270103054162,13.152519139607993,0.012723793613115382,-0.6000000238418579,29.200000762939453,0.0,0.0,0.0,0.0,0.0,,,,,
arenacam6_1769712011978579850.png,1769712011978579850,1769712011.97858,42.30125518249183,-83.6974519239946,239.52340698242188,0.7139801972099906,0.7001050327168737,0.007005984896965306,0.00601143344896966,-0.034550000000000004,-0.015540000000000003,0.006540000000000001,1.3371,0.5498000000000001,-9.296700000000001,5.833794587886011,13.049848465425734,16.31999969482422,16.19999885559082,16.279998779296875,16.299999237060547,13.251990222594452,13.154548434729195,13.219509110377807,13.23574966648613,13.215449358546895,0.012689870963628698,-0.800000011920929,29.575000762939453,0.0,0.0,0.0,0.0,0.0,,,,,
arenacam6_1769712012000248492.png,1769712012000248492,1769712012.0002487,42.3012562331075,-83.69745193770805,239.52581787109375,0.7140577080810311,0.7000231279093984,0.00712613557899826,0.006199041354676926,-0.02024,0.00412,0.012240000000000003,0.49210000000000004,-0.25120000000000003,-9.1019,5.844983245348931,13.07487682085084,16.239999771118164,16.510000228881836,16.420000076293945,16.31999969482422,13.18702954694584,13.406272408054162,13.333191454351388,13.251990222594452,13.29462090798646,0.01680658947281159,-0.699999988079071,29.475000381469727,0.0,0.0,0.0,0.0,0.0,,,,,
arenacam6_1769712012021383486.png,1769712012021383486,1769712012.0213835,42.30125728906091,-83.69745194592652,239.5281982421875,0.7141569315826385,0.6999172309934667,0.0074204323637638465,0.00637840218579449,-0.016470000000000002,0.0006700000000000001,0.009810000000000001,1.2970000000000002,0.46780000000000005,-10.330400000000001,5.878747754972487,13.150406003008156,16.5,16.43000030517578,16.309999465942383,16.420000076293945,13.39815213,13.341311732405547,13.24386994454029,13.333191454351388,13.329131315324306,0.013590858888711605,-0.699999988079071,29.350000381469727,0.0,0.0,0.0,0.0,0.0,,,,,
arenacam6_1769712012040292119.png,1769712012040292119,1769712012.040292,42.30125834920438,-83.69745196139799,239.53057861328125,0.7141786894179417,0.6998938584094574,0.0074690067361452925,0.006449843437562647,-0.01617,-0.0034900000000000005,0.008790000000000001,0.9912000000000001,0.13,-10.904300000000001,5.888330092762296,13.171841117703693,16.53999900817871,16.43000030517578,16.440000534057617,16.40999984741211,13.43063169343197,13.341311732405547,13.34943201045971,13.325071176297227,13.361611653148614,0.014407290047695706,-0.699999988079071,29.375,0.0,0.0,0.0,0.0,0.0,,,,,
arenacam6_1769712012061343053.png,1769712012061343053,1769712012.061343,42.30125941086267,-83.69745197593602,239.53289794921875,0.7142606231926112,0.6998085062850293,0.007568278860019695,0.006522104163236144,-0.007540000000000001,-0.007610000000000001,0.0021000000000000003,1.4626000000000001,0.41900000000000004,-10.961300000000001,5.923081943574224,13.249578922858925,16.6299991607666,16.59000015258789,16.5,16.5,13.503712647134742,13.471233083702774,13.39815213,13.39815213,13.44281249770938,0.014584129501434723,-0.6000000238418579,29.5,0.0,0.0,0.0,0.0,0.0,,,,,
arenacam6_1769712012081864415.png,1769712012081864415,1769712012.0818644,42.301260478109924,-83.69745198042179,239.5360870361328,0.7142958963721386,0.6997712305253881,0.007645969176692866,0.0065678390857450905,-0.011400000000000002,0.012750000000000003,0.007690000000000001,1.4421000000000002,-0.2157,-10.495800000000001,5.9432652133574475,13.294727686367809,16.6299991607666,16.53999900817871,16.84000015258789,16.600000381469727,13.503712647134742,13.43063169343197,13.674235388702774,13.479353361756935,13.521983272756605,0.01709366237127374,-0.6000000238418579,29.25,0.0,0.0,0.0,0.0,0.0,,,,,
arenacam6_1769712012102782231.png,1769712012102782231,1769712012.1027822,42.30126155176942,-83.69745199341847,239.53921508789062,0.714289069441697,0.6997732589529825,0.007753377171176116,0.006956757353692509,-0.04365,-0.020270000000000003,0.00051,0.9632000000000001,0.5525,-10.0738,5.971630752806244,13.3581796961824,16.809999465942383,16.69999885559082,16.59000015258789,16.719999313354492,13.649874554540292,13.560553044729195,13.471233083702774,13.576793600837517,13.564613570952446,0.015453742909974597,-0.5,29.17500114440918,0.0,0.0,0.0,0.0,0.0,,,,,
