image_filename,timestamp_ns,timestamp_sec,latitude,longitude,altitude,orientation_x,orientation_y,orientation_z,orientation_w,angular_velocity_x,angular_velocity_y,angular_velocity_z,linear_acceleration_x,linear_acceleration_y,linear_acceleration_z,vehicle_speed_mps,vehicle_speed_mph,wheel_speed_fl_rads,wheel_speed_fr_rads,wheel_speed_rl_rads,wheel_speed_rr_rads,wheel_speed_fl_mph,wheel_speed_fr_mph,wheel_speed_rl_mph,wheel_speed_rr_mph,avg_wheel_speed_mph,wheel_slip,steering_angle_deg,throttle_pedal,brake_pedal,brake_torque_actual,abs_active,esc_active,trac_active,marwis_road_condition,marwis_friction,marwis_surface_temp_c,marwis_ice_percent,marwis_water_film_height
arenacam6_1769615817823482974.png,1769615817823482974,1769615817.823483,42.30097948482743,-83.6976519637373,238.4757537841797,-0.013208096973279071,-0.9994784955978429,-0.00962613391700197,-0.02784996512797352,0.0007300000000000002,0.0011300000000000001,0.00032,-0.5581,0.1983,-9.784600000000001,-0.011819097660810575,0.02643861232137361,3.0299999713897705,3.009999990463257,3.2699999809265137,3.0199999809265137,2.46038791336823,2.444147744456077,2.6552701339121536,2.452267828912153,2.5030184051621536,0.0,0.10000000149011612,26.67500114440918,0.0,0.0,0.0,0.0,0.0,snow covered,0.237885773181915,-8.54643058776855,100.0,486.590789794922
arenacam6_1769615817844215437.png,1769615817844215437,1769615817.8442156,42.30097948414135,-83.69765196910264,238.47618103027344,-0.013209023833088307,-0.9994782893040378,-0.009626009720946009,-0.02785697105040379,0.00035000000000000005,-0.0007000000000000001,0.0005300000000000001,-0.5538000000000001,0.1925,-9.773,-0.011619409300625943,0.0259919214409422,3.0299999713897705,3.009999990463257,3.2699999809265137,3.0199999809265137,2.46038791336823,2.444147744456077,2.6552701339121536,2.452267828912153,2.5030184051621536,0.0,0.10000000149011612,26.67500114440918,0.0,0.0,0.0,0.0,0.0,snow covered,0.237885773181915,-8.54643058776855,100.0,486.590789794922
arenacam6_1769615817863155216.png,1769615817863155216,1769615817.8631551,42.30097948546671,-83.69765196631687,238.47633361816406,-0.01320544400493856,-0.9994782473043924,-0.009628071776114194,-0.027859462447186182,-0.00044000000000000007,-0.0004500000000000001,-0.0006900000000000001,-0.5538000000000001,0.2086,-9.768600000000001,-0.011711069869499182,0.0261969606338775,3.0299999713897705,3.009999990463257,3.2699999809265137,3.0199999809265137,2.46038791336823,2.444147744456077,2.6552701339121536,2.452267828912153,2.5030184051621536,0.0,0.10000000149011612,26.67500114440918,0.0,0.0,0.0,0.0,0.0,snow covered,0.237885773181915,-8.54643058776855,100.0,486.590789794922
arenacam6_1769615817883831824.png,1769615817883831824,1769615817.8838317,42.300979484978036,-83.69765197121059,238.47674560546875,-0.013207765161207585,-0.9994781289116577,-0.00963398523352998,-0.027860565235084435,-0.0005900000000000001,-0.0009000000000000002,0.00131,-0.5670000000000001,0.2111,-9.7652,-0.011797231056313773,0.026389698039110534,3.0299999713897705,3.009999990463257,3.2699999809265137,3.0199999809265137,2.46038791336823,2.444147744456077,2.6552701339121536,2.452267828912153,2.5030184051621536,0.0,0.10000000149011612,26.67500114440918,0.0,0.0,0.0,0.0,0.0,snow covered,0.237885773181915,-8.54643058776855,100.0,486.590789794922
arenacam6_1769615817904539985.png,1769615817904539985,1769615817.9045398,42.300979484465465,-83.69765197600427,238.47715759277344,-0.013198030239736425,-0.9994780033587506,-0.009640150501780909,-0.027867549194343314,-0.00036,-0.00030000000000000003,-0.0017300000000000002,-0.5778,0.2024,-9.756400000000001,-0.012671053858184095,0.028344387217526332,3.0299999713897705,3.009999990463257,3.2699999809265137,3.0199999809265137,2.46038791336823,2.444147744456077,2.6552701339121536,2.452267828912153,2.5030184051621536,0.0,0.10000000149011612,26.67500114440918,0.0,0.0,0.0,0.0,0.0,snow covered,0.237885773181915,-8.54643058776855,100.0,486.590789794922
arenacam6_1769615817946025203.png,1769615817946025203,1769615817.9460251,42.30097948587663,-83.69765197279519,238.477294921875,-0.013190490230590657,-0.9994782431092849,-0.009644446771646688,-0.027861033095037003,-0.00034,0.0021000000000000003,-0.0013200000000000002,-0.5744,0.22,-9.7772,-0.013672042724216352,0.03058353925150853,3.0299999713897705,3.009999990463257,3.2699999809265137,3.0199999809265137,2.46038791336823,2.444147744456077,2.6552701339121536,2.452267828912153,2.5030184051621536,0.0,0.10000000149011612,26.67500114440918,0.0,0.0,0.0,0.0,0.0,snow covered,0.237885773181915,-8.54643058776855,100.0,486.590789794922
arenacam6_1769615817967251523.png,1769615817967251523,1769615817.9672515,42.3009794854824,-83.69765197680164,238.47769165039062,-0.013183479152217903,-0.9994787140353304,-0.009651358238190879,-0.027845059739273172,-0.00055,0.0032200000000000006,-1e-05,-0.5307000000000001,0.1753,-9.7749,-0.013860159292340666,0.031004344727408532,3.0299999713897705,3.009999990463257,3.2699999809265137,3.0199999809265137,2.46038791336823,2.444147744456077,2.6552701339121536,2.452267828912153,2.5030184051621536,0.0,0.10000000149011612,26.67500114440918,0.0,0.0,0.0,0.0,0.0,snow covered,0.237885773181915,-8.54643058776855,100.0,486.590789794922
arenacam6_1769615817987653902.png,1769615817987653902,1769615817.987654,42.30097948510386,-83.69765198066132,238.47805786132812,-0.013177709234513446,-0.9994784162522132,-0.009656850577551255,-0.027856573052347674,-0.0008200000000000001,-0.0017000000000000001,-0.0008100000000000001,-0.5811000000000001,0.1991,-9.743400000000001,-0.013946258408766433,0.03119694328490599,3.0299999713897705,3.009999990463257,3.2699999809265137,3.0199999809265137,2.46038791336823,2.444147744456077,2.6552701339121536,2.452267828912153,2.5030184051621536,0.0,0.10000000149011612,26.67500114440918,0.0,0.0,0.0,0.0,0.0,snow covered,0.237885773181915,-8.54643058776855,100.0,486.590789794922
arenacam6_1769615818009396823.png,1769615818009396823,1769615818.0093968,42.30097948640822,-83.69765197736051,238.4781951904297,-0.013172241314539535,-0.9994787265957681,-0.009659632906687834,-0.027847057894171048,-0.00029,0.0006700000000000001,-0.0011500000000000002,-0.5561,0.1935,-9.7368,-0.014045873838552941,0.03141977702441262,3.0299999713897705,3.009999990463257,3.2699999809265137,3.0199999809265137,2.46038791336823,2.444147744456077,2.6552701339121536,2.452267828912153,2.5030184051621536,0.0,0.10000000149011612,26.67500114440918,0.0,0.0,0.0,0.0,0.0,snow covered,0.237885773181915,-8.54643058776855,100.0,486.590789794922
arenacam6_1769615818051201700.png,1769615818051201700,1769615818.0512018,42.30097948561269,-83.69765198466511,238.47889709472656,-0.013172750048732418,-0.9994784711686073,-0.00967605526693601,-0.027850283321509517,-0.00099,0.0006300000000000001,0.00027000000000000006,-0.47590000000000005,0.187,-9.7758,-0.0118552766341129,0.026519542513912513,3.0299999713897705,3.009999990463257,3.2699999809265137,3.0199999809265137,2.46038791336823,2.444147744456077,2.6552701339121536,2.452267828912153,2.5030184051621536,0.0,0.10000000149011612,26.67500114440918,0.0,0.0,0.0,0.0,0.0,snow covered,0.237885773181915,-8.54643058776855,100.0,486.590789794922
arenacam6_1769615818071923074.png,1769615818071923074,1769615818.0719233,42.300979486728636,-83.69765198207388,238.47903442382812,-0.013185178987855706,-0.9994784875900281,-0.0096813210808449,-0.02784198128613358,-0.0008600000000000002,0.0007000000000000001,0.00143,-0.45530000000000004,0.1618,-9.7978,-0.00986638194991182,0.022070504439035746,3.0299999713897705,3.009999990463257,3.2699999809265137,3.0199999809265137,2.46038791336823,2.444147744456077,2.6552701339121536,2.452267828912153,2.5030184051621536,0.0,0.10000000149011612,26.67500114440918,0.0,0.0,0.0,0.0,0.0,snow covered,0.237885773181915,-8.54643058776855,100.0,486.590789794922
arenacam6_1769615818111606320.png,1769615818111606320,1769615818.1116064,42.30097948579965,-83.69765199121557,238.47967529296875,-0.013204341113356277,-0.9994788830302651,-0.009684127674821097,-0.02781771779843823,-0.00062,0.0007300000000000002,0.0010500000000000002,-0.36710000000000004,0.16010000000000002,-9.7423,-0.005330420520656139,0.011923830879476544,3.0299999713897705,3.009999990463257,3.2699999809265137,3.0199999809265137,2.46038791336823,2.444147744456077,2.6552701339121536,2.452267828912153,2.5030184051621536,0.0,0.10000000149011612,26.67500114440918,0.0,0.0,0.0,0.0,0.0,snow covered,0.237885773181915,-8.54643058776855,100.0,486.590789794922
arenacam6_1769615818132404659.png,1769615818132404659,1769615818.1324048,42.30097948721062,-83.69765199001226,238.47979736328125,-0.013207945342834149,-0.99947914868342,-0.00968468834871494,-0.027806264374679448,0.00116,0.00202,-0.00117,-0.4535,0.2918,-9.7995,-0.0031994997205551903,0.007157088904898728,3.0299999713897705,3.009999990463257,3.2699999809265137,3.0199999809265137,2.46038791336823,2.444147744456077,2.6552701339121536,2.452267828912153,2.5030184051621536,0.0,0.10000000149011612,26.67500114440918,0.0,0.0,0.0,0.0,0.0,snow covered,0.237885773181915,-8.54643058776855,100.0,486.590789794922
arenacam6_1769615818153170464.png,1769615818153170464,1769615818.1531703,42.30097948598198,-83.69765199745176,238.48004150390625,-0.013204584489762916,-0.9994794936505171,-0.009683930684873956,-0.027795722819334494,0.0006000000000000001,0.0026800000000000005,-0.00021000000000000004,-0.34750000000000003,0.21130000000000002,-9.7887,-0.0010009111962980563,0.002238978291446974,3.0299999713897705,3.009999990463257,3.2699999809265137,3.0199999809265137,2.46038791336823,2.444147744456077,2.6552701339121536,2.452267828912153,2.5030184051621536,0.0,0.10000000149011612,26.67500114440918,0.0,0.0,0.0,0.0,0.0,snow covered,0.237885773181915,-8.54643058776855,100.0,486.590789794922
arenacam6_1769615818173635622.png,1769615818173635622,1769615818.1736355,42.30097948499023,-83.69765200506761,238.48025512695312,-0.013206460810889109,-0.9994803095840858,-0.00968179628695651,-0.027766219894111144,-0.0006000000000000001,0.0018200000000000002,0.00019000000000000004,-0.2111,0.267,-9.722800000000001,0.008619197879400475,0.0192806285043461,3.0299999713897705,3.009999990463257,3.2699999809265137,3.0199999809265137,2.46038791336823,2.444147744456077,2.6552701339121536,2.452267828912153,2.5030184051621536,0.0,0.10000000149011612,26.67500114440918,0.0,0.0,0.0,0.0,0.0,snow covered,0.237885773181915,-8.54643058776855,100.0,486.590789794922
arenacam6_1769615818194204851.png,1769615818194204851,1769615818.194205,42.30097948657488,-83.69765200773394,238.48033142089844,-0.013194682403460722,-0.9994808770249852,-0.009679823283181198,-0.02775207809957363,0.00034,0.0029000000000000007,-0.0023300000000000005,-0.2252,0.27,-9.7375,0.011767917103018104,0.02632412448442532,3.0299999713897705,3.009999990463257,3.2699999809265137,3.0199999809265137,2.46038791336823,2.444147744456077,2.6552701339121536,2.452267828912153,2.5030184051621536,0.0,0.10000000149011612,26.67500114440918,0.0,0.0,0.0,0.0,0.0,snow covered,0.237885773181915,-8.54643058776855,100.0,486.590789794922
arenacam6_1769615818214763235.png,1769615818214763235,1769615818.2147632,42.300979485799424,-83.69765201977971,238.48048400878906,-0.013176722174163435,-0.9994819230340406,-0.009692276884724984,-0.027718573010006693,-0.0012000000000000001,0.0027100000000000006,-0.0008900000000000001,-0.1898,0.2058,-9.7689,0.022513857932263348,0.050362149362997176,3.0299999713897705,3.009999990463257,3.2699999809265137,3.0199999809265137,2.46038791336823,2.444147744456077,2.6552701339121536,2.452267828912153,2.5030184051621536,0.0,0.10000000149011612,26.67500114440918,0.0,0.0,0.0,0.0,0.0,snow covered,0.237885773181915,-8.54643058776855,100.0,486.590789794922
arenacam6_1769615818236051669.png,1769615818236051669,1769615818.2360518,42.30097948530297,-83.69765203160459,238.48065185546875,-0.013167354109172635,-0.9994824137745982,-0.00969322520732879,-0.027704994606502716,-0.00018,0.0028400000000000005,-0.0019000000000000002,-0.2536,0.25070000000000003,-9.7939,0.025330129664367606,0.056661980251410476,3.0299999713897705,3.009999990463257,3.2699999809265137,3.0199999809265137,2.46038791336823,2.444147744456077,2.6552701339121536,2.452267828912153,2.5030184051621536,0.0,0.10000000149011612,26.67500114440918,0.0,0.0,0.0,0.0,0.0,snow covered,0.237885773181915,-8.54643058776855,100.0,486.590789794922
arenacam6_1769615818257740051.png,1769615818257740051,1769615818.25774,42.300979487076496,-83.69765203951218,238.4806671142578,-0.013163148393138646,-0.9994840870294119,-0.009686635770652924,-0.02764887677301975,-4e-05,0.005540000000000001,0.0004000000000000001,-0.1529,0.16570000000000001,-9.7737,0.032735693493951695,0.07322778220436031,3.0299999713897705,3.009999990463257,3.2699999809265137,3.0199999809265137,2.46038791336823,2.444147744456077,2.6552701339121536,2.452267828912153,2.5030184051621536,0.0,0.10000000149011612,26.67500114440918,0.0,0.0,0.0,0.0,0.0,snow covered,0.237885773181915,-8.54643058776855,100.0,486.590789794922
arenacam6_1769615818277045949.png,1769615818277045949,1769615818.277046,42.30097948648193,-83.69765205780263,238.48072814941406,-0.013135607825449702,-0.9994880033772048,-0.009685191596141573,-0.027520610019587933,-0.00023000000000000003,0.01076,-0.0026800000000000005,0.1718,0.1612,-9.6381,0.05009039839504943,0.11204921578582189,3.0299999713897705,3.009999990463257,3.2699999809265137,3.0199999809265137,2.46038791336823,2.444147744456077,2.6552701339121536,2.452267828912153,2.5030184051621536,0.0,0.10000000149011612,26.67500114440918,0.0,0.0,0.0,0.0,0.0,snow covered,0.237885773181915,-8.54643058776855,100.0,486.590789794922
arenacam6_1769615818297675982.png,1769615818297675982,1769615818.297676,42.30097948588411,-83.6976520769482,238.48077392578125,-0.013126327021467321,-0.9994913091986666,-0.009687073749780055,-0.02740406862907158,-0.00064,0.01233,0.0012900000000000001,0.4449,0.1023,-9.5603,0.0691233007220249,0.15462467631712637,3.0299999713897705,3.009999990463257,3.2699999809265137,3.0199999809265137,2.46038791336823,2.444147744456077,2.6552701339121536,2.452267828912153,2.5030184051621536,0.0,0.10000000149011612,26.67500114440918,0.0,0.0,0.0,0.0,0.0,snow covered,0.237885773181915,-8.54643058776855,100.0,486.590789794922
arenacam6_1769615818318384690.png,1769615818318384690,1769615818.3183846,42.30097948743281,-83.69765209488183,238.48062133789062,-0.013122507762350355,-0.9994930719020257,-0.009687051954100315,-0.027341544109973397,0.00015000000000000001,0.012520000000000002,-0.0006500000000000001,0.3522,0.11510000000000001,-9.6135,0.07801019591662067,0.17450412765372547,3.0299999713897705,3.009999990463257,3.2699999809265137,3.0199999809265137,2.46038791336823,2.444147744456077,2.6552701339121536,2.452267828912153,2.5030184051621536,0.0,0.10000000149011612,26.67500114440918,0.0,0.0,0.0,0.0,0.0,snow covered,0.237885773181915,-8.54643058776855,100.0,486.590789794922
arenacam6_1769615818339278381.png,1769615818339278381,1769615818.3392782,42.30097948653576,-83.69765212592603,238.48048400878906,-0.013118694375630569,-0.999496275426411,-0.00971136490681877,-0.027217359501932624,-0.0030600000000000007,0.014560000000000002,4e-05,0.2822,0.17650000000000002,-9.7658,0.09433327476734818,0.21101787565807184,3.0299999713897705,3.009999990463257,3.2699999809265137,3.0199999809265137,2.46038791336823,2.444147744456077,2.6552701339121536,2.452267828912153,2.5030184051621536,0.0,0.10000000149011612,26.67500114440918,0.0,0.0,0.0,0.0,0.0,snow covered,0.237885773181915,-8.54643058776855,100.0,486.590789794922
arenacam6_1769615818361454794.png,1769615818361454794,1769615818.361455,42.30097948558478,-83.69765215816408,238.48028564453125,-0.013118859776974523,-0.9995003368299641,-0.009731028453339641,-0.027060659270988812,-0.0024700000000000004,0.015680000000000003,-0.0005700000000000001,0.6333000000000001,0.10990000000000001,-9.6495,0.11623212523845204,0.26000429023090293,3.0299999713897705,3.009999990463257,3.2699999809265137,3.0199999809265137,2.46038791336823,2.444147744456077,2.6552701339121536,2.452267828912153,2.5030184051621536,0.0,0.10000000149011612,26.67500114440918,0.0,0.0,0.0,0.0,0.0,snow covered,0.237885773181915,-8.54643058776855,100.0,486.590789794922
arenacam6_1769615818381994631.png,1769615818381994631,1769615818.3819947,42.30097948664164,-83.69765219098117,238.47999572753906,-0.013115747695856772,-0.9995040126110246,-0.00975609202625193,-0.026916994728507646,-0.0015400000000000001,0.015400000000000002,5.000000000000001e-05,0.5822,0.1145,-9.8466,0.1391396697236428,0.31124709279160556,3.0299999713897705,3.009999990463257,3.2699999809265137,3.0199999809265137,2.46038791336823,2.444147744456077,2.6552701339121536,2.452267828912153,2.5030184051621536,0.0,0.10000000149011612,26.67500114440918,0.0,0.0,0.0,0.0,0.0,snow covered,0.237885773181915,-8.54643058776855,100.0,486.590789794922
arenacam6_1769615818402652548.png,1769615818402652548,1769615818.4026527,42.300979484530515,-83.69765224055142,238.47962951660156,-0.013116123131151403,-0.9995083282052999,-0.009794484496389122,-0.02674204995330012,-0.0034400000000000008,0.018300000000000004,3e-05,0.8390000000000001,0.1454,-9.7795,0.16413491773996922,0.36715996288924674,3.0299999713897705,3.009999990463257,3.2699999809265137,3.0199999809265137,2.46038791336823,2.444147744456077,2.6552701339121536,2.452267828912153,2.5030184051621536,0.0,0.10000000149011612,26.67500114440918,0.0,0.0,0.0,0.0,0.0,snow covered,0.237885773181915,-8.54643058776855,100.0,486.590789794922
arenacam6_1769615818423305713.png,1769615818423305713,1769615818.4233057,42.300979482410455,-83.69765229090761,238.47926330566406,-0.013113555126069654,-0.9995133059721311,-0.009820748914328773,-0.026546915967365515,-0.0028700000000000006,0.01933,0.0011300000000000001,1.0699,0.1484,-9.71,0.1951677167661814,0.43657847234294184,3.0299999713897705,3.009999990463257,3.2699999809265137,3.0199999809265137,2.46038791336823,2.444147744456077,2.6552701339121536,2.452267828912153,2.5030184051621536,0.0,0.10000000149011612,26.67500114440918,0.0,0.0,0.0,0.0,0.0,snow covered,0.237885773181915,-8.54643058776855,100.0,486.590789794922
arenacam6_1769615818444023571.png,1769615818444023571,1769615818.4440236,42.3009794832638,-83.69765234503431,238.4788360595703,-0.013121661951298214,-0.9995171532387372,-0.009866309690105449,-0.02638064256733264,-0.004750000000000001,0.015220000000000003,0.0013400000000000003,1.1055000000000001,0.1574,-9.789900000000001,0.22818804649593988,0.5104429687286278,3.0299999713897705,3.009999990463257,3.2699999809265137,3.0199999809265137,2.46038791336823,2.444147744456077,2.6552701339121536,2.452267828912153,2.5030184051621536,0.0,0.10000000149011612,26.67500114440918,0.0,0.0,0.0,0.0,0.0,snow covered,0.237885773181915,-8.54643058776855,100.0,486.590789794922
arenacam6_1769615818464928621.png,1769615818464928621,1769615818.4649286,42.300979481243246,-83.69765241866331,238.47837829589844,-0.013116689454347186,-0.9995220438661877,-0.009911191808713296,-0.026180232242052803,-0.004190000000000001,0.021240000000000002,-0.00018,1.1722000000000001,0.20500000000000002,-9.7909,0.26176557843491904,0.5855538930242078,3.0299999713897705,3.009999990463257,3.2699999809265137,3.0199999809265137,2.46038791336823,2.444147744456077,2.6552701339121536,2.452267828912153,2.5030184051621536,0.0,0.10000000149011612,26.67500114440918,0.0,0.0,0.0,0.0,0.0,snow covered,0.237885773181915,-8.54643058776855,100.0,486.590789794922
arenacam6_1769615818485542596.png,1769615818485542596,1769615818.4855428,42.30097947918306,-83.69765249384233,238.4779052734375,-0.013124229908282214,-0.9995269452776049,-0.009959881470315917,-0.025970002203148587,-0.004070000000000001,0.021560000000000003,0.00011000000000000002,1.457,0.14830000000000002,-9.7589,0.2997954455021684,0.6706244238616207,3.0299999713897705,3.009999990463257,3.2699999809265137,3.0199999809265137,2.46038791336823,2.444147744456077,2.6552701339121536,2.452267828912153,2.5030184051621536,0.0,0.10000000149011612,26.67500114440918,0.0,0.0,0.0,0.0,0.0,snow covered,0.237885773181915,-8.54643058776855,100.0,486.590789794922
arenacam6_1769615818506260198.png,1769615818506260198,1769615818.5062602,42.30097947918306,-83.69765249384233,238.4779052734375,-0.013125693350051926,-0.9995317975285388,-0.010011699740472377,-0.025761750168713394,-0.005610000000000001,0.02186,0.00131,1.6087,0.16820000000000002,-9.8133,0.3416932376878561,0.7643472711134729,3.0299999713897705,3.009999990463257,3.2699999809265137,3.0199999809265137,2.46038791336823,2.444147744456077,2.6552701339121536,2.452267828912153,2.5030184051621536,0.0,0.10000000149011612,26.67500114440918,0.0,0.0,0.0,0.0,0.0,snow covered,0.237885773181915,-8.54643058776855,100.0,486.590789794922
arenacam6_1769615818568812873.png,1769615818568812873,1769615818.5688128,42.300979477794726,-83.69765289902584,238.4757843017578,-0.01311210395833845,-0.9995422455611693,-0.010230661901747557,-0.025272626008648658,-0.008810000000000002,0.006340000000000001,-0.00022000000000000003,1.6976,0.25830000000000003,-10.0058,0.4794307579505762,1.072457839689962,3.0299999713897705,3.009999990463257,3.2699999809265137,3.0199999809265137,2.46038791336823,2.444147744456077,2.6552701339121536,2.452267828912153,2.5030184051621536,1.3339084414598097,0.10000000149011612,26.67500114440918,0.0,0.0,0.0,0.0,0.0,snow covered,0.237885773181915,-8.54643058776855,100.0,486.590789794922
arenacam6_1769615818589513882.png,1769615818589513882,1769615818.589514,42.300979477794726,-83.69765289902584,238.4757843017578,-0.01310268890855848,-0.9995468009524604,-0.010299679386595421,-0.025068483272852722,-0.00505,0.024530000000000003,-0.0017100000000000001,1.5434,0.29610000000000003,-9.9963,0.5169780802246848,1.1564489467778065,3.0299999713897705,3.009999990463257,3.2699999809265137,3.0199999809265137,2.46038791336823,2.444147744456077,2.6552701339121536,2.452267828912153,2.5030184051621536,1.1644002635276465,0.10000000149011612,26.67500114440918,0.0,0.0,0.0,0.0,0.0,snow covered,0.237885773181915,-8.54643058776855,100.0,486.590789794922
arenacam6_1769615818610758136.png,1769615818610758136,1769615818.610758,42.300979475729186,-83.69765317490489,238.4748077392578,-0.01307240630570855,-0.99955103987065,-0.010376947468439441,-0.02488272187920785,-0.008350000000000002,0.015670000000000003,-0.0028700000000000006,2.1936,0.1259,-9.6783,0.5706811552226725,1.276579503363805,3.0299999713897705,3.009999990463257,3.2699999809265137,3.0199999809265137,2.46038791336823,2.444147744456077,2.6552701339121536,2.452267828912153,2.5030184051621536,0.9607226957401908,0.10000000149011612,26.67500114440918,0.0,0.0,0.0,0.0,0.0,snow covered,0.237885773181915,-8.54643058776855,100.0,486.590789794922
arenacam6_1769615818649922999.png,1769615818649922999,1769615818.649923,42.300979477233575,-83.69765332407006,238.4742889404297,-0.01305230230116411,-0.999557105493208,-0.010544536889633735,-0.02457728635268405,-0.008000000000000002,0.016690000000000003,-0.0016300000000000002,2.1111,0.1432,-9.869,0.674058535644018,1.5078285007235297,3.0299999713897705,3.009999990463257,3.2699999809265137,3.0199999809265137,2.46038791336823,2.444147744456077,2.6552701339121536,2.452267828912153,2.5030184051621536,0.6600153160396446,0.10000000149011612,26.67500114440918,0.0,0.0,0.0,0.0,0.0,snow covered,0.237885773181915,-8.54643058776855,100.0,486.590789794922
arenacam6_1769615818670105719.png,1769615818670105719,1769615818.6701057,42.30097947572251,-83.69765349915254,238.47369384765625,-0.013043215443862666,-0.9995605684834659,-0.010631096622494965,-0.024403365515820234,-0.009340000000000003,0.020190000000000003,-0.0008800000000000001,2.2993,0.009300000000000001,-9.9093,0.7273268952544827,1.6269866250705627,3.0299999713897705,3.009999990463257,3.2699999809265137,3.0199999809265137,2.46038791336823,2.444147744456077,2.6552701339121536,2.452267828912153,2.5030184051621536,0.5384382186015803,0.10000000149011612,26.67500114440918,0.0,0.0,0.0,0.0,0.0,snow covered,0.237885773181915,-8.54643058776855,100.0,486.590789794922
arenacam6_1769615818690716042.png,1769615818690716042,1769615818.6907163,42.30097947410182,-83.6976536763959,238.4730987548828,-0.013042147074706467,-0.9995628251776042,-0.010743489480412009,-0.024261870423198485,-0.011320000000000002,0.012620000000000003,0.0016600000000000002,2.3983000000000003,0.1504,-9.780800000000001,0.7840109035213141,1.7537853505229684,3.0299999713897705,3.009999990463257,3.2699999809265137,3.0199999809265137,2.46038791336823,2.444147744456077,2.6552701339121536,2.452267828912153,2.5030184051621536,0.4272090962646987,0.10000000149011612,26.67500114440918,0.0,0.0,0.0,0.0,0.0,snow covered,0.237885773181915,-8.54643058776855,100.0,486.590789794922
arenacam6_1769615818711675161.png,1769615818711675161,1769615818.7116752,42.30097947533745,-83.69765386481744,238.4724884033203,-0.013047657079287012,-0.9995651263667393,-0.010857327186695163,-0.024112968347908353,-0.011290000000000001,0.013290000000000001,-0.00016,2.2011000000000003,0.10640000000000001,-9.8574,0.8394326103236083,1.8777603833372924,3.0299999713897705,3.009999990463257,3.2699999809265137,3.0199999809265137,2.46038791336823,2.444147744456077,2.6552701339121536,2.452267828912153,2.5030184051621536,0.3329807292630208,0.10000000149011612,26.67500114440918,0.0,0.0,0.0,0.0,0.0,snow covered,0.237885773181915,-8.54643058776855,100.0,486.590789794922
arenacam6_1769615818732293010.png,1769615818732293010,1769615818.7322931,42.30097947343769,-83.69765407994048,238.47177124023438,-0.013060986140909447,-0.9995663030558897,-0.01092867599349498,-0.024024580688060567,-0.014020000000000003,0.01785,0.0031200000000000004,2.1939,0.0944,-9.9764,0.8660486792222525,1.9372989324994256,3.0299999713897705,3.009999990463257,3.2699999809265137,3.0199999809265137,2.46038791336823,2.444147744456077,2.6552701339121536,2.452267828912153,2.5030184051621536,0.2920145482828813,0.10000000149011612,26.67500114440918,0.0,0.0,0.0,0.0,0.0,snow covered,0.237885773181915,-8.54643058776855,100.0,486.590789794922
arenacam6_1769615818752760278.png,1769615818752760278,1769615818.7527604,42.3009794716109,-83.69765429783227,238.47100830078125,-0.013077327932230431,-0.9995684660238704,-0.011055873064170236,-0.02386698337932104,-0.011920000000000002,0.015070000000000002,0.0015200000000000003,2.6294,0.14400000000000002,-9.8279,0.9258967731885588,2.071175527816415,3.0299999713897705,3.009999990463257,3.2699999809265137,3.0199999809265137,2.46038791336823,2.444147744456077,2.6552701339121536,2.452267828912153,2.5030184051621536,0.2085013421344444,0.10000000149011612,26.67500114440918,0.0,0.0,0.0,0.0,0.0,snow covered,0.237885773181915,-8.54643058776855,100.0,486.590789794922
arenacam6_1769615818774979644.png,1769615818774979644,1769615818.7749796,42.300979472715504,-83.6976545277909,238.4702911376953,-0.01312140332750017,-0.9995693573830791,-0.01120202287396644,-0.023736959346692007,-0.005860000000000001,0.007490000000000002,0.0038300000000000005,2.0784000000000002,0.0334,-9.9471,1.012711569915025,2.2653750192057163,3.18999981880188,3.18999981880188,3.4600000381469727,3.3899998664855957,2.590309264665456,2.590309264665456,2.809551932175694,2.7527111473850727,2.6857204022229197,0.18555222841849142,-0.10000000149011612,27.225000381469727,0.0,0.0,0.0,0.0,0.0,snow covered,0.237885773181915,-8.54643058776855,100.0,486.590789794922
arenacam6_1769615818796019650.png,1769615818796019650,1769615818.7960198,42.30097947065769,-83.697654783774,238.46949768066406,-0.01312447607559386,-0.9995704424561802,-0.011258441068967593,-0.02366275977974685,-0.011150000000000002,0.015040000000000003,0.00099,1.8453000000000002,0.0022,-9.921800000000001,1.0358267687100806,2.317082331998328,3.3399999141693115,3.359999895095825,3.4800000190734863,3.569999933242798,2.7121107251046896,2.7283508940168426,2.825792101087847,2.8988728611925363,2.791281645350479,0.2046536313378152,-0.20000000298023224,27.5,0.0,0.0,0.0,0.0,0.0,snow covered,0.237885773181915,-8.54643058776855,100.0,486.590789794922
arenacam6_1769615818816422432.png,1769615818816422432,1769615818.8164225,42.30097947031696,-83.69765504464849,238.46859741210938,-0.013168269627262863,-0.9995717448868472,-0.011323408063397458,-0.02355215337749833,0.00046000000000000007,0.00288,0.00436,2.5995,0.5136000000000001,-9.677100000000001,1.097876730694512,2.455884373959782,3.490000009536743,3.5299999713897705,3.6999998092651367,3.7200000286102295,2.833912185543923,2.86639252336823,3.0044339591215325,3.0206743216317706,2.9313532474163644,0.1936039328634813,-0.30000001192092896,27.92500114440918,0.0,0.0,0.0,0.0,0.0,snow covered,0.237885773181915,-8.54643058776855,100.0,486.590789794922
arenacam6_1769615818837094559.png,1769615818837094559,1769615818.8370945,42.30097947034692,-83.69765531534568,238.46786499023438,-0.013155873022772935,-0.9995709187873938,-0.01146042963400014,-0.02352785311366275,-0.02136,-0.0027600000000000003,0.00143,2.007,-0.0341,-10.2783,1.152877884523708,2.5789186550064636,3.6399998664855957,3.679999828338623,3.759999990463257,3.8299999237060547,2.955713452385073,2.988193790209379,3.0531546594560766,3.109995250648613,3.0267642881747854,0.17365636263823891,-0.4000000059604645,28.274999618530273,0.0,0.0,0.0,0.0,0.0,snow covered,0.237885773181915,-8.54643058776855,100.0,486.590789794922
arenacam6_1769615818857819494.png,1769615818857819494,1769615818.8578193,42.30097946885039,-83.69765561258045,238.46673583984375,-0.0132090579682827,-0.9995741588688855,-0.011540036588805315,-0.02332057599373204,-0.00436,0.018890000000000004,0.00131,3.0185,-0.1962,-9.3726,1.2077263054258063,2.7016112816592033,3.799999952316284,3.8299999237060547,3.9800000190734863,3.9099998474121094,3.0856349972803834,3.109995250648613,3.231796711087847,3.174955926297226,3.1505957213285174,0.16619135503223428,-0.4000000059604645,28.524999618530273,0.0,0.0,0.0,0.0,0.0,snow covered,0.237885773181915,-8.54643058776855,100.0,486.590789794922
arenacam6_1769615818878519713.png,1769615818878519713,1769615818.8785198,42.30097946695417,-83.69765591075569,238.46591186523438,-0.013200609573556399,-0.9995748368226411,-0.011644221794927846,-0.023244388498470808,-0.006940000000000001,0.0176,0.0045000000000000005,1.8264,1.1501000000000001,-9.7814,1.2561652516240995,2.8099662979680136,3.9499998092651367,3.9800000190734863,4.170000076293945,4.130000114440918,3.2074362641215326,3.231796711087847,3.386078509351387,3.3535981715270804,3.294727414021962,0.172514921764185,-0.4000000059604645,28.875,0.0,0.0,0.0,0.0,0.0,snow covered,0.237885773181915,-8.54643058776855,100.0,486.590789794922
arenacam6_1769615818899203629.png,1769615818899203629,1769615818.8992035,42.30097946711517,-83.69765622171457,238.4647674560547,-0.013189101971649797,-0.9995772515873316,-0.011658949520538043,-0.02313945968200794,-0.00918,0.007290000000000001,-0.005450000000000001,2.2591,-0.4818,-9.7858,1.3146409438977544,2.940772913042643,4.259999752044678,4.239999771118164,4.360000133514404,4.319999694824219,3.4591590758579924,3.442918906945839,3.540360307614927,3.507879582594452,3.4875794682533026,0.18593974148276246,-0.4000000059604645,29.475000381469727,0.0,0.0,0.0,0.0,0.0,snow covered,0.237885773181915,-8.54643058776855,100.0,486.590789794922
arenacam6_1769615818920078281.png,1769615818920078281,1769615818.9200783,42.30097946969695,-83.69765655597342,238.46343994140625,-0.013232177066544226,-0.999579924413861,-0.011699193704154273,-0.022978534886543167,0.010910000000000001,0.017610000000000004,0.005540000000000001,1.6803000000000001,1.5232,-9.4389,1.3624753739231183,3.0477756629435806,4.360000133514404,4.360000133514404,4.569999694824219,4.46999979019165,3.540360307614927,3.540360307614927,3.710881887594452,3.6296810430336857,3.605320886464498,0.18293512554084548,-0.4000000059604645,29.875,0.0,0.0,0.0,0.0,0.0,snow covered,0.237885773181915,-8.54643058776855,100.0,486.590789794922
arenacam6_1769615818940717807.png,1769615818940717807,1769615818.940718,42.30097946640661,-83.69765689546483,238.46237182617188,-0.01314755571213383,-0.9995845827227858,-0.011677147939067184,-0.022835235442610593,-0.008650000000000001,0.0038900000000000002,-0.006540000000000001,2.6256,-0.19340000000000002,-10.559000000000001,1.4218346309307788,3.1805587593142963,4.539999961853027,4.46999979019165,4.549999713897705,4.619999885559082,3.6865218278243064,3.6296810430336857,3.694641718682299,3.7514825034729196,3.6905817732533026,0.16035641927551222,-0.4000000059604645,30.05000114440918,0.0,0.0,0.0,0.0,0.0,snow covered,0.237885773181915,-8.54643058776855,100.0,486.590789794922
arenacam6_1769615818961675674.png,1769615818961675674,1769615818.961676,42.30097947109576,-83.69765724231071,238.4611358642578,-0.0131773284571437,-0.9995910684423741,-0.011584617825768539,-0.022579870123551685,0.012790000000000001,0.03490000000000001,-0.00011000000000000002,2.2520000000000002,0.11180000000000001,-9.9356,1.4655489575183982,3.278345085031206,5.139999866485596,4.569999694824219,5.069999694824219,4.779999732971191,4.173727282385073,3.710881887594452,4.116886497594452,3.8814038547701455,3.9707248805860305,0.2111979604332086,-0.4000000059604645,30.5,0.0,0.0,0.0,0.0,0.0,snow covered,0.237885773181915,-8.54643058776855,100.0,486.590789794922
arenacam6_1769615819001326065.png,1769615819001326065,1769615819.001326,42.30097947581299,-83.69765799106234,238.4590606689453,-0.013108143650461535,-0.9996004560711587,-0.01139169158149351,-0.022300990006784673,0.004750000000000001,0.018230000000000003,-0.0037500000000000003,2.1528,-0.8051,-10.239,1.5777800618856257,3.5293993316344316,5.059999942779541,5.059999942779541,5.380000114440918,5.179999828338623,4.10876660673646,4.10876660673646,4.368609696527081,4.206207620209379,4.198087632552345,0.18946235267978304,-0.5,30.625,0.0,0.0,0.0,0.0,0.0,snow covered,0.237885773181915,-8.54643058776855,100.0,486.590789794922
arenacam6_1769615819023277777.png,1769615819023277777,1769615819.0232778,42.30097948372937,-83.69765837908724,238.45814514160156,-0.01314974724736867,-0.9996035936922073,-0.01138554097922333,-0.02213840738547386,0.011910000000000002,0.015410000000000002,0.005890000000000001,2.2874000000000003,1.4572,-9.616800000000001,1.634487049050734,3.656249459503549,5.409999847412109,5.119999885559082,5.259999752044678,5.519999980926514,4.392969756297226,4.15748711347292,4.271168295857993,4.482290878912154,4.325979011135073,0.18317392154157355,-0.5,31.225000381469727,0.0,0.0,0.0,0.0,0.0,snow covered,0.237885773181915,-8.54643058776855,100.0,486.590789794922
arenacam6_1769615819042643251.png,1769615819042643251,1769615819.0426433,42.300979487450725,-83.69765879361637,238.45742797851562,-0.013151891346609323,-0.9996051423001214,-0.011272760694285596,-0.022124920508117322,0.02288,0.0026800000000000005,6e-05,2.6761,0.6763,-10.461400000000001,1.6657384668951534,3.726157006136445,5.589999675750732,5.369999885559082,5.639999866485596,5.710000038146973,4.539131276506605,4.36048941847292,4.579731892385073,4.636572677175694,4.528981316135074,0.21545638272259932,-0.6000000238418579,31.225000381469727,0.0,0.0,0.0,0.0,0.0,snow covered,0.237885773181915,-8.54643058776855,100.0,486.590789794922
arenacam6_1769615819063391184.png,1769615819063391184,1769615819.0633912,42.3009794914027,-83.69765920869432,238.45663452148438,-0.01315355887864883,-0.9996083148133132,-0.011278780737561835,-0.0219770323289557,-0.0013700000000000001,0.015920000000000004,0.008820000000000001,2.342,0.15180000000000002,-9.8735,1.7423800575195616,3.8975996458678086,5.549999713897705,5.519999980926514,5.730000019073486,5.62999963760376,4.506650938682299,4.482290878912154,4.652812846087847,4.571611614330912,4.553341569503303,0.16824250390383333,-0.6000000238418579,31.450000762939453,0.0,0.0,0.0,0.0,0.0,snow covered,0.237885773181915,-8.54643058776855,100.0,486.590789794922
arenacam6_1769615819083855718.png,1769615819083855718,1769615819.0838556,42.300979498517314,-83.69765963779474,238.45602416992188,-0.013162652133325903,-0.9996067168522518,-0.011348094554080132,-0.022008565665914224,-0.0056700000000000006,-0.007190000000000001,-0.0014600000000000004,2.5364,1.3736000000000002,-10.064,1.8059468051645617,4.039794646344815,5.849999904632568,5.579999923706055,6.019999980926514,6.099999904632568,4.750253859560766,4.531011385648613,4.888295488912154,4.9532561645607665,4.780704224670575,0.18340278236571533,-0.6000000238418579,32.275001525878906,0.0,0.0,0.0,0.0,0.0,snow covered,0.237885773181915,-8.54643058776855,100.0,486.590789794922
arenacam6_1769615819106510518.png,1769615819106510518,1769615819.1065106,42.30097950820241,-83.6976605507115,238.45480346679688,-0.013128459060729791,-0.9996092139371797,-0.011242455216270297,-0.021969755922507165,-0.01759,-0.0030900000000000003,-0.0028400000000000005,2.1694,-0.5663,-10.001900000000001,1.8885560304313778,4.224586526713167,6.139999866485596,6.12999963760376,6.079999923706055,5.949999809265137,4.985736502385072,4.977616224330911,4.937015995648613,4.8314547041215326,4.932955856621533,0.16767778939528424,-0.6000000238418579,32.625,0.0,0.0,0.0,0.0,0.0,snow covered,0.237885773181915,-8.54643058776855,100.0,486.590789794922
arenacam6_1769615819126511950.png,1769615819126511950,1769615819.1265118,42.30097950820241,-83.6976605507115,238.45480346679688,-0.013190630226241173,-0.9996073824711016,-0.011288753675796178,-0.021992094578612162,-0.008760000000000002,-0.0041400000000000005,0.012570000000000003,1.8598000000000001,1.8546,-9.9518,1.9115261071576277,4.275969210145184,6.089999675750732,6.0,6.349999904632568,6.159999847412109,4.9451358865066055,4.87205532,5.1562584695607665,5.001976671297226,4.99385658684115,0.16788880869223832,-0.6000000238418579,33.275001525878906,0.0,0.0,0.0,0.0,0.0,snow covered,0.237885773181915,-8.54643058776855,100.0,486.590789794922
arenacam6_1769615819147285486.png,1769615819147285486,1769615819.1472855,42.30097951335508,-83.69766102148571,238.45404052734375,-0.013144666528234372,-0.9996120760044688,-0.011081018609507573,-0.02191178391809388,0.01729,0.0024700000000000004,-0.01289,2.9655,-0.7586,-9.5481,1.9736252517045318,4.414881270547935,6.679999828338623,6.739999771118164,6.539999961853027,6.579999923706055,5.424221450209379,5.4729419569458395,5.310540267824307,5.343020605648613,5.387681070157035,0.22034563105892177,-0.6000000238418579,34.17499923706055,0.0,0.0,0.0,0.0,0.0,snow covered,0.237885773181915,-8.54643058776855,100.0,486.590789794922
arenacam6_1769615819168248303.png,1769615819168248303,1769615819.1682484,42.30097951832403,-83.69766151694576,238.4530487060547,-0.013188888404007504,-0.9996113320322252,-0.011027613582929547,-0.02194606648337094,0.010460000000000002,0.00269,0.010330000000000002,1.8927,0.5252,-9.5157,2.026737618738834,4.533690448861648,6.989999771118164,7.179999828338623,6.349999904632568,6.309999942779541,5.675944261945839,5.83022606020938,5.1562584695607665,5.12377813173646,5.446551730863112,0.20135059777419767,-0.6000000238418579,34.25,0.0,0.0,0.0,0.0,0.0,snow covered,0.237885773181915,-8.54643058776855,100.0,486.590789794922
arenacam6_1769615819188579163.png,1769615819188579163,1769615819.188579,42.30097952370446,-83.69766201397577,238.4522247314453,-0.013187936467205341,-0.9996120853727397,-0.010923952876183921,-0.021964160854873294,0.0076700000000000015,0.005030000000000001,-0.004940000000000001,1.5163,0.0695,-9.8193,2.069283112948479,4.628862166678971,6.670000076293945,7.259999752044678,6.869999885559082,6.789999961853027,5.416101559351387,5.895186735857992,5.578503248472919,5.513542572824306,5.6008335291266516,0.2099806231960094,-0.699999988079071,34.47500228881836,0.0,0.0,0.0,0.0,0.0,snow covered,0.237885773181915,-8.54643058776855,100.0,486.590789794922
arenacam6_1769615819209471132.png,1769615819209471132,1769615819.2094712,42.30097952992448,-83.69766252213924,238.45111083984375,-0.013187051578435582,-0.999619073830949,-0.010806689070203091,-0.021703095985676563,0.009620000000000002,0.032630000000000006,-5.000000000000001e-05,3.0868,-0.6428,-9.346400000000001,2.1240506159352015,4.75137378481009,7.119999885559082,7.12999963760376,6.649999618530273,6.670000076293945,5.78150555347292,5.789625444330912,5.399861003243066,5.416101559351387,5.59677339009957,0.1779274044892409,-0.699999988079071,34.22500228881836,0.0,0.0,0.0,0.0,0.0,snow covered,0.237885773181915,-8.54643058776855,100.0,486.590789794922
arenacam6_1769615819230907173.png,1769615819230907173,1769615819.2309072,42.300979535147555,-83.69766305587282,238.44992065429688,-0.013222251343454061,-0.9996165559213281,-0.010785982975564053,-0.0218076997559004,0.006370000000000001,-0.014740000000000001,0.005550000000000001,1.3135000000000001,1.3509,-9.986600000000001,2.180392632116349,4.877407494486346,7.489999771118164,7.369999885559082,7.089999675750732,7.099999904632568,6.08194887194584,5.98450785847292,5.757145106506605,5.765265384560767,5.897216805371533,0.209088396251088,-1.0,34.32500076293945,0.0,0.0,0.0,0.0,0.0,snow covered,0.237885773181915,-8.54643058776855,100.0,486.590789794922
arenacam6_1769615819250890627.png,1769615819250890627,1769615819.2508907,42.30097953666449,-83.69766358486397,238.4485626220703,-0.013184426371466273,-0.9996250050635527,-0.010634465707830817,-0.021515768451449892,0.00837,0.03883,-0.006720000000000001,1.4693,-1.0305,-9.5211,2.2084312575055347,4.940128217164431,7.519999980926514,7.659999847412109,7.139999866485596,7.21999979019165,6.106309318912153,6.219990501297226,5.797745722385073,5.862706398033686,5.996687985157035,0.21387294449597408,-1.0,34.025001525878906,0.0,0.0,0.0,0.0,0.0,snow covered,0.237885773181915,-8.54643058776855,100.0,486.590789794922
arenacam6_1769615819271889560.png,1769615819271889560,1769615819.2718897,42.30097954375004,-83.6976641306704,238.44735717773438,-0.01320086333681536,-0.9996281444761673,-0.010689640705055375,-0.02133170316441088,0.011070000000000002,-0.00491,-0.0018800000000000004,2.317,0.8574,-10.553,2.3118172546656246,5.171396489651722,7.569999694824219,7.899999618530273,7.269999980926514,7.179999828338623,6.146909547594452,6.414872528243065,5.903307013912154,5.83022606020938,6.073828787489763,0.1745045655740886,-1.2000000476837158,34.85000228881836,0.0,0.0,0.0,0.0,0.0,snow covered,0.237885773181915,-8.54643058776855,100.0,486.590789794922
arenacam6_1769615819292745265.png,1769615819292745265,1769615819.292745,42.300979547654705,-83.69766470193309,238.44627380371094,-0.013187257062689306,-0.9996316206856795,-0.010618130348975874,-0.021212602018054177,0.006750000000000001,0.012190000000000003,0.00128,1.1508,0.2494,-9.5091,2.351445810817679,5.260043192050499,8.019999504089355,8.010000228881836,7.789999961853027,7.489999771118164,6.512313541715985,6.504194038054162,6.325551792824307,6.08194887194584,6.356002061135073,0.20835548855205158,-1.2000000476837158,34.625,0.0,0.0,0.0,0.0,0.0,snow covered,0.237885773181915,-8.54643058776855,100.0,486.590789794922
arenacam6_1769615819311956222.png,1769615819311956222,1769615819.3119562,42.30097955050065,-83.69766527289134,238.4447784423828,-0.013181530520784246,-0.9996378616373316,-0.010557424674978045,-0.020950742671927564,0.0038800000000000006,0.009020000000000002,-0.0025800000000000003,3.4344,-0.1575,-10.4261,2.4140901917298128,5.400174913488088,8.039999961853027,7.929999828338623,7.519999980926514,7.440000057220459,6.528554097824307,6.4392329752093795,6.106309318912153,6.041348643263541,6.278861258802346,0.16271442303091918,-1.3000000715255737,34.70000076293945,0.0,0.0,0.0,0.0,0.0,snow covered,0.237885773181915,-8.54643058776855,100.0,486.590789794922
arenacam6_1769615819332358078.png,1769615819332358078,1769615819.3323581,42.30097955649464,-83.69766585750928,238.44374084472656,-0.01315972389668918,-0.9996381694238428,-0.010546321697291913,-0.020955357228370906,-0.0007000000000000001,-0.00068,0.0012200000000000002,2.5968,-0.1615,-10.9384,2.4763625865329613,5.539474524319043,8.380000114440918,8.269999504089355,8.269999504089355,8.079999923706055,6.804637356527081,6.715315846715985,6.715315846715985,6.5610344356486126,6.699075871401916,0.2093341781773824,-1.3000000715255737,34.97500228881836,0.0,0.0,0.0,0.0,0.0,snow covered,0.237885773181915,-8.54643058776855,100.0,486.590789794922
arenacam6_1769615819353198313.png,1769615819353198313,1769615819.3531983,42.300979561360386,-83.69766646773584,238.4427947998047,-0.013192319187012858,-0.9996388761149659,-0.01051318508574793,-0.020917767888292794,0.007690000000000001,0.013730000000000001,-0.00205,2.1909,0.7306,-9.8363,2.523444221396513,5.644793316610716,8.269999504089355,8.479999542236328,7.839999675750732,7.789999961853027,6.715315846715985,6.885837813891678,6.366152021506606,6.325551792824307,6.573214368734644,0.16447387885609535,-1.3000000715255737,34.97500228881836,0.0,0.0,0.0,0.0,0.0,snow covered,0.237885773181915,-8.54643058776855,100.0,486.590789794922
arenacam6_1769615819373845711.png,1769615819373845711,1769615819.3738458,42.300979566058466,-83.69766708119755,238.44161987304688,-0.013151036639251212,-0.9996383239090716,-0.010428788501382378,-0.021012186415704508,0.00638,-0.011470000000000001,-0.0005200000000000001,2.4192,-0.1668,-10.1643,2.583421584897683,5.778959080121024,8.279999732971191,8.569999694824219,8.269999504089355,8.359999656677246,6.723436124770146,6.958918767594452,6.715315846715985,6.7883968004187585,6.796516884874835,0.17607977330279026,-1.3000000715255737,35.625,0.0,0.0,0.0,0.0,0.0,snow covered,0.237885773181915,-8.54643058776855,100.0,486.590789794922
arenacam6_1769615819394481700.png,1769615819394481700,1769615819.3944817,42.30097957976649,-83.69766835675398,238.43991088867188,-0.013153041803652288,-0.9996341112246874,-0.010510006521137918,-0.021170284132863867,0.0014700000000000002,-0.012580000000000001,-0.0020000000000000005,2.2248,1.4278,-9.645800000000001,2.6670162145962593,5.965955251078957,8.34000015258789,8.630000114440918,8.34000015258789,8.369999885559082,6.772157018702774,7.00763966152708,6.772157018702774,6.796517078472919,6.837117694351387,0.1460222892410865,-1.3000000715255737,35.97500228881836,0.0,0.0,0.0,0.0,0.0,snow covered,0.237885773181915,-8.54643058776855,100.0,486.590789794922
arenacam6_1769615819415343310.png,1769615819415343310,1769615819.4153433,42.30097958198012,-83.69766901115304,238.4390869140625,-0.013119785941621442,-0.9996328343984442,-0.01046883540892007,-0.021271367952240168,0.007790000000000001,-0.020210000000000002,-0.007090000000000001,2.3563,-0.1612,-10.4601,2.6947572177685957,6.028010210715283,8.34000015258789,8.679999351501465,8.429999351501465,8.329999923706055,6.772157018702774,7.04823950301321,6.845237198013211,6.7640367406486135,6.857417615094453,0.13759223614200755,-1.2000000476837158,36.375,0.0,0.0,0.0,0.0,0.0,snow covered,0.237885773181915,-8.54643058776855,100.0,486.590789794922
arenacam6_1769615819435844739.png,1769615819435844739,1769615819.435845,42.300979589898596,-83.69766967631055,238.43833923339844,-0.013076798888644492,-0.9996279130830646,-0.010634728886291338,-0.021446101219985948,-0.025000000000000005,-0.007430000000000001,-0.0018700000000000004,1.8880000000000001,-0.47850000000000004,-10.044400000000001,2.741330772564591,6.132192458380636,8.5,8.84999942779541,8.949999809265137,8.699999809265137,6.90207837,7.186281132364598,7.267482364121533,7.064480059121533,7.105080481401916,0.15865255854644122,-1.2000000476837158,37.400001525878906,0.0,0.0,0.0,0.0,0.0,snow covered,0.237885773181915,-8.54643058776855,100.0,486.590789794922
arenacam6_1769615819456548525.png,1769615819456548525,1769615819.4565487,42.30097959638151,-83.69767036963923,238.43734741210938,-0.01307513246469355,-0.99962425454831,-0.010806975237181514,-0.02153137050885016,-0.00905,-0.016950000000000003,-0.004110000000000001,3.0634,1.2552,-9.040700000000001,2.8079508856516666,6.281217654149639,8.869999885559082,8.949999809265137,8.729999542236328,8.819999694824219,7.2025216884729195,7.267482364121533,7.088840118891678,7.161921072594452,7.180191311020145,0.14312092119218414,-1.2000000476837158,38.525001525878906,0.0,0.0,0.0,0.0,0.0,snow covered,0.237885773181915,-8.54643058776855,100.0,486.590789794922
arenacam6_1769615819477447670.png,1769615819477447670,1769615819.4774477,42.300979598668654,-83.69767105934635,238.4365692138672,-0.012990683570019368,-0.9996187958230721,-0.010868509367497822,-0.021803226406731248,-0.012100000000000001,-0.024350000000000004,-0.00591,1.2704,-0.5004000000000001,-10.3057,2.8529038793293386,6.381774803826971,9.079999923706055,9.130000114440918,9.34999942779541,9.010000228881836,7.373043655648613,7.413644271527081,7.592285742364598,7.316203258054162,7.423794231898614,0.16328050739847055,-1.2000000476837158,39.650001525878906,0.0,0.0,0.0,0.0,0.0,snow covered,0.237885773181915,-8.54643058776855,100.0,486.590789794922
arenacam6_1769615819499091943.png,1769615819499091943,1769615819.4990919,42.30097960793186,-83.69767176320259,238.43557739257812,-0.01299439604529512,-0.9996178233534176,-0.011013750456789163,-0.02177269405629677,-0.011270000000000002,0.0030900000000000003,-0.00011000000000000002,2.1846,0.7879,-9.029300000000001,2.901048724182734,6.489471933073325,9.670000076293945,9.380000114440918,9.479999542236328,9.059999465942383,7.852129219351387,7.616646576527081,7.697847033891678,7.356803099540292,7.63085648232761,0.17588250030595956,-1.2000000476837158,40.125,0.0,0.0,0.0,0.0,0.0,snow covered,0.237885773181915,-8.54643058776855,100.0,486.590789794922
arenacam6_1769615819519990079.png,1769615819519990079,1769615819.51999,42.30097961522482,-83.69767249149221,238.43423461914062,-0.01294052045389077,-0.9996195978809825,-0.010886301311265344,-0.021787402470355224,0.018580000000000003,-0.007840000000000001,-0.008260000000000002,2.6914000000000002,0.2792,-9.573400000000001,2.9640148816905953,6.6303234494489605,10.039999961853027,9.84999942779541,9.359999656677246,9.179999351501465,8.152572537824307,7.998290352364598,7.600406020418759,7.45424411301321,7.8013782559052185,0.17662106764242147,-1.2000000476837158,40.525001525878906,0.0,0.0,0.0,0.0,0.0,snow covered,0.237885773181915,-8.54643058776855,100.0,486.590789794922
arenacam6_1769615819540703596.png,1769615819540703596,1769615819.5407035,42.30097962500661,-83.69767321895365,238.43280029296875,-0.01293508200047122,-0.9996217496077437,-0.010732284023029025,-0.021768312852481143,0.013440000000000002,0.014230000000000001,0.0037400000000000007,1.241,0.4464,-9.889700000000001,2.9987768714910708,6.708083934913236,10.460000038146973,10.219999313354492,9.760000228881836,9.719999313354492,8.493616472175693,8.298733670837517,7.925210173054162,7.892729060837517,8.152572344226222,0.2153354703561367,-1.2000000476837158,40.875,0.0,0.0,0.0,0.0,0.0,snow covered,0.237885773181915,-8.54643058776855,100.0,486.590789794922
arenacam6_1769615819580832093.png,1769615819580832093,1769615819.580832,42.30097964634812,-83.69767472102288,238.42947387695312,-0.012879598361012046,-0.9996470689255381,-0.009811171831857611,-0.021061681839907545,0.03944,0.04030000000000001,-0.0028300000000000005,1.4782000000000002,-0.5099,-9.8687,3.1243573780040603,6.988999993152404,11.550000190734863,11.309999465942383,10.210000038146973,9.809999465942383,9.378706645878468,9.18382384454029,8.290614167175693,7.965810014540291,8.704738668033686,0.245491297261741,-1.2000000476837158,41.125,0.0,0.0,0.0,0.0,0.0,snow covered,0.237885773181915,-8.54643058776855,100.0,486.590789794922
arenacam6_1769615819601959476.png,1769615819601959476,1769615819.6019595,42.30097965890163,-83.69767548743032,238.4274444580078,-0.012868608755853272,-0.999652728024635,-0.009703346751250608,-0.020848676778601957,0.02202,0.04240000000000001,-0.00232,2.0748,-0.1569,-9.9427,3.1491554163334055,7.044471717012849,12.069999694824219,11.649999618530273,10.329999923706055,10.149999618530273,9.800951037594453,9.459907103243065,8.388055180648614,8.241893273243065,8.9727016486823,0.2737224321609032,-1.2000000476837158,40.97500228881836,0.0,0.0,0.0,0.0,0.0,snow covered,0.237885773181915,-8.54643058776855,100.0,486.590789794922
arenacam6_1769615819623348437.png,1769615819623348437,1769615819.6233485,42.30097966952056,-83.69767626477353,238.4259490966797,-0.012852834563518822,-0.9996659324803032,-0.009245596908031072,-0.020429072905615728,0.023810000000000005,0.014710000000000003,-0.0032600000000000003,2.653,-0.5235000000000001,-10.636700000000001,3.2430987464938332,7.254617309981916,13.019999504089355,12.369999885559082,10.960000038146973,10.079999923706055,10.572359641715984,10.04455395847292,8.899621082175694,8.185052875648612,9.4253968895033,0.2992273040418717,-1.2000000476837158,41.57500076293945,0.0,0.0,0.0,0.0,0.0,snow covered,0.237885773181915,-8.54643058776855,100.0,486.590789794922
arenacam6_1769615819644360772.png,1769615819644360772,1769615819.6443608,42.30097968004295,-83.6976770679563,238.42437744140625,-0.012823642526300916,-0.9996708043411786,-0.009145102922103781,-0.02025349927204741,0.0119,0.017610000000000004,-0.0011400000000000002,1.9741000000000002,0.5722,-9.9823,3.2942336764098923,7.369003080108345,13.119999885559082,12.710000038146973,11.380000114440918,10.460000038146973,10.65356087347292,10.320637217175694,9.240665016527082,8.493616472175693,9.677119894837848,0.31321968380769993,-1.2000000476837158,42.67499923706055,0.0,0.0,0.0,0.0,0.0,snow covered,0.237885773181915,-8.54643058776855,100.0,486.590789794922
arenacam6_1769615819664827434.png,1769615819664827434,1769615819.6648273,42.300979690726884,-83.69767787647889,238.4228057861328,-0.012758229177775027,-0.9996734611196931,-0.009039547235752721,-0.020211019444676074,0.006180000000000001,-0.006790000000000001,-0.009120000000000001,3.3257000000000003,-0.08850000000000001,-10.6811,3.362849229615755,7.522491955696667,12.960000038146973,12.670000076293945,10.739999771118164,9.920000076293945,10.523639522175694,10.288156879351387,8.72097883694584,8.055131524351388,9.396976690706078,0.24918401322980374,-1.2000000476837158,43.32500076293945,0.0,0.0,0.0,0.0,0.0,snow covered,0.237885773181915,-8.54643058776855,100.0,486.590789794922
arenacam6_1769615819686002277.png,1769615819686002277,1769615819.6860023,42.300979702240916,-83.69767869568275,238.42161560058594,-0.012730060080952454,-0.9996710760175136,-0.008999097664745262,-0.020364223175502665,0.0033300000000000005,-0.017460000000000003,-0.0036900000000000006,2.3366000000000002,-0.30560000000000004,-10.533000000000001,3.419999151428271,7.650332901795957,12.819999694824219,12.929999351501465,10.469999313354492,10.789999961853027,10.409957952594452,10.499278688013211,8.501735975837518,8.761579452824307,9.543138017317371,0.2474147386549765,-1.2000000476837158,43.525001525878906,0.0,0.0,0.0,0.0,0.0,snow covered,0.237885773181915,-8.54643058776855,100.0,486.590789794922
arenacam6_1769615819706382303.png,1769615819706382303,1769615819.7063823,42.3009797105374,-83.6976795454734,238.4203643798828,-0.012664300929206895,-0.9996671060659335,-0.009154641992759482,-0.02053010135680492,-0.022170000000000002,-0.01786,-0.0054,2.4107000000000003,-0.3321,-9.9429,3.47588493726031,7.775346051555078,12.40999984741211,13.15999984741211,11.130000114440918,11.069999694824219,10.077034296297228,10.686041211297226,9.037662711527082,8.988941817594451,9.697420009178996,0.24720108209711142,-1.3000000715255737,44.17499923706055,0.0,0.0,0.0,0.0,0.0,snow covered,0.237885773181915,-8.54643058776855,100.0,486.590789794922
arenacam6_1769615819727146470.png,1769615819727146470,1769615819.7271464,42.300979720528254,-83.69768039918098,238.4192352294922,-0.012648116373503326,-0.9996594198690634,-0.009363531357971282,-0.02081810989879658,-0.021740000000000002,-0.03375,-0.00427,3.2151,-0.43210000000000004,-10.4153,3.5430906852027877,7.9256812773575245,12.00999927520752,13.319999694824219,11.09000015258789,10.679999351501465,9.752230143661823,10.815962562594452,9.005182373702773,8.67225794301321,9.561408255743064,0.20638313870361719,-1.399999976158142,44.54999923706055,0.0,0.0,0.0,0.0,0.0,snow covered,0.237885773181915,-8.54643058776855,100.0,486.590789794922
arenacam6_1769615819747905520.png,1769615819747905520,1769615819.7479055,42.300979726382266,-83.69768126247634,238.41835021972656,-0.012601370615412721,-0.9996453674866651,-0.009859483399483664,-0.02128697508239188,-0.06047000000000001,-0.038610000000000005,-0.0006300000000000001,1.9598,-0.6578,-9.7003,3.5989904315164867,8.05072565587649,11.579999923706055,13.139999389648438,11.279999732971191,11.6899995803833,9.403066705648614,10.669800655188904,9.159463784770146,9.49238744106737,9.68117964666876,0.20252261230664922,-1.399999976158142,44.47500228881836,0.0,0.0,0.0,0.0,0.0,snow covered,0.237885773181915,-8.54643058776855,100.0,486.590789794922
arenacam6_1769615819768924134.png,1769615819768924134,1769615819.7689242,42.300979729476765,-83.69768215527247,238.41697692871094,-0.012663884398360026,-0.9996310262948803,-0.010448067279145951,-0.021639667065826144,-0.05500000000000001,-0.03645000000000001,0.00562,2.5233000000000003,-0.1645,-9.0236,3.6539056767782605,8.173567764612363,11.649999618530273,12.869999885559082,11.609999656677246,12.09999942779541,9.459907103243065,10.45055856847292,9.427426765418758,9.825311097364597,9.790800883624835,0.1978613459368768,-1.399999976158142,44.47500228881836,0.0,0.0,0.0,0.0,0.0,snow covered,0.237885773181915,-8.54643058776855,100.0,486.590789794922
arenacam6_1769615819809983618.png,1769615819809983618,1769615819.8099837,42.30097973140722,-83.69768395566958,238.41464233398438,-0.012809053400665515,-0.999598928831664,-0.011760364589377242,-0.022351810984655076,-0.05145,-0.019010000000000003,0.012210000000000002,2.1818,0.4857,-9.0961,3.7606228366155823,8.41228764813886,12.4399995803833,12.899999618530273,12.84000015258789,12.179999351501465,10.101394356067372,10.474918628243065,10.426198508702774,9.890271773013211,10.223195816506605,0.21526940638654818,-1.399999976158142,44.57500076293945,0.0,0.0,0.0,0.0,0.0,snow covered,0.237885773181915,-8.54643058776855,100.0,486.590789794922
arenacam6_1769615819849716751.png,1769615819849716751,1769615819.8497167,42.300979733841736,-83.69768581995538,238.41082763671875,-0.013123454176541371,-0.9995744726048839,-0.012742481776192222,-0.02272174784932401,-0.025370000000000004,-0.011070000000000002,0.009380000000000001,2.5158,-0.0246,-10.1228,3.9022042706203233,8.728996821121427,13.899999618530273,13.179999351501465,12.960000038146973,13.829999923706055,11.286927848243065,10.702280993013211,10.523639522175694,11.230087450648613,10.935733953520145,0.2528053541111515,-1.399999976158142,44.97500228881836,0.0,0.0,0.0,0.0,0.0,snow covered,0.237885773181915,-8.54643058776855,100.0,486.590789794922
arenacam6_1769615819870614052.png,1769615819870614052,1769615819.870614,42.30097973647246,-83.69768676277366,238.40882873535156,-0.01332341515756702,-0.999572001188275,-0.012843311465172163,-0.022657237245849855,-0.0024200000000000003,0.015950000000000002,0.019290000000000005,1.9263000000000001,0.4847,-9.184700000000001,3.9465927505087612,8.82829118732307,14.559999465942383,14.399999618530273,14.539999961853027,14.769999504089355,11.822853809540293,11.692932458243066,11.806614027824308,11.993375776715984,11.828944018080913,0.3398905594625846,-1.399999976158142,44.775001525878906,0.0,0.0,0.0,0.0,0.0,snow covered,0.237885773181915,-8.54643058776855,100.0,486.590789794922
arenacam6_1769615819893117224.png,1769615819893117224,1769615819.8931172,42.3009797399934,-83.69768773381418,238.4064483642578,-0.013465953837348554,-0.9995703703995927,-0.012879046831556724,-0.022624607381831408,0.0008100000000000001,-0.0021900000000000005,0.015850000000000003,2.4348,1.2251,-9.770800000000001,4.009810639260201,8.969705811386715,16.15999984741211,16.959999084472656,15.630000114440918,15.380000114440918,13.122068871297225,13.771675627783356,12.691704201527081,12.48870189652708,13.018537649283687,0.4513895910339809,-1.399999976158142,44.85000228881836,0.0,0.0,0.0,0.0,0.0,snow covered,0.237885773181915,-8.54643058776855,100.0,486.590789794922
arenacam6_1769615819912186568.png,1769615819912186568,1769615819.9121866,42.30097974454399,-83.69768870586452,238.40420532226562,-0.013555965870562403,-0.9995712564307904,-0.012790205870965961,-0.02258206678906135,0.01819,0.008620000000000001,0.01736,2.2782,0.0594,-10.193900000000001,4.062790589848248,9.08821878205514,16.81999969482422,18.0,15.679999351501465,15.619999885559082,13.657994832594452,14.61616596,12.732304043013212,12.68358392347292,13.422512189770146,0.4769134097292145,-1.399999976158142,44.95000076293945,0.0,0.0,0.0,0.0,0.0,snow covered,0.237885773181915,-8.54643058776855,100.0,486.590789794922
arenacam6_1769615819933730338.png,1769615819933730338,1769615819.9337304,42.30097974997805,-83.6976896886129,238.4020233154297,-0.013736440600378041,-0.9995700676906437,-0.01280157279218864,-0.02251909657602823,-0.006940000000000001,0.014110000000000001,0.021960000000000004,1.707,0.6930000000000001,-9.591000000000001,4.084222688950919,9.13616110182187,18.25,19.44999885559082,17.420000076293945,16.920000076293945,14.819168265,15.793578399729196,14.145200674351388,13.739196064351386,14.62428585085799,0.6007035874117541,-1.399999976158142,44.525001525878906,0.0,0.0,0.0,0.0,0.0,snow covered,0.237885773181915,-8.54643058776855,100.0,486.590789794922
arenacam6_1769615819952961630.png,1769615819952961630,1769615819.9529614,42.300979754574485,-83.69769070197506,238.3994598388672,-0.013913793821918707,-0.9995732871525402,-0.012696544287777917,-0.02232594266083943,0.014900000000000002,0.01175,0.01276,3.4145000000000003,-0.25630000000000003,-9.546100000000001,4.151181418084006,9.285943761368836,20.81999969482422,21.65999984741211,18.709999084472656,18.850000381469727,16.90603171259445,17.588119581297228,15.192691762783356,15.306374106756934,16.24830429085799,0.7497741434159663,-1.2000000476837158,44.70000076293945,0.0,0.0,0.0,0.0,0.0,snow covered,0.237885773181915,-8.54643058776855,100.0,486.590789794922
arenacam6_1769615819973734938.png,1769615819973734938,1769615819.9737349,42.30097976482135,-83.697692736155,238.39483642578125,-0.014199712079579374,-0.9995661838962662,-0.01272989250237782,-0.022444643565689825,0.0013700000000000001,0.00576,0.027630000000000005,1.3537000000000001,0.6983,-9.7715,4.220666676766794,9.441378115926714,22.989999771118164,22.920000076293945,19.389999389648438,19.850000381469727,18.66809178194584,18.611251384351387,15.744858280188904,16.118383326756934,17.285646193310768,0.8308393097985891,-1.0,44.42499923706055,0.0,0.0,0.0,0.0,0.0,snow covered,0.237885773181915,-8.54643058776855,100.0,486.590789794922
arenacam6_1769615819995631617.png,1769615819995631617,1769615819.9956317,42.30097977266563,-83.69769378344546,238.39224243164062,-0.014422128581659255,-0.9995682218627833,-0.012461384910590022,-0.022362601265458262,0.03824,0.010970000000000002,0.017220000000000003,1.863,1.1862000000000001,-9.3216,4.263469093413875,9.537124553821233,24.90999984741211,24.149999618530273,20.549999237060547,20.28999900817871,20.227149546297223,19.610022353243064,16.68678885148613,16.47566626843197,18.249906754864597,0.9135648959887411,-0.6000000238418579,44.54999923706055,0.0,0.0,0.0,0.0,0.0,snow covered,0.237885773181915,-8.54643058776855,100.0,486.590789794922
arenacam6_1769615820016467494.png,1769615820016467494,1769615820.0164676,42.30097977266563,-83.69769378344546,238.39224243164062,-0.014612824662926627,-0.9995682558801325,-0.012147641668472401,-0.022409863766094603,0.026350000000000005,-0.014690000000000002,0.021580000000000005,2.632,-0.5332,-10.559800000000001,4.323728251046771,9.671920673896565,25.549999237060547,24.76999855041504,19.6299991607666,19.90999984741211,20.74683495148613,20.113467202323648,15.939740307134743,16.167103446297226,18.241786476810436,0.8860562541670738,0.0,45.0,0.0,0.0,0.0,0.0,0.0,snow covered,0.237885773181915,-8.54643058776855,100.0,486.590789794922
arenacam6_1769615820037377840.png,1769615820037377840,1769615820.0373778,42.30097977912686,-83.69769483249955,238.3899383544922,-0.014911211164324423,-0.9995592877135343,-0.011904449198871226,-0.022741376750232904,0.028650000000000005,-0.041260000000000005,0.028850000000000004,1.6648,1.1511,-10.3986,4.374183453998422,9.784785935587232,25.44999885559082,25.559999465942383,19.260000228881836,19.439998626708984,20.665633719729193,20.754955229540293,15.639297763054161,15.785458121675035,18.21133620849967,0.8611890263500915,0.699999988079071,44.900001525878906,0.0,0.0,0.0,0.0,0.0,snow covered,0.237885773181915,-8.54643058776855,100.0,486.590789794922
arenacam6_1769615820056488869.png,1769615820056488869,1769615820.056489,42.30097980004734,-83.69769697031981,238.38528442382812,-0.015226013736926836,-0.9995561214738069,-0.011160465798905322,-0.023047180588405408,0.04631000000000001,-0.021990000000000003,0.014040000000000002,1.9253,-0.37410000000000004,-9.465,4.432894694999408,9.916119459031977,25.44999885559082,26.010000228881836,19.959999084472656,19.520000457763672,20.665633719729193,21.120359998054163,16.207703287783357,15.850420346108324,18.46102933791876,0.861719134606003,1.2000000476837158,44.625,0.0,0.0,0.0,0.0,0.0,snow covered,0.237885773181915,-8.54643058776855,100.0,486.590789794922
arenacam6_1769615820077256720.png,1769615820077256720,1769615820.0772567,42.30097981081997,-83.69769805598963,238.38328552246094,-0.015430946879502083,-0.9995450469165406,-0.01094422806220755,-0.02349061376667948,0.014020000000000003,-0.06106000000000001,0.021490000000000002,2.6374,0.1991,-10.8276,4.4952370281277485,10.055575517700087,24.939998626708984,26.059999465942383,19.35999870300293,19.439998626708984,20.251508831675036,21.160959839540293,15.720497446026421,15.785458121675035,18.229606059729196,0.812885401500985,1.899999976158142,44.85000228881836,0.0,0.0,0.0,0.0,0.0,snow covered,0.237885773181915,-8.54643058776855,100.0,486.590789794922
arenacam6_1769615820100198372.png,1769615820100198372,1769615820.1001985,42.30097982283318,-83.69769914749318,238.38128662109375,-0.015587583054543441,-0.9995317642661123,-0.010711020427005363,-0.024053139483292157,0.028210000000000002,-0.050140000000000004,0.01118,1.1049,0.7151000000000001,-10.192400000000001,4.532396459395455,10.13869893588007,24.35999870300293,24.959999084472656,18.850000381469727,19.28999900817871,19.780543546026422,20.267749387783354,15.306374106756934,15.663657048431968,17.75458102224967,0.7511695666805515,2.799999952316284,44.70000076293945,0.0,0.0,0.0,0.0,0.0,snow covered,0.237885773181915,-8.54643058776855,100.0,486.590789794922
arenacam6_1769615820118711323.png,1769615820118711323,1769615820.1187112,42.300979832693464,-83.69770026058222,238.37925720214844,-0.015703917354023877,-0.9995222621783447,-0.010569087721972618,-0.024432125866320382,0.008640000000000002,-0.03538,0.01076,1.3033000000000001,-0.5555,-9.583400000000001,4.565401444078781,10.21252910631759,23.60999870300293,23.729999542236328,18.69999885559082,18.989999771118164,19.17153663102642,19.26897841889168,15.184571484729195,15.42005490194584,17.261285359148285,0.6902067234716867,3.4000000953674316,44.525001525878906,0.0,0.0,0.0,0.0,0.0,snow covered,0.237885773181915,-8.54643058776855,100.0,486.590789794922
arenacam6_1769615820139709744.png,1769615820139709744,1769615820.1397097,42.30097984569361,-83.69770137961267,238.37757873535156,-0.015772983659795015,-0.9995172039959266,-0.010567209984725955,-0.024594836363995533,0.0002800000000000001,-0.03262,0.013440000000000002,2.0707,0.0863,-10.1803,4.62125349948199,10.337466803131244,23.06999969482422,22.479999542236328,17.899999618530273,18.15999984741211,18.733052457594454,18.25396689389168,14.534964728243066,14.746087311297225,16.567017847756606,0.6026187230645728,3.9000000953674316,44.67499923706055,0.0,0.0,0.0,0.0,0.0,snow covered,0.237885773181915,-8.54643058776855,100.0,486.590789794922
arenacam6_1769615820159943120.png,1769615820159943120,1769615820.159943,42.30097985713833,-83.69770250343319,238.37583923339844,-0.015909703121587182,-0.9994971704668916,-0.010552785709294523,-0.025316522056434313,0.0027,-0.04503000000000001,0.005870000000000001,1.3345,0.41240000000000004,-9.967,4.66562471410057,10.43672254796013,22.559999465942383,21.809999465942383,17.479999542236328,17.35999870300293,18.318927569540293,17.70992065454029,14.193920793891678,14.09647900602642,16.07981200599967,0.5406955518945445,4.099999904632568,44.82500076293945,0.0,0.0,0.0,0.0,0.0,snow covered,0.237885773181915,-8.54643058776855,100.0,486.590789794922
arenacam6_1769615820180689893.png,1769615820180689893,1769615820.1806898,42.30097986588416,-83.69770364886932,238.3734130859375,-0.015967499190682632,-0.9994900464236969,-0.010565807678563535,-0.025554838634811353,-0.005230000000000001,-0.022710000000000004,0.005880000000000001,1.7635,-0.5930000000000001,-9.674900000000001,4.703594373207722,10.521658397203282,21.809999465942383,21.559999465942383,17.239999771118164,16.8799991607666,17.70992065454029,17.506918349540292,13.999038766945839,13.706714952134744,15.730648180790292,0.49507307564476616,4.200000286102295,44.54999923706055,0.0,0.0,0.0,0.0,0.0,snow covered,0.237885773181915,-8.54643058776855,100.0,486.590789794922
arenacam6_1769615820203123446.png,1769615820203123446,1769615820.2031236,42.30097987819109,-83.69770479844645,238.37123107910156,-0.01603629852896188,-0.9994820809099858,-0.010612323261167981,-0.025802822797808028,0.0013400000000000003,-0.019060000000000004,0.006310000000000001,2.0206,0.913,-9.775,4.7530585958073805,10.632306895305362,20.869998931884766,22.1299991607666,14.369999885559082,16.34000015258789,16.946631554080582,17.96976335713474,11.66857239847292,13.268230778702774,14.963299522097753,0.4073427027115552,4.200000286102295,44.5,0.0,0.0,0.0,0.0,0.0,snow covered,0.237885773181915,-8.54643058776855,100.0,486.590789794922
arenacam6_1769615820223858813.png,1769615820223858813,1769615820.2238586,42.30097988909518,-83.6977059544899,238.3692626953125,-0.016089471870487204,-0.9994767948868051,-0.010575835477269053,-0.025988787614779737,0.0008100000000000001,-0.012660000000000001,0.00459,1.2605,-0.2121,-9.4064,4.7937201522541395,10.723264357383375,21.170000076293945,21.549999237060547,14.25,16.34000015258789,17.190235249351385,17.49879807148613,11.571131385000001,13.268230778702774,14.882098871135073,0.38783288140128547,4.300000190734863,44.42499923706055,0.0,0.0,0.0,0.0,0.0,snow covered,0.237885773181915,-8.54643058776855,100.0,486.590789794922
arenacam6_1769615820242690425.png,1769615820242690425,1769615820.2426903,42.30097989920613,-83.69770713263136,238.36668395996094,-0.016098589623761372,-0.9994760983525787,-0.010605418202575673,-0.0259978718125285,-0.005830000000000001,-0.0012900000000000001,0.0017200000000000004,1.3614000000000002,-0.0132,-9.8564,4.812547391136277,10.765379761128383,21.689998626708984,21.020000457763672,14.559999465942383,15.979999542236328,17.612478866675033,17.068434176108322,11.822853809540293,12.975906963891678,14.869918454053831,0.3812720762295921,4.300000190734863,44.47500228881836,0.0,0.0,0.0,0.0,0.0,snow covered,0.237885773181915,-8.54643058776855,100.0,486.590789794922
arenacam6_1769615820263505003.png,1769615820263505003,1769615820.263505,42.300979912008486,-83.69770831336746,238.3642578125,-0.016164706612170843,-0.9994709021647428,-0.010649272351566352,-0.02613830492820218,0.0051,-0.01699,0.0035000000000000005,1.7057,1.3246,-10.5769,4.891541780186924,10.942085469771339,21.939998626708984,21.209999084472656,14.679999351501465,14.049999237060547,17.815481171675035,17.222714812783355,11.92029482301321,11.40872892148613,14.591804932239432,0.33354879858604897,4.300000190734863,44.04999923706055,0.0,0.0,0.0,0.0,0.0,snow covered,0.237885773181915,-8.54643058776855,100.0,486.590789794922
arenacam6_1769615820284222747.png,1769615820284222747,1769615820.2842226,42.300979926809,-83.69770950424578,238.36257934570312,-0.016149284942458375,-0.9994734434561301,-0.010389125475016022,-0.02615535305931472,0.03168,0.0015,-0.00255,1.7944,0.5033,-10.349,4.935497444637746,11.04041165380796,22.029998779296875,21.639999389648438,15.229999542236328,14.609999656677246,17.88856212537781,17.571879025188903,12.36690004889168,11.863454425418759,14.922698906219287,0.3516433421277624,4.300000190734863,44.25,0.0,0.0,0.0,0.0,0.0,snow covered,0.237885773181915,-8.54643058776855,100.0,486.590789794922
arenacam6_1769615820305935929.png,1769615820305935929,1769615820.3059359,42.30097994199641,-83.69771072107281,238.3609619140625,-0.016188648047917975,-0.9994770252118593,-0.009945824212449434,-0.02616647337276796,0.04521000000000001,-0.0025000000000000005,0.00010000000000000002,3.0809,-0.28390000000000004,-11.133000000000001,4.9983900774074,11.18109869975571,21.93000030517578,22.029998779296875,15.059999465942383,14.960000038146973,17.807362442405548,17.88856212537781,12.228858419540291,12.147657962175694,15.018110237374836,0.3431694541523866,4.200000286102295,44.29999923706055,0.0,0.0,0.0,0.0,0.0,snow covered,0.237885773181915,-8.54643058776855,100.0,486.590789794922
arenacam6_1769615820326601897.png,1769615820326601897,1769615820.326602,42.30097995959708,-83.69771193936499,238.35939025878906,-0.016212190180914743,-0.9994696619016579,-0.009606371221738446,-0.026557060448654062,0.03612,-0.044860000000000004,0.0012600000000000003,2.1209000000000002,1.3185,-11.4163,5.06443679394152,11.328841241839545,21.969999313354492,23.029998779296875,15.40999984741211,14.84999942779541,17.839842005837518,18.700571345377806,12.513061956297227,12.058336452364598,15.277952939969287,0.3485891993564999,3.9000000953674316,44.22500228881836,0.0,0.0,0.0,0.0,0.0,snow covered,0.237885773181915,-8.54643058776855,100.0,486.590789794922
arenacam6_1769615820348657580.png,1769615820348657580,1769615820.3486576,42.30097997958722,-83.69771317263064,238.35877990722656,-0.0162137105938146,-0.9994679994449177,-0.008943507658561549,-0.026848600431218606,0.07537,-0.02237,-0.00572,2.3835,0.5085000000000001,-10.14,5.111863339808276,11.434931579350726,21.81999969482422,23.549999237060547,16.03999900817871,15.299999237060547,17.71804093259445,19.122816511486132,13.02462708343197,12.42374044648613,15.57230624349967,0.36181892610710864,3.5,44.04999923706055,0.0,0.0,0.0,0.0,0.0,snow covered,0.237885773181915,-8.54643058776855,100.0,486.590789794922
arenacam6_1769615820368789438.png,1769615820368789438,1769615820.3687894,42.30097999959256,-83.69771442976531,238.35775756835938,-0.01614060541041329,-0.9994634004175922,-0.00839742685161688,-0.027237387998134157,0.0407,-0.03678000000000001,-0.0029100000000000003,2.3176,0.12510000000000002,-9.4966,5.164021933403584,11.551607223707814,21.53999900817871,23.170000076293945,16.06999969482422,15.269999504089355,17.49067779343197,18.814253689351386,13.048987917594452,12.399380386715984,15.438324946773449,0.3364655365955287,3.299999952316284,44.10000228881836,0.0,0.0,0.0,0.0,0.0,snow covered,0.237885773181915,-8.54643058776855,100.0,486.590789794922
arenacam6_1769615820429638618.png,1769615820429638618,1769615820.4296386,42.300980066346895,-83.6977182504641,238.3533935546875,-0.01589219793870711,-0.9994283875138956,-0.00753691400943376,-0.028870940463822384,-0.027480000000000004,-0.059570000000000005,-0.014690000000000002,2.3065,-0.10300000000000001,-7.0657000000000005,5.341761483680772,11.949199933304866,19.369998931884766,23.8799991607666,15.670000076293945,15.609999656677246,15.728617724080582,19.390779492134744,12.724184539351388,12.675463645418759,15.129761350246369,0.2661735877459567,2.5,43.57500076293945,0.0,0.0,0.0,0.0,0.0,snow covered,0.237885773181915,-8.54643058776855,100.0,486.590789794922
arenacam6_1769615820451726584.png,1769615820451726584,1769615820.4517267,42.30098008522836,-83.69771954532605,238.3505401611328,-0.015811380022284383,-0.9994156102676162,-0.007614994905517534,-0.02933342918562438,0.00427,-0.043890000000000005,-0.0025000000000000005,1.2604,1.8191000000000002,-8.7192,5.38209779096512,12.039429832521517,17.729999542236328,23.869998931884766,16.31999969482422,15.529999732971191,14.396923098891678,19.382659214080583,13.251990222594452,12.610502969770145,14.910518876334214,0.23847383835878724,2.5,43.85000228881836,0.0,0.0,0.0,0.0,0.0,snow covered,0.237885773181915,-8.54643058776855,100.0,486.590789794922
arenacam6_1769615820472163581.png,1769615820472163581,1769615820.4721637,42.300980109004875,-83.69772084882672,238.34725952148438,-0.015632181323952166,-0.99941601242199,-0.0073641456995904905,-0.02947945690983757,0.019300000000000005,-0.014860000000000002,-0.022770000000000002,2.1517,-1.8375000000000001,-8.9632,5.429951538231585,12.146475793931762,15.880000114440918,23.350000381469727,17.190000534057617,16.139999389648438,12.894706506527081,18.960415596756935,13.95843892545971,13.105828315188905,14.729847335983159,0.21268486315528817,2.6000001430511475,43.75,0.0,0.0,0.0,0.0,0.0,snow covered,0.237885773181915,-8.54643058776855,100.0,486.590789794922
arenacam6_1769615820491026463.png,1769615820491026463,1769615820.4910264,42.30098012552075,-83.6977221740197,238.34207153320312,-0.015557594802755925,-0.9994156471393207,-0.007446232565518393,-0.029510661084192178,-0.016960000000000003,-0.005790000000000001,-0.014520000000000002,1.0176,-1.4131,-7.985,5.445868496844158,12.18208107533057,16.239999771118164,22.029998779296875,16.78999900817871,16.35999870300293,13.18702954694584,17.88856212537781,13.63363399843197,13.28446978602642,14.49842386419551,0.1901434389199453,3.299999952316284,43.82500076293945,0.0,0.0,0.0,0.0,0.0,snow covered,0.237885773181915,-8.54643058776855,100.0,486.590789794922
arenacam6_1769615820511715148.png,1769615820511715148,1769615820.5117152,42.30098015242334,-83.69772350071808,238.3366241455078,-0.015516299570480063,-0.9994231002391598,-0.007516922563719821,-0.029261015552378703,0.0061,0.014910000000000003,-0.0027400000000000002,3.1996,1.6311,-8.2825,5.502425110865808,12.30859482750016,16.84000015258789,17.479999542236328,16.600000381469727,16.43000030517578,13.674235388702774,14.193920793891678,13.479353361756935,13.341311732405547,13.672205319189235,0.11078522859835009,3.4000000953674316,43.775001525878906,0.0,0.0,0.0,0.0,0.0,snow covered,0.237885773181915,-8.54643058776855,100.0,486.590789794922
arenacam6_1769615820533737760.png,1769615820533737760,1769615820.5337377,42.300980198174344,-83.69772619933562,238.326904296875,-0.015281245846079872,-0.9994278611417429,-0.006643073128331062,-0.029433033796135145,0.060110000000000004,-0.00017,-0.014840000000000002,0.7193,-1.9938,-11.8163,5.579889194412235,12.481877334548507,18.549999237060547,16.559999465942383,17.510000228881836,16.40999984741211,15.06277041148613,13.446872249540291,14.21828162805416,13.325071176297227,14.013248866344451,0.12268759664519943,3.4000000953674316,43.775001525878906,0.0,0.0,0.0,0.0,0.0,snow covered,0.237885773181915,-8.54643058776855,100.0,486.590789794922
arenacam6_1769615820553084833.png,1769615820553084833,1769615820.5530849,42.300980198174344,-83.69772619933562,238.326904296875,-0.015253943281136106,-0.9994373131632611,-0.006471370112206925,-0.02916325839559787,0.010000000000000002,0.028870000000000003,0.0007300000000000002,1.9061000000000001,0.10360000000000001,-9.9913,5.618484400363047,12.568212494548115,19.84000015258789,16.619998931884766,17.520000457763672,16.549999237060547,16.110263048702777,13.495592369080581,14.226401906108324,13.43875197148613,14.317752323844452,0.13920355261778544,3.700000047683716,43.17499923706055,0.0,0.0,0.0,0.0,0.0,snow covered,0.237885773181915,-8.54643058776855,100.0,486.590789794922
arenacam6_1769615820595760820.png,1769615820595760820,1769615820.5957608,42.30098028683999,-83.69773034639668,238.31092834472656,-0.015063053780431213,-0.9994651360586835,-0.005204372294258595,-0.028556272919059707,0.07356000000000001,0.032100000000000004,-0.025010000000000004,2.2938,-0.43520000000000003,-9.4099,5.744002201774995,12.848988285238558,16.920000076293945,17.079999923706055,17.059999465942383,16.969999313354492,13.739196064351386,13.869117415648613,13.852876859540292,13.779795905837517,13.810246561344453,0.07481198167253582,2.5,39.85000228881836,0.0,0.0,0.0,0.0,0.0,snow covered,0.237885773181915,-8.54643058776855,100.0,486.590789794922
arenacam6_1769615820616353099.png,1769615820616353099,1769615820.616353,42.30098028683999,-83.69773034639668,238.31092834472656,-0.014825946627721853,-0.9994842641734367,-0.004757847982878635,-0.02808486885936105,0.037340000000000005,0.047560000000000005,-0.021680000000000005,2.2334,-0.47340000000000004,-9.3442,5.799850036443954,12.97391654052294,17.18000030517578,17.139999389648438,17.06999969482422,17.139999389648438,13.950318647405549,13.917837535188903,13.860997137594453,13.917837535188903,13.911747713844452,0.07228589534950959,2.5,37.875,0.0,0.0,0.0,0.0,0.0,snow covered,0.237885773181915,-8.54643058776855,100.0,486.590789794922
arenacam6_1769615820637319170.png,1769615820637319170,1769615820.637319,42.30098031838702,-83.69773175120697,238.3050537109375,-0.014593910860845827,-0.9994994992643467,-0.00450937599816628,-0.02770260392477634,0.01845,0.030730000000000004,-0.021390000000000003,1.4386,-0.5942000000000001,-9.2674,5.847848415812211,13.081286035266968,17.600000381469727,17.34000015258789,17.1299991607666,17.279998779296875,14.291362581756935,14.080239998702774,13.909717257134744,14.031518330377809,14.078209541993065,0.07620990046685044,1.5,35.97500228881836,0.0,0.0,0.0,0.0,0.0,snow covered,0.237885773181915,-8.54643058776855,100.0,486.590789794922
arenacam6_1769615820677519074.png,1769615820677519074,1769615820.677519,42.300980377402745,-83.69773605228966,238.2872772216797,-0.013919451049877019,-0.9995326886365927,-0.006215718069868877,-0.02649562375657231,-0.12892,0.06491000000000001,-0.025860000000000005,3.45,-2.132,-10.0137,6.003382367858299,13.429206153956944,17.709999084472656,17.559999465942383,17.6299991607666,17.65999984741211,14.380682542783356,14.258881469540292,14.315721867134743,14.340082701297225,14.323842145188904,0.06661868028352169,1.3000000715255737,33.025001525878906,0.0,0.0,0.0,0.0,0.0,snow covered,0.237885773181915,-8.54643058776855,100.0,486.590789794922
arenacam6_1769615820698054499.png,1769615820698054499,1769615820.6980543,42.300980389351864,-83.6977375133324,238.28182983398438,-0.013829641927811942,-0.9995338663856254,-0.0074083601100884255,-0.026189829186734844,-0.10081000000000001,0.023600000000000003,-0.0024100000000000002,2.8663000000000003,0.3612,-10.3061,6.0778912686807205,13.595878094562652,17.85999870300293,17.779998779296875,17.760000228881836,17.799999237060547,14.50248361602642,14.437522940377809,14.421283933054161,14.45376349648613,14.45376349648613,0.06309893307049949,1.5,32.625,0.0,0.0,0.0,0.0,0.0,snow covered,0.237885773181915,-8.54643058776855,100.0,486.590789794922
arenacam6_1769615820718688960.png,1769615820718688960,1769615820.718689,42.300980391959484,-83.69773900260114,238.2764129638672,-0.01362884327492081,-0.9995349598623328,-0.008154664670854076,-0.026031136895996534,-0.07751000000000001,0.02806,-0.01938,1.4467,-1.3727,-12.544500000000001,6.121606351266261,13.693666111401551,18.010000228881836,17.829999923706055,17.85999870300293,17.989999771118164,14.624286238054161,14.478124330648614,14.50248361602642,14.60804568194584,14.553234966668757,0.06277127310352017,1.7000000476837158,32.5,0.0,0.0,0.0,0.0,0.0,snow covered,0.237885773181915,-8.54643058776855,100.0,486.590789794922
arenacam6_1769615820740543064.png,1769615820740543064,1769615820.740543,42.30098039390485,-83.69774050186774,238.2703857421875,-0.013562248758104689,-0.9995377625559183,-0.00890075139425314,-0.025711928320331392,-0.06934000000000001,0.012610000000000001,0.00026000000000000003,4.1199,-0.6169,-10.417200000000001,6.20301288401787,13.875767640774935,18.270000457763672,17.93000030517578,18.309999465942383,18.06999969482422,14.835408821108322,14.559325562405549,14.86788838454029,14.673006357594453,14.733907281412153,0.0618444804535003,2.0,32.70000076293945,0.0,0.0,0.0,0.0,0.0,snow covered,0.237885773181915,-8.54643058776855,100.0,486.590789794922
arenacam6_1769615820761349474.png,1769615820761349474,1769615820.7613494,42.300980396999904,-83.69774200883005,238.26644897460938,-0.013510806551774057,-0.9995316115300406,-0.009298914123084676,-0.02583690876656843,-0.028790000000000007,-0.007300000000000002,-0.009380000000000001,2.1002,0.6204000000000001,-11.350100000000001,6.263011550292329,14.009981057310922,18.34000015258789,18.270000457763672,18.25,18.619998931884766,14.892249218702775,14.835408821108322,14.819168265,15.119610809080582,14.91660927847292,0.06471302262674271,2.200000047683716,32.5,0.0,0.0,0.0,0.0,0.0,snow covered,0.237885773181915,-8.54643058776855,100.0,486.590789794922
arenacam6_1769615820781842646.png,1769615820781842646,1769615820.7818427,42.30098039521543,-83.69774354892178,238.26255798339844,-0.013471495299671066,-0.9995310932797878,-0.009386717560277685,-0.025845733008496786,-0.017530000000000004,-0.0007000000000000001,-0.00693,2.5593,-0.4434,-12.038400000000001,6.293853207721362,14.078971994480225,18.399999618530273,18.239999771118164,18.469999313354492,18.59000015258789,14.940969338243065,14.811047986945841,14.997809735837517,15.095251523702775,14.961269646182298,0.06266776097345637,2.299999952316284,32.32500076293945,0.0,0.0,0.0,0.0,0.0,snow covered,0.237885773181915,-8.54643058776855,100.0,486.590789794922
arenacam6_1769615820801468632.png,1769615820801468632,1769615820.8014686,42.30098039547897,-83.69774509302255,238.25840759277344,-0.013504793481228183,-0.9995234730678741,-0.00951194605032125,-0.0260762386417156,-0.01144,-0.027020000000000006,0.005650000000000001,3.3960000000000004,0.06810000000000001,-11.1971,6.366473404703662,14.24141901791781,18.549999237060547,18.3799991607666,18.90999984741211,18.690000534057617,15.06277041148613,14.924728782134743,15.355094226297227,15.17645275545971,15.129761543844452,0.06237738843362282,2.299999952316284,32.47500228881836,0.0,0.0,0.0,0.0,0.0,snow covered,0.237885773181915,-8.54643058776855,100.0,486.590789794922
arenacam6_1769615820822041713.png,1769615820822041713,1769615820.8220415,42.30098039547897,-83.69774509302255,238.25840759277344,-0.01345886166683935,-0.9995128133298751,-0.009642065003066405,-0.026457997174915485,-0.014000000000000002,-0.03393000000000001,-0.009330000000000001,2.5696000000000003,0.5242,-10.915000000000001,6.430536336763067,14.384723953158776,18.53999900817871,18.779998779296875,18.939998626708984,19.1299991607666,15.05465013343197,15.249532160377807,15.379453511675035,15.533735697134745,15.30434287565489,0.06393024471590028,2.299999952316284,32.400001525878906,0.0,0.0,0.0,0.0,0.0,snow covered,0.237885773181915,-8.54643058776855,100.0,486.590789794922
arenacam6_1769615820843938100.png,1769615820843938100,1769615820.843938,42.300980400556675,-83.69774823750821,238.2529754638672,-0.013436021312965729,-0.9994938267589866,-0.009561585220136948,-0.02720550845017888,0.0034000000000000002,-0.05283000000000001,-0.007660000000000001,2.6509,-0.318,-9.8683,6.519185999337512,14.583027929358055,18.90999984741211,18.959999084472656,19.09000015258789,19.619998931884766,15.355094226297227,15.395694067783356,15.501256133702775,15.931620029080582,15.545916114215986,0.06602800114779164,1.899999976158142,32.20000076293945,0.0,0.0,0.0,0.0,0.0,snow covered,0.237885773181915,-8.54643058776855,100.0,486.590789794922
arenacam6_1769615820864600266.png,1769615820864600266,1769615820.8646004,42.30098040642801,-83.69774982307993,238.2496337890625,-0.013468391317519035,-0.999483370855514,-0.00961116676755479,-0.027553934237848104,-0.0014700000000000002,-0.027630000000000005,0.00464,1.7988000000000002,2.0846,-7.9138,6.56758341176646,14.691290037116866,19.06999969482422,19.10999870300293,19.279998779296875,19.279998779296875,15.485015577594451,15.517495141026421,15.65553677037781,15.65553677037781,15.578396064844123,0.06038312670201349,1.7000000476837158,32.42499923706055,0.0,0.0,0.0,0.0,0.0,snow covered,0.237885773181915,-8.54643058776855,100.0,486.590789794922
arenacam6_1769615820885503788.png,1769615820885503788,1769615820.8855038,42.30098041729443,-83.69775142116869,238.24652099609375,-0.013363158433777889,-0.9994774496386885,-0.00934228874329954,-0.02791012901176447,0.03517000000000001,-0.038270000000000005,-0.019680000000000003,1.2914,1.2737,-7.7584,6.616629979719054,14.801004266832742,19.189998626708984,19.31999969482422,19.209999084472656,19.25,15.582455816675035,15.688017882594451,15.598696372783357,15.631177485000002,15.625086889263212,0.055677480228631504,1.399999976158142,32.75,0.0,0.0,0.0,0.0,0.0,snow covered,0.237885773181915,-8.54643058776855,100.0,486.590789794922
arenacam6_1769615820906155046.png,1769615820906155046,1769615820.906155,42.3009804277051,-83.69775303822425,238.24163818359375,-0.013191791197789182,-0.9994794383782091,-0.009197399348181519,-0.027968495658577456,0.0011400000000000002,0.00384,-0.01207,1.2357,-0.5413,-8.4452,6.650301127629938,14.876324604440516,19.25,19.34000015258789,19.25,19.34000015258789,15.631177485000002,15.704258438702775,15.631177485000002,15.704258438702775,15.667717961851388,0.053198177537390146,1.100000023841858,32.75,0.0,0.0,0.0,0.0,0.0,snow covered,0.237885773181915,-8.54643058776855,100.0,486.590789794922
arenacam6_1769615820948460092.png,1769615820948460092,1769615820.94846,42.30098046911244,-83.69775628508674,238.22958374023438,-0.012907478245555937,-0.9995057495338047,-0.008409934646837028,-0.027403040952490045,0.07950000000000002,0.03635000000000001,-0.035690000000000006,1.6322,-0.36160000000000003,-6.6166,6.746875222800679,15.092355060891753,19.510000228881836,19.5,19.529998779296875,19.399999618530273,15.842300068054161,15.83417979,15.85853907537781,15.752978558243067,15.821999372918759,0.04834529197618105,0.800000011920929,33.775001525878906,0.0,0.0,0.0,0.0,0.0,snow covered,0.237885773181915,-8.54643058776855,100.0,486.590789794922
arenacam6_1769615820967495495.png,1769615820967495495,1769615820.9674954,42.300980519128835,-83.69775958347968,238.21302795410156,-0.012714156493987605,-0.9995301584814915,-0.007977792655493596,-0.026723909425019163,0.025050000000000003,0.06308000000000001,-0.00936,2.3798,1.042,-10.9199,6.810668804107924,15.23505747466118,19.559999465942383,19.739999771118164,19.68000030517578,19.559999465942383,15.882899909540292,16.029061816945838,15.980341697405548,15.882899909540292,15.943800833357992,0.04652055693754927,0.800000011920929,34.22500228881836,0.0,0.0,0.0,0.0,0.0,snow covered,0.237885773181915,-8.54643058776855,100.0,486.590789794922
arenacam6_1769615820987854572.png,1769615820987854572,1769615820.9878545,42.300980519128835,-83.69775958347968,238.21302795410156,-0.012599459489406328,-0.9995494981000137,-0.007211644950928927,-0.026268738943606356,0.10073000000000001,0.04997000000000001,-0.017640000000000003,2.6597,2.4364,-9.7119,6.869335029218563,15.366290300260173,19.779998779296875,19.809999465942383,20.19999885559082,19.489999771118164,16.061541380377808,16.08590221454029,16.402585314729194,15.82605951194584,16.094022105398285,0.04735897805638812,0.9000000357627869,35.29999923706055,0.0,0.0,0.0,0.0,0.0,snow covered,0.237885773181915,-8.54643058776855,100.0,486.590789794922
arenacam6_1769615821008261971.png,1769615821008261971,1769615821.008262,42.300980542089405,-83.69776124471419,238.2061004638672,-0.012346675059072054,-0.999567792628344,-0.006402318217425896,-0.025899765955083108,0.05626000000000001,0.04397000000000001,-0.022140000000000003,1.4081000000000001,-2.1956,-10.838700000000001,6.912472110901669,15.462785363760382,19.809999465942383,19.939998626708984,20.69999885559082,19.439998626708984,16.08590221454029,16.191462731675035,16.808589924729194,15.785458121675035,16.21785324815489,0.04883129828369306,0.800000011920929,36.17499923706055,0.0,0.0,0.0,0.0,0.0,snow covered,0.237885773181915,-8.54643058776855,100.0,486.590789794922
arenacam6_1769615821029261606.png,1769615821029261606,1769615821.0292616,42.30098056693421,-83.6977629290566,238.19871520996094,-0.01233404183629988,-0.9995751117600806,-0.005929702143804234,-0.0257353063764249,0.06417,0.0075200000000000015,-0.00319,2.4895,2.958,-12.0615,6.9681489945514645,15.587331211871954,19.85999870300293,19.939998626708984,20.520000457763672,20.189998626708984,16.12650205602642,16.191462731675035,16.662429566108322,16.394465036675037,16.343714847621204,0.04852553817379317,0.6000000238418579,36.70000076293945,0.0,0.0,0.0,0.0,0.0,snow covered,0.237885773181915,-8.54643058776855,100.0,486.590789794922
arenacam6_1769615821049991724.png,1769615821049991724,1769615821.0499916,42.30098060323217,-83.69776461792014,238.19154357910156,-0.012234456037476416,-0.9995792788963729,-0.005350137727392968,-0.0257479962865515,0.11524000000000002,-0.0030800000000000003,-0.024030000000000003,2.3778,2.1268000000000002,-13.2665,7.019233975461899,15.70160524906974,20.1299991607666,19.969999313354492,20.25,19.939998626708984,16.34574491713474,16.215823565837518,16.443186705,16.191462731675035,16.299054479911824,0.03805020068744123,0.10000000149011612,36.900001525878906,0.0,0.0,0.0,0.0,0.0,snow covered,0.237885773181915,-8.54643058776855,100.0,486.590789794922
arenacam6_1769615821072609131.png,1769615821072609131,1769615821.072609,42.300980626915646,-83.69776631568813,238.1865997314453,-0.011991230448199608,-0.9995824594741116,-0.0044802619151599506,-0.025904523875106288,0.01938,-0.00619,0.0011,1.0324,-0.1051,-10.4707,7.0515072417975135,15.773798609466532,20.40999984741211,20.260000228881836,20.270000457763672,20.439998626708984,16.573108056297226,16.451306983054163,16.459427261108324,16.597467341675035,16.52032741053369,0.047327141644824426,-0.30000001192092896,36.775001525878906,0.0,0.0,0.0,0.0,0.0,snow covered,0.237885773181915,-8.54643058776855,100.0,486.590789794922
arenacam6_1769615821092611461.png,1769615821092611461,1769615821.0926116,42.300980650953555,-83.6977680350484,238.1815185546875,-0.011967848679658444,-0.9995823854490313,-0.004333528177147564,-0.025943126865182544,0.029180000000000005,-0.008050000000000002,-0.0055000000000000005,2.0644,0.46080000000000004,-9.864600000000001,7.07718424481613,15.831236524598994,20.279998779296875,20.239999771118164,20.420000076293945,20.420000076293945,16.467545990377808,16.43506642694584,16.581228334351387,16.581228334351387,16.516267271506607,0.04327083016182555,-0.9000000357627869,36.775001525878906,0.0,0.0,0.0,0.0,0.0,snow covered,0.237885773181915,-8.54643058776855,100.0,486.590789794922
arenacam6_1769615821111753752.png,1769615821111753752,1769615821.1117537,42.30098066825373,-83.6977697588435,238.17662048339844,-0.011735040328371193,-0.9995791668204129,-0.004268216510351813,-0.02618320864449941,-0.011340000000000001,-0.03542,-0.016900000000000002,1.8856000000000002,-2.7760000000000002,-9.502,7.130756092432369,15.951073533405665,20.489999771118164,20.399999618530273,20.619998931884766,20.489999771118164,16.63806873194584,16.564987778243065,16.743629249080584,16.63806873194584,16.64618862280383,0.04357795028293327,-1.600000023841858,36.875,0.0,0.0,0.0,0.0,0.0,snow covered,0.237885773181915,-8.54643058776855,100.0,486.590789794922
arenacam6_1769615821132694282.png,1769615821132694282,1769615821.1326942,42.300980680487164,-83.69777148747012,238.17279052734375,-0.011726737045828772,-0.9995683948278642,-0.005038823282522425,-0.02645974224048386,-0.10075,-0.019360000000000002,0.007160000000000001,0.0478,-2.427,-11.6677,7.149875345489596,15.993842155339497,20.670000076293945,20.600000381469727,20.869998931884766,20.829999923706055,16.78423063935139,16.727390241756936,16.946631554080582,16.914151990648616,16.843101106459383,0.05309912045345297,-2.0,36.47500228881836,0.0,0.0,0.0,0.0,0.0,snow covered,0.237885773181915,-8.54643058776855,100.0,486.590789794922
arenacam6_1769615821153116638.png,1769615821153116638,1769615821.1531167,42.300980685446206,-83.69777498717553,238.1638946533203,-0.011822292984865701,-0.9995530042685654,-0.006083340179121962,-0.026777192133050978,-0.028810000000000006,-0.03685000000000001,-0.00727,1.1317000000000002,-1.087,-10.1134,7.226463816241877,16.165165969104105,20.829999923706055,20.709999084472656,20.920000076293945,20.939998626708984,16.914151990648616,16.81671020278336,16.987232944351387,17.003471951675035,16.9303917723646,0.047337949064243684,-2.299999952316284,36.67499923706055,0.0,0.0,0.0,0.0,0.0,snow covered,0.237885773181915,-8.54643058776855,100.0,486.590789794922
arenacam6_1769615821175901361.png,1769615821175901361,1769615821.1759014,42.300980688355395,-83.69777674828164,238.16024780273438,-0.011783103568421716,-0.9995435218803019,-0.006962049075880199,-0.02693392303552408,-0.11990000000000002,-0.029220000000000003,0.01017,1.2954,-3.1919,-9.6019,7.2659686479974255,16.25353590745136,20.899999618530273,20.850000381469727,21.09000015258789,21.049999237060547,16.970992388243065,16.930392546756934,17.125274573702775,17.092793461486128,17.029863242547226,0.047763596765425076,-2.4000000953674316,36.525001525878906,0.0,0.0,0.0,0.0,0.0,snow covered,0.237885773181915,-8.54643058776855,100.0,486.590789794922
arenacam6_1769615821216519893.png,1769615821216519893,1769615821.2165198,42.300980687368124,-83.69778030548156,238.14993286132812,-0.011968302611442772,-0.9995309313942451,-0.007808256051258084,-0.027087045911135015,-0.004620000000000001,-0.00013000000000000002,-0.011230000000000002,1.2155,-1.8641,-10.5357,7.342042323237349,16.423708154542556,21.170000076293945,21.209999084472656,21.25,21.219999313354492,17.190235249351385,17.222714812783355,17.255195925000002,17.230835090837516,17.224745269493063,0.04877321902051406,-2.299999952316284,36.35000228881836,0.0,0.0,0.0,0.0,0.0,snow covered,0.237885773181915,-8.54643058776855,100.0,486.590789794922
arenacam6_1769615821237488611.png,1769615821237488611,1769615821.2374887,42.300980687368124,-83.69778030548156,238.14993286132812,-0.012112562687111417,-0.9995304044562414,-0.008157388511765269,-0.0269390683833234,-0.042850000000000006,0.027700000000000002,0.01923,1.8436000000000001,-0.9464,-9.7994,7.375214224279577,16.49791170685996,21.25,21.3799991607666,21.31999969482422,21.44999885559082,17.255195925000002,17.360756442134743,17.31203632259445,17.417596839729196,17.336396382364597,0.05082368547020347,-1.899999976158142,36.375,0.0,0.0,0.0,0.0,0.0,snow covered,0.237885773181915,-8.54643058776855,100.0,486.590789794922
arenacam6_1769615821259032341.png,1769615821259032341,1769615821.2590322,42.30098068905566,-83.69778209497541,238.14590454101562,-0.01220736553722801,-0.9995340045783636,-0.008208275409676679,-0.02674655366545722,0.010220000000000002,0.040630000000000006,0.00079,1.9066,1.3558000000000001,-8.315100000000001,7.418545371083331,16.594840882391146,21.56999969482422,21.420000076293945,21.389999389648438,21.43000030517578,17.515038627594453,17.393237554351387,17.368876720188904,17.401357832405548,17.419627683635074,0.04970139859063743,-1.7000000476837158,36.29999923706055,0.0,0.0,0.0,0.0,0.0,snow covered,0.237885773181915,-8.54643058776855,100.0,486.590789794922
arenacam6_1769615821277509810.png,1769615821277509810,1769615821.27751,42.30098069608476,-83.69778570498806,238.1342010498047,-0.012249124096451014,-0.9995401451523607,-0.008464186391481648,-0.026416183229187633,-0.036300000000000006,0.03857,0.008280000000000001,1.7177,-1.1308,-10.4329,7.471918889460639,16.714234240590084,21.600000381469727,21.729999542236328,21.559999465942383,21.579999923706055,17.539399461756936,17.644959978891677,17.506918349540292,17.523158905648614,17.55360917395938,0.050219167763659533,-1.600000023841858,36.125,0.0,0.0,0.0,0.0,0.0,snow covered,0.237885773181915,-8.54643058776855,100.0,486.590789794922
arenacam6_1769615821298248434.png,1769615821298248434,1769615821.2982485,42.30098070104027,-83.69778752052991,238.12921142578125,-0.01234778872011294,-0.9995442160376239,-0.008819397666146181,-0.026098094264943847,-0.022070000000000003,0.04479000000000001,0.008270000000000001,1.8713000000000002,2.8748,-8.705,7.514177741774441,16.80876475768492,21.760000228881836,21.549999237060547,21.65999984741211,21.68000030517578,17.66932081305416,17.49879807148613,17.588119581297228,17.60436013740555,17.590149650810766,0.04648675285723178,-1.5,36.35000228881836,0.0,0.0,0.0,0.0,0.0,snow covered,0.237885773181915,-8.54643058776855,100.0,486.590789794922
arenacam6_1769615821318982110.png,1769615821318982110,1769615821.3189821,42.3009807077157,-83.69778935529068,238.12269592285156,-0.0123356566955804,-0.9995490355394416,-0.00894901672294337,-0.025874161353619647,-0.021170000000000005,0.022700000000000005,-0.00024,1.0626,-0.4979,-9.3675,7.5590530994643315,16.909148240315744,21.85999870300293,21.8799991607666,21.760000228881836,21.850000381469727,17.75052049602642,17.766761052134743,17.66932081305416,17.742401766756934,17.732251031993066,0.048677957043089456,-1.5,36.375,0.0,0.0,0.0,0.0,0.0,snow covered,0.237885773181915,-8.54643058776855,100.0,486.590789794922
arenacam6_1769615821339309453.png,1769615821339309453,1769615821.3393095,42.30098071711257,-83.69779118859198,238.116455078125,-0.012370798168586494,-0.9995507173371501,-0.00915845116389409,-0.025718662401823623,-0.0413,0.03162,0.008270000000000001,0.9022,-0.1622,-10.013,7.573198776636931,16.94079127141022,22.100000381469727,21.90999984741211,21.85999870300293,21.889999389648438,17.945404071756936,17.791121886297226,17.75052049602642,17.774881330188904,17.815481946067372,0.051632220753071105,-1.3000000715255737,36.32500076293945,0.0,0.0,0.0,0.0,0.0,snow covered,0.237885773181915,-8.54643058776855,100.0,486.590789794922
arenacam6_1769615821360107292.png,1769615821360107292,1769615821.3601072,42.30098072494047,-83.69779303146615,238.1109161376953,-0.012475274513308043,-0.9995557641157371,-0.009480315633633095,-0.025352821624216215,-0.015480000000000002,0.03855,0.009400000000000002,0.9796,3.1443000000000003,-8.8694,7.605017887324722,17.011968712872164,22.309999465942383,22.19999885559082,21.93000030517578,21.979999542236328,18.11592526454029,18.026603754729194,17.807362442405548,17.84796228389168,17.949463436391678,0.05510795013455175,-1.399999976158142,36.57500076293945,0.0,0.0,0.0,0.0,0.0,snow covered,0.237885773181915,-8.54643058776855,100.0,486.590789794922
arenacam6_1769615821382169040.png,1769615821382169040,1769615821.382169,42.30098073739079,-83.69779488889753,238.10379028320312,-0.012456698401618505,-0.9995696302270332,-0.009445320824625437,-0.024822790077728713,-0.0031800000000000005,0.04989000000000001,-0.00538,1.4365,-1.0250000000000001,-9.146700000000001,7.641384357953814,17.093318325681206,22.369998931884766,22.260000228881836,22.170000076293945,22.1299991607666,18.164645384080583,18.075325423054164,18.00224446935139,17.96976335713474,18.05299465840522,0.056143360489705654,-1.2000000476837158,36.45000076293945,0.0,0.0,0.0,0.0,0.0,snow covered,0.237885773181915,-8.54643058776855,100.0,486.590789794922
arenacam6_1769615821402879258.png,1769615821402879258,1769615821.4028792,42.30098073739079,-83.69779488889753,238.10379028320312,-0.012509170628252131,-0.9995842757908076,-0.009543719278754062,-0.024160166892820124,-0.00821,0.07322000000000001,0.009370000000000002,0.8404,-0.0014,-9.7128,7.668586375721533,17.15416760730653,22.44999885559082,22.299999237060547,22.329999923706055,22.329999923706055,18.229606059729196,18.107804986486133,18.132165820648613,18.132165820648613,18.15043567187814,0.05807731901530829,-1.2000000476837158,35.97500228881836,0.0,0.0,0.0,0.0,0.0,snow covered,0.237885773181915,-8.54643058776855,100.0,486.590789794922
arenacam6_1769615821423541052.png,1769615821423541052,1769615821.423541,42.30098076518921,-83.69779861203006,238.0908966064453,-0.012559712290379832,-0.9996197017860211,-0.009164158267135758,-0.02277550508032634,0.03848000000000001,0.10084000000000001,0.0013900000000000002,2.0679000000000003,-0.3119,-10.3949,7.717729566543697,17.264097976584257,22.6299991607666,22.739999771118164,22.43000030517578,22.369998931884766,18.375767967134742,18.46508947694584,18.213367052405548,18.164645384080583,18.30471747014168,0.06027650532155466,-1.2000000476837158,36.125,0.0,0.0,0.0,0.0,0.0,snow covered,0.237885773181915,-8.54643058776855,100.0,486.590789794922
arenacam6_1769615821444030069.png,1769615821444030069,1769615821.44403,42.30098078301884,-83.69780049095796,238.0839080810547,-0.012577758023938623,-0.9996453311489102,-0.008743636565333817,-0.021784414954053453,0.04996000000000001,0.12025000000000001,0.00101,-0.061500000000000006,0.7571,-9.6507,7.732241181983161,17.296559589625414,22.899999618530273,22.809999465942383,22.559999465942383,22.479999542236328,18.595010828243066,18.52192987454029,18.318927569540293,18.25396689389168,18.42245879155383,0.06509382378006186,-1.3000000715255737,36.07500076293945,0.0,0.0,0.0,0.0,0.0,snow covered,0.237885773181915,-8.54643058776855,100.0,486.590789794922
arenacam6_1769615821464695448.png,1769615821464695448,1769615821.4646955,42.30098080123686,-83.69780237586184,238.07699584960938,-0.012584949405865242,-0.9996781115517448,-0.008179823117138472,-0.020454408487205308,0.06300000000000001,0.13133000000000003,0.0011300000000000001,1.356,1.5730000000000002,-9.6731,7.768366123894013,17.377368917183475,22.760000228881836,23.18000030517578,22.579999923706055,22.670000076293945,18.481330033054164,18.822373967405547,18.33516812564861,18.40824907935139,18.51178030136493,0.06528096339484978,-1.5,36.025001525878906,0.0,0.0,0.0,0.0,0.0,snow covered,0.237885773181915,-8.54643058776855,100.0,486.590789794922
arenacam6_1769615821485544273.png,1769615821485544273,1769615821.4855442,42.3009808206003,-83.69780426468675,238.07142639160156,-0.012554478281031844,-0.9997056879639254,-0.007556899524909105,-0.01933431657017887,0.06435,0.08595000000000001,-0.004760000000000001,1.7817,0.6855,-11.5892,7.818749218606033,17.49007287706858,23.139999389648438,23.369998931884766,22.75,22.78999900817871,18.789892855188906,18.976654604080583,18.473209755000003,18.50568931843197,18.686361633175366,0.06839815731558511,-1.5,35.42499923706055,0.0,0.0,0.0,0.0,0.0,snow covered,0.237885773181915,-8.54643058776855,100.0,486.590789794922
arenacam6_1769615821506062176.png,1769615821506062176,1769615821.506062,42.30098084034303,-83.69780616952625,238.06561279296875,-0.012509721046734035,-0.9997341491020755,-0.0069894757845528985,-0.018063366982359892,0.05015,0.13178,-0.004560000000000001,0.7033,-1.4542000000000002,-11.2385,7.838257982445977,17.533712811252705,23.28999900817871,23.31999969482422,22.81999969482422,22.920000076293945,18.911693928431973,18.936054762594452,18.530050152594452,18.611251384351387,18.747262556993068,0.06921236584652715,-1.7000000476837158,34.025001525878906,0.0,0.0,0.0,0.0,0.0,snow covered,0.237885773181915,-8.54643058776855,100.0,486.590789794922
arenacam6_1769615821526949693.png,1769615821526949693,1769615821.5269496,42.30098086344387,-83.69780807830695,238.05941772460938,-0.012512721826063555,-0.9997596976827794,-0.0067879608960006955,-0.016670400973438516,0.018420000000000002,0.13751000000000002,0.00013000000000000002,1.6676,-0.0221,-10.018600000000001,7.868569660238428,17.60151821577375,23.149999618530273,23.149999618530273,22.920000076293945,22.959999084472656,18.798013133243067,18.798013133243067,18.611251384351387,18.643730947783357,18.71275214965522,0.0631328457158671,-1.600000023841858,32.97500228881836,0.0,0.0,0.0,0.0,0.0,snow covered,0.237885773181915,-8.54643058776855,100.0,486.590789794922
arenacam6_1769615821631128032.png,1769615821631128032,1769615821.631128,42.300980935244816,-83.69781776248843,238.03858947753906,-0.012447324788380565,-0.9998337005307658,-0.0077844832216498695,-0.010818373701232014,0.00035000000000000005,0.05964000000000001,-0.0025200000000000005,1.37,0.7852,-10.559700000000001,8.104581773868262,18.12946315323687,24.100000381469727,23.84000015258789,23.309999465942383,23.239999771118164,19.569422511756937,19.358299928702774,18.92793448454029,18.871094086945842,19.181687752986463,0.05803947920883287,-1.8000000715255737,31.92500114440918,0.0,0.0,0.0,0.0,0.0,snow covered,0.237885773181915,-8.54643058776855,100.0,486.590789794922
arenacam6_1769615821650953180.png,1769615821650953180,1769615821.6509533,42.30098094763723,-83.69781972942516,238.03517150878906,-0.012455260161119863,-0.9998437250278005,-0.007530386376159018,-0.0100342063899642,0.028860000000000004,0.08135000000000002,0.0018400000000000003,2.6201000000000003,-1.0027000000000001,-9.924000000000001,8.144176023753985,18.21803311457624,24.420000076293945,24.029998779296875,23.369998931884766,23.420000076293945,19.82926521435139,19.51258056537781,18.976654604080583,19.017255994351387,19.33393909454029,0.06125282421795661,-1.8000000715255737,31.649999618530273,0.0,0.0,0.0,0.0,0.0,snow covered,0.237885773181915,-8.54643058776855,100.0,486.590789794922
arenacam6_1769615821672345838.png,1769615821672345838,1769615821.6723459,42.30098095765234,-83.69782170609875,238.03280639648438,-0.012512289572218449,-0.9998480903150415,-0.007400152352978536,-0.00961647795080502,0.014960000000000003,0.042730000000000004,0.0018200000000000002,2.0138000000000003,0.0848,-10.264800000000001,8.194186069819894,18.329902587022914,23.920000076293945,23.84000015258789,23.389999389648438,23.459999084472656,19.423260604351388,19.358299928702774,18.992895160188905,19.049735557783357,19.20604781275661,0.047798684230541504,-1.8000000715255737,31.575000762939453,0.0,0.0,0.0,0.0,0.0,snow covered,0.237885773181915,-8.54643058776855,100.0,486.590789794922
arenacam6_1769615821691202029.png,1769615821691202029,1769615821.6912022,42.3009809723675,-83.6978237006889,238.0299835205078,-0.012554023197622,-0.9998498203913351,-0.0072800997614839245,-0.009472766883624093,0.024490000000000005,0.028340000000000004,0.008290000000000002,1.0111,0.8372,-9.826600000000001,8.206159029521924,18.356685379498774,23.799999237060547,23.779998779296875,23.28999900817871,23.51999855041504,19.32581881648613,19.309578260377805,18.911693928431973,19.098455677323646,19.16138667065489,0.04383696045991099,-1.7000000476837158,31.700000762939453,0.0,0.0,0.0,0.0,0.0,snow covered,0.237885773181915,-8.54643058776855,100.0,486.590789794922
arenacam6_1769615821711781374.png,1769615821711781374,1769615821.7117813,42.3009809876189,-83.69782569648586,238.02674865722656,-0.012589207865602192,-0.9998601568955758,-0.006686114197843627,-0.008744962836097799,0.033800000000000004,0.024810000000000002,-0.0054,2.2595,0.2974,-9.1,8.266526982464216,18.491724868153504,23.90999984741211,23.709999084472656,23.559999465942383,23.489999771118164,19.415140326297227,19.252737862783356,19.130936789540293,19.07409639194584,19.218227842641678,0.03928800475175569,-1.600000023841858,31.80000114440918,0.0,0.0,0.0,0.0,0.0,snow covered,0.237885773181915,-8.54643058776855,100.0,486.590789794922
arenacam6_1769615821732527425.png,1769615821732527425,1769615821.7325273,42.30098100262156,-83.69782769865137,238.02394104003906,-0.012572147569322623,-0.9998627838990621,-0.006532323423509475,-0.008583893627201194,0.031120000000000002,0.031900000000000005,-0.0034400000000000008,1.8148000000000002,0.445,-9.6399,8.286347450325074,18.536062065530174,23.68000030517578,23.649999618530273,23.489999771118164,23.670000076293945,19.22837857740555,19.204017743243067,19.07409639194584,19.220258299351386,19.181687752986463,0.034830790120027676,-1.3000000715255737,31.825000762939453,0.0,0.0,0.0,0.0,0.0,snow covered,0.237885773181915,-8.54643058776855,100.0,486.590789794922
arenacam6_1769615821753300023.png,1769615821753300023,1769615821.7533,42.300981040581625,-83.69783174670788,238.0182342529297,-0.012499319851277668,-0.9998667484993398,-0.0063093701402224586,-0.008393098179274923,0.01101,0.014590000000000002,-0.007060000000000001,2.0180000000000002,1.3309,-11.636600000000001,8.339956496061047,18.6559822842988,23.75,23.760000228881836,23.90999984741211,23.6299991607666,19.285218975,19.29333925305416,19.415140326297227,19.187777187134742,19.295368935371535,0.03427247310428958,-1.100000023841858,31.950000762939453,0.0,0.0,0.0,0.0,0.0,snow covered,0.237885773181915,-8.54643058776855,100.0,486.590789794922
arenacam6_1769615821775032314.png,1769615821775032314,1769615821.7750323,42.30098105537477,-83.69783377835151,238.01669311523438,-0.012424180286700892,-0.9998679074486445,-0.005993460235242957,-0.008595686876635134,0.03474000000000001,-0.022310000000000003,-0.013470000000000001,1.9925000000000002,-0.1776,-11.3476,8.389681902927938,18.767215035935624,23.760000228881836,23.760000228881836,23.489999771118164,23.619998931884766,19.29333925305416,19.29333925305416,19.07409639194584,19.17965690908058,19.210107951783684,0.023599288173551808,-0.800000011920929,32.07500076293945,0.0,0.0,0.0,0.0,0.0,snow covered,0.237885773181915,-8.54643058776855,100.0,486.590789794922
arenacam6_1769615821795892581.png,1769615821795892581,1769615821.7958925,42.300981078583774,-83.69783582808749,238.01589965820312,-0.01233407779500767,-0.999866914865155,-0.005903961206470503,-0.008897546013129684,0.0008800000000000001,-0.029390000000000003,-0.00859,0.7102,0.8661000000000001,-10.717500000000001,8.415850688797718,18.82575303979917,23.809999465942383,23.78999900817871,24.059999465942383,23.75,19.33393909454029,19.31769853843197,19.53694139954029,19.285218975,19.36844950187814,0.02882734416687948,-0.800000011920929,32.32500076293945,0.0,0.0,0.0,0.0,0.0,snow covered,0.237885773181915,-8.54643058776855,100.0,486.590789794922
arenacam6_1769615821816765453.png,1769615821816765453,1769615821.8167655,42.30098109591247,-83.6978378843908,238.01560974121094,-0.012215934765178016,-0.9998667534737882,-0.0055384916679283025,-0.009304372393883147,0.051140000000000005,-0.051620000000000006,-0.018650000000000003,2.2811,0.4839,-12.7308,8.458872592108657,18.92199045619154,23.760000228881836,23.84000015258789,23.850000381469727,23.90999984741211,19.29333925305416,19.358299928702774,19.366420206756935,19.415140326297227,19.358299928702774,0.02305832853691493,-0.800000011920929,32.42499923706055,0.0,0.0,0.0,0.0,0.0,snow covered,0.237885773181915,-8.54643058776855,100.0,486.590789794922
arenacam6_1769615821837832601.png,1769615821837832601,1769615821.8378327,42.30098111795843,-83.69783994203286,238.0162353515625,-0.01205721184847719,-0.999862624320814,-0.005396323587642138,-0.010011784080432495,-0.006830000000000001,-0.07743,-0.00801,1.5945,-1.0013,-11.8609,8.501073916966973,19.016392287820103,24.06999969482422,23.84000015258789,24.43000030517578,24.34000015258789,19.54506167759445,19.358299928702774,19.83738549240555,19.764304538702774,19.626262909351386,0.03207078463152557,-1.100000023841858,32.82500076293945,0.0,0.0,0.0,0.0,0.0,snow covered,0.237885773181915,-8.54643058776855,100.0,486.590789794922
arenacam6_1769615821858463266.png,1769615821858463266,1769615821.8584633,42.30098111795843,-83.69783994203286,238.0162353515625,-0.012041801177643419,-0.9998577992470057,-0.005085159792771346,-0.01065445724634523,0.049620000000000004,-0.05893000000000001,-0.014910000000000003,1.5989,0.8560000000000001,-10.6095,8.52398790103958,19.067649495351482,24.0,23.959999084472656,24.549999237060547,24.309999465942383,19.48822128,19.455740167783357,19.93482573148613,19.73994370454029,19.654682720952444,0.030786868918692634,-1.5,32.82500076293945,0.0,0.0,0.0,0.0,0.0,snow covered,0.237885773181915,-8.54643058776855,100.0,486.590789794922
arenacam6_1769615821879042087.png,1769615821879042087,1769615821.8790421,42.30098113719579,-83.69784202041217,238.01747131347656,-0.011786393899783143,-0.999850141227753,-0.00505220170276653,-0.011629757677438844,-0.027290000000000005,-0.11208000000000001,-0.01581,1.7925,-3.2129000000000003,-12.8476,8.56971268550042,19.16993309470331,24.100000381469727,24.10999870300293,24.399999618530273,24.639999389648438,19.569422511756937,19.57754124102642,19.813024658243066,20.007906685188903,19.741973774053832,0.029840515171572397,-2.1000001430511475,32.525001525878906,0.0,0.0,0.0,0.0,0.0,snow covered,0.237885773181915,-8.54643058776855,100.0,486.590789794922
arenacam6_1769615821899621361.png,1769615821899621361,1769615821.8996215,42.300981152605594,-83.69784409734044,238.0196075439453,-0.01192735751938434,-0.9998300884965912,-0.005555453423780533,-0.012910043251651957,-0.04277000000000001,-0.12604,0.012320000000000001,0.6877,1.2206000000000001,-14.6415,8.58824007105087,19.211377744536538,24.28999900817871,24.209999084472656,24.439998626708984,24.60999870300293,19.72370314843197,19.658742472783356,19.845504221675036,19.98354585102642,19.802873923479197,0.03078884746362727,-2.799999952316284,32.82500076293945,0.0,0.0,0.0,0.0,0.0,snow covered,0.237885773181915,-8.54643058776855,100.0,486.590789794922
arenacam6_1769615821939522194.png,1769615821939522194,1769615821.9395223,42.30098117865405,-83.69785038426834,238.03143310546875,-0.01208689154993664,-0.9997837312843886,-0.0069659788423479,-0.015423127130819761,-0.037540000000000004,-0.07266,0.006400000000000001,2.1198,0.44780000000000003,-5.3136,8.660300196944478,19.372571922552982,24.51999855041504,24.459999084472656,24.619998931884766,24.78999900817871,19.910464897323646,19.861744777783354,19.99166612908058,20.12970775843197,19.973395890654885,0.03101415601933789,-4.0,32.5,0.0,0.0,0.0,0.0,0.0,snow covered,0.237885773181915,-8.54643058776855,100.0,486.590789794922
arenacam6_1769615821960005725.png,1769615821960005725,1769615821.9600055,42.30098118062339,-83.69785248628925,238.03404235839844,-0.012069047430624313,-0.9997632506722738,-0.007431598220430051,-0.016509150408657452,-0.057370000000000004,-0.11431000000000002,0.0016800000000000003,-0.45230000000000004,-0.5374,-6.6409,8.678620872700177,19.413554174977936,24.670000076293945,24.619998931884766,24.739999771118164,24.779998779296875,20.03226751935139,19.99166612908058,20.08910791694584,20.12158748037781,20.058657261438906,0.03322951998621879,-4.599999904632568,32.60000228881836,0.0,0.0,0.0,0.0,0.0,snow covered,0.237885773181915,-8.54643058776855,100.0,486.590789794922
arenacam6_1769615821980870715.png,1769615821980870715,1769615821.9808707,42.30098118218739,-83.69785459861521,238.03482055664062,-0.012156913363588984,-0.9997474536261768,-0.00799669572593165,-0.01712574911975988,-0.051680000000000004,-0.055510000000000004,0.0034500000000000004,0.6056,0.116,-8.8435,8.684114089827023,19.425842172097664,24.81999969482422,24.6299991607666,24.850000381469727,24.869998931884766,20.154068592594456,19.999786407134746,20.178429426756935,20.194668434080583,20.13173821514168,0.036337989199661684,-5.0,32.60000228881836,0.0,0.0,0.0,0.0,0.0,snow covered,0.237885773181915,-8.54643058776855,100.0,486.590789794922
arenacam6_1769615822003677695.png,1769615822003677695,1769615822.0036776,42.3009811877266,-83.69785671682413,238.03562927246094,-0.012184442484801106,-0.9997374708452993,-0.008119386981931206,-0.017623969593036536,0.0026300000000000004,-0.04691000000000001,0.0050100000000000006,1.3921000000000001,1.7409000000000001,-9.804300000000001,8.712402916524278,19.48912258008982,24.69999885559082,24.779998779296875,25.029998779296875,24.920000076293945,20.056626804729195,20.12158748037781,20.32458978537781,20.235269824351388,20.18451847370905,0.03568123145418826,-5.300000190734863,32.5,0.0,0.0,0.0,0.0,0.0,snow covered,0.237885773181915,-8.54643058776855,100.0,486.590789794922
arenacam6_1769615822022386048.png,1769615822022386048,1769615822.022386,42.30098119206666,-83.69785883233155,238.0359344482422,-0.012204847616091974,-0.9997349446859204,-0.008006801686398802,-0.0178037410468206,0.022160000000000003,-0.036180000000000004,0.0033300000000000005,0.9456,0.45180000000000003,-8.5073,8.732447219217917,19.53396048255733,24.869998931884766,24.76999855041504,24.889999389648438,24.90999984741211,20.194668434080583,20.113467202323648,20.210908990188905,20.227149546297223,20.18654854322259,0.033407872471533956,-5.400000095367432,32.400001525878906,0.0,0.0,0.0,0.0,0.0,snow covered,0.237885773181915,-8.54643058776855,100.0,486.590789794922
