image_filename,timestamp_ns,timestamp_sec,latitude,longitude,altitude,orientation_x,orientation_y,orientation_z,orientation_w,angular_velocity_x,angular_velocity_y,angular_velocity_z,linear_acceleration_x,linear_acceleration_y,linear_acceleration_z,vehicle_speed_mps,vehicle_speed_mph,wheel_speed_fl_rads,wheel_speed_fr_rads,wheel_speed_rl_rads,wheel_speed_rr_rads,wheel_speed_fl_mph,wheel_speed_fr_mph,wheel_speed_rl_mph,wheel_speed_rr_mph,avg_wheel_speed_mph,wheel_slip,steering_angle_deg,throttle_pedal,brake_pedal,brake_torque_actual,abs_active,esc_active,trac_active,marwis_road_condition,marwis_friction,marwis_surface_temp_c,marwis_ice_percent,marwis_water_film_height
arenacam6_1769537064131462650.png,1769537064131462650,1769537064.1314626,42.30007367512041,-83.69860047197234,236.22320556640625,-0.6961525737167246,-0.7178806330544951,0.003734522949111233,0.002245914335013553,0.0004000000000000001,-8e-05,0.0004300000000000001,0.07490000000000001,-0.14070000000000002,-9.8184,0.05188042834146149,0.11605340537414888,0.0,0.0,0.0,0.0,0.0,0.0,0.0,0.0,0.0,0.0,-3.1000001430511475,0.0,0.0,0.0,0.0,0.0,0.0,snow covered,0.302256911993027,-7.06193399429321,100.0,415.538116455078
arenacam6_1769537064171080641.png,1769537064171080641,1769537064.1710806,42.30007367512041,-83.69860047197234,236.22320556640625,-0.6961525737167246,-0.7178806330544951,0.003734522949111233,0.002245914335013553,0.0004000000000000001,-8e-05,0.0004300000000000001,0.07490000000000001,-0.14070000000000002,-9.8184,0.05188042834146149,0.11605340537414888,0.0,0.0,0.0,0.0,0.0,0.0,0.0,0.0,0.0,0.0,-3.1000001430511475,0.0,0.0,0.0,0.0,0.0,0.0,snow covered,0.302256911993027,-7.06193399429321,100.0,415.538116455078
arenacam6_1769537064191597243.png,1769537064191597243,1769537064.1915972,42.30007367512041,-83.69860047197234,236.22320556640625,-0.6961525737167246,-0.7178806330544951,0.003734522949111233,0.002245914335013553,0.0004000000000000001,-8e-05,0.0004300000000000001,0.07490000000000001,-0.14070000000000002,-9.8184,0.05188042834146149,0.11605340537414888,0.0,0.0,0.0,0.0,0.0,0.0,0.0,0.0,0.0,0.0,-3.1000001430511475,0.0,0.0,0.0,0.0,0.0,0.0,snow covered,0.302256911993027,-7.06193399429321,100.0,415.538116455078
arenacam6_1769537064233133942.png,1769537064233133942,1769537064.2331338,42.30007367512041,-83.69860047197234,236.22320556640625,-0.6961525737167246,-0.7178806330544951,0.003734522949111233,0.002245914335013553,0.0004000000000000001,-8e-05,0.0004300000000000001,0.07490000000000001,-0.14070000000000002,-9.8184,0.05188042834146149,0.11605340537414888,0.0,0.0,0.0,0.0,0.0,0.0,0.0,0.0,0.0,0.0,-3.1000001430511475,0.0,0.0,0.0,0.0,0.0,0.0,snow covered,0.302256911993027,-7.06193399429321,100.0,415.538116455078
arenacam6_1769537064253906876.png,1769537064253906876,1769537064.253907,42.30007367512041,-83.69860047197234,236.22320556640625,-0.6961525737167246,-0.7178806330544951,0.003734522949111233,0.002245914335013553,0.0004000000000000001,-8e-05,0.0004300000000000001,0.07490000000000001,-0.14070000000000002,-9.8184,0.05188042834146149,0.11605340537414888,0.0,0.0,0.0,0.0,0.0,0.0,0.0,0.0,0.0,0.0,-3.1000001430511475,0.0,0.0,0.0,0.0,0.0,0.0,snow covered,0.302256911993027,-7.06193399429321,100.0,415.538116455078
arenacam6_1769537064274457377.png,1769537064274457377,1769537064.2744575,42.30007367512041,-83.69860047197234,236.22320556640625,-0.6961525737167246,-0.7178806330544951,0.003734522949111233,0.002245914335013553,0.0004000000000000001,-8e-05,0.0004300000000000001,0.07490000000000001,-0.14070000000000002,-9.8184,0.05188042834146149,0.11605340537414888,0.0,0.0,0.0,0.0,0.0,0.0,0.0,0.0,0.0,0.0,-3.1000001430511475,0.0,0.0,0.0,0.0,0.0,0.0,snow covered,0.302256911993027,-7.06193399429321,100.0,415.538116455078
arenacam6_1769537064336562304.png,1769537064336562304,1769537064.3365622,42.30007367512041,-83.69860047197234,236.22320556640625,-0.6961525737167246,-0.7178806330544951,0.003734522949111233,0.002245914335013553,0.0004000000000000001,-8e-05,0.0004300000000000001,0.07490000000000001,-0.14070000000000002,-9.8184,0.05188042834146149,0.11605340537414888,0.0,0.0,0.0,0.0,0.0,0.0,0.0,0.0,0.0,0.0,-3.1000001430511475,0.0,0.0,0.0,0.0,0.0,0.0,snow covered,0.302256911993027,-7.06193399429321,100.0,415.538116455078
arenacam6_1769537064377974038.png,1769537064377974038,1769537064.377974,42.30007367512041,-83.69860047197234,236.22320556640625,-0.6961525737167246,-0.7178806330544951,0.003734522949111233,0.002245914335013553,0.0004000000000000001,-8e-05,0.0004300000000000001,0.07490000000000001,-0.14070000000000002,-9.8184,0.05188042834146149,0.11605340537414888,0.0,0.0,0.0,0.0,0.0,0.0,0.0,0.0,0.0,0.0,-3.1000001430511475,0.0,0.0,0.0,0.0,0.0,0.0,snow covered,0.302256911993027,-7.06193399429321,100.0,415.538116455078
arenacam6_1769537064398784126.png,1769537064398784126,1769537064.398784,42.30007367512041,-83.69860047197234,236.22320556640625,-0.6961525737167246,-0.7178806330544951,0.003734522949111233,0.002245914335013553,0.0004000000000000001,-8e-05,0.0004300000000000001,0.07490000000000001,-0.14070000000000002,-9.8184,0.05188042834146149,0.11605340537414888,0.0,0.0,0.0,0.0,0.0,0.0,0.0,0.0,0.0,0.0,-3.1000001430511475,0.0,0.0,0.0,0.0,0.0,0.0,snow covered,0.302256911993027,-7.06193399429321,100.0,415.538116455078
arenacam6_1769537064419218512.png,1769537064419218512,1769537064.4192185,42.30007367512041,-83.69860047197234,236.22320556640625,-0.6961525737167246,-0.7178806330544951,0.003734522949111233,0.002245914335013553,0.0004000000000000001,-8e-05,0.0004300000000000001,0.07490000000000001,-0.14070000000000002,-9.8184,0.05188042834146149,0.11605340537414888,0.0,0.0,0.0,0.0,0.0,0.0,0.0,0.0,0.0,0.0,-3.1000001430511475,0.0,0.0,0.0,0.0,0.0,0.0,snow covered,0.302256911993027,-7.06193399429321,100.0,415.538116455078
arenacam6_1769537064439863650.png,1769537064439863650,1769537064.4398634,42.30007367512041,-83.69860047197234,236.22320556640625,-0.6961525737167246,-0.7178806330544951,0.003734522949111233,0.002245914335013553,0.0004000000000000001,-8e-05,0.0004300000000000001,0.07490000000000001,-0.14070000000000002,-9.8184,0.05188042834146149,0.11605340537414888,0.0,0.0,0.0,0.0,0.0,0.0,0.0,0.0,0.0,0.0,-3.1000001430511475,0.0,0.0,0.0,0.0,0.0,0.0,snow covered,0.302256911993027,-7.06193399429321,100.0,415.538116455078
arenacam6_1769537064564107233.png,1769537064564107233,1769537064.5641072,42.30007367512041,-83.69860047197234,236.22320556640625,-0.6961525737167246,-0.7178806330544951,0.003734522949111233,0.002245914335013553,0.0004000000000000001,-8e-05,0.0004300000000000001,0.07490000000000001,-0.14070000000000002,-9.8184,0.05188042834146149,0.11605340537414888,0.0,0.0,0.0,0.0,0.0,0.0,0.0,0.0,0.0,0.0,-3.1000001430511475,0.0,0.0,0.0,0.0,0.0,0.0,snow covered,0.302256911993027,-7.06193399429321,100.0,415.538116455078
arenacam6_1769537064584871803.png,1769537064584871803,1769537064.5848718,42.30007367512041,-83.69860047197234,236.22320556640625,-0.6961525737167246,-0.7178806330544951,0.003734522949111233,0.002245914335013553,0.0004000000000000001,-8e-05,0.0004300000000000001,0.07490000000000001,-0.14070000000000002,-9.8184,0.05188042834146149,0.11605340537414888,0.0,0.0,0.0,0.0,0.0,0.0,0.0,0.0,0.0,0.0,-3.1000001430511475,0.0,0.0,0.0,0.0,0.0,0.0,snow covered,0.302256911993027,-7.06193399429321,100.0,415.538116455078
arenacam6_1769537064626467524.png,1769537064626467524,1769537064.6264675,42.30007367512041,-83.69860047197234,236.22320556640625,-0.6961525737167246,-0.7178806330544951,0.003734522949111233,0.002245914335013553,0.0004000000000000001,-8e-05,0.0004300000000000001,0.07490000000000001,-0.14070000000000002,-9.8184,0.05188042834146149,0.11605340537414888,0.0,0.0,0.0,0.0,0.0,0.0,0.0,0.0,0.0,0.0,-3.1000001430511475,0.0,0.0,0.0,0.0,0.0,0.0,snow covered,0.302256911993027,-7.06193399429321,100.0,415.538116455078
arenacam6_1769537064688100005.png,1769537064688100005,1769537064.6881,42.30007367512041,-83.69860047197234,236.22320556640625,-0.6961525737167246,-0.7178806330544951,0.003734522949111233,0.002245914335013553,0.0004000000000000001,-8e-05,0.0004300000000000001,0.07490000000000001,-0.14070000000000002,-9.8184,0.05188042834146149,0.11605340537414888,0.0,0.0,0.0,0.0,0.0,0.0,0.0,0.0,0.0,0.0,-3.1000001430511475,0.0,0.0,0.0,0.0,0.0,0.0,snow covered,0.302256911993027,-7.06193399429321,100.0,415.538116455078
arenacam6_1769537064750234416.png,1769537064750234416,1769537064.7502344,42.30007367512041,-83.69860047197234,236.22320556640625,-0.6961525737167246,-0.7178806330544951,0.003734522949111233,0.002245914335013553,0.0004000000000000001,-8e-05,0.0004300000000000001,0.07490000000000001,-0.14070000000000002,-9.8184,0.05188042834146149,0.11605340537414888,0.0,0.0,0.0,0.0,0.0,0.0,0.0,0.0,0.0,0.0,-3.1000001430511475,0.0,0.0,0.0,0.0,0.0,0.0,snow covered,0.302256911993027,-7.06193399429321,100.0,415.538116455078
arenacam6_1769537064791686695.png,1769537064791686695,1769537064.7916868,42.30007367512041,-83.69860047197234,236.22320556640625,-0.6961525737167246,-0.7178806330544951,0.003734522949111233,0.002245914335013553,0.0004000000000000001,-8e-05,0.0004300000000000001,0.07490000000000001,-0.14070000000000002,-9.8184,0.05188042834146149,0.11605340537414888,0.0,0.0,0.0,0.0,0.0,0.0,0.0,0.0,0.0,0.0,-3.1000001430511475,0.0,0.0,0.0,0.0,0.0,0.0,snow covered,0.302256911993027,-7.06193399429321,100.0,415.538116455078
arenacam6_1769537064812338482.png,1769537064812338482,1769537064.8123384,42.30007367512041,-83.69860047197234,236.22320556640625,-0.6961525737167246,-0.7178806330544951,0.003734522949111233,0.002245914335013553,0.0004000000000000001,-8e-05,0.0004300000000000001,0.07490000000000001,-0.14070000000000002,-9.8184,0.05188042834146149,0.11605340537414888,0.0,0.0,0.0,0.0,0.0,0.0,0.0,0.0,0.0,0.0,-3.1000001430511475,0.0,0.0,0.0,0.0,0.0,0.0,snow covered,0.302256911993027,-7.06193399429321,100.0,415.538116455078
arenacam6_1769537064833057829.png,1769537064833057829,1769537064.8330579,42.30007367512041,-83.69860047197234,236.22320556640625,-0.6961525737167246,-0.7178806330544951,0.003734522949111233,0.002245914335013553,0.0004000000000000001,-8e-05,0.0004300000000000001,0.07490000000000001,-0.14070000000000002,-9.8184,0.05188042834146149,0.11605340537414888,0.0,0.0,0.0,0.0,0.0,0.0,0.0,0.0,0.0,0.0,-3.1000001430511475,0.0,0.0,0.0,0.0,0.0,0.0,snow covered,0.302256911993027,-7.06193399429321,100.0,415.538116455078
arenacam6_1769537064936451002.png,1769537064936451002,1769537064.936451,42.30007367512041,-83.69860047197234,236.22320556640625,-0.6961525737167246,-0.7178806330544951,0.003734522949111233,0.002245914335013553,0.0004000000000000001,-8e-05,0.0004300000000000001,0.07490000000000001,-0.14070000000000002,-9.8184,0.05188042834146149,0.11605340537414888,0.0,0.0,0.0,0.0,0.0,0.0,0.0,0.0,0.0,0.0,-3.1000001430511475,0.0,0.0,0.0,0.0,0.0,0.0,snow covered,0.302256911993027,-7.06193399429321,100.0,415.538116455078
arenacam6_1769537064998620876.png,1769537064998620876,1769537064.998621,42.30007367512041,-83.69860047197234,236.22320556640625,-0.6961525737167246,-0.7178806330544951,0.003734522949111233,0.002245914335013553,0.0004000000000000001,-8e-05,0.0004300000000000001,0.07490000000000001,-0.14070000000000002,-9.8184,0.05188042834146149,0.11605340537414888,0.0,0.0,0.0,0.0,0.0,0.0,0.0,0.0,0.0,0.0,-3.1000001430511475,0.0,0.0,0.0,0.0,0.0,0.0,snow covered,0.302256911993027,-7.06193399429321,100.0,415.538116455078
arenacam6_1769537065019238680.png,1769537065019238680,1769537065.0192387,42.30007367512041,-83.69860047197234,236.22320556640625,-0.6961525737167246,-0.7178806330544951,0.003734522949111233,0.002245914335013553,0.0004000000000000001,-8e-05,0.0004300000000000001,0.07490000000000001,-0.14070000000000002,-9.8184,0.05188042834146149,0.11605340537414888,0.0,0.0,0.0,0.0,0.0,0.0,0.0,0.0,0.0,0.0,-3.1000001430511475,0.0,0.0,0.0,0.0,0.0,0.0,snow covered,0.302256911993027,-7.06193399429321,100.0,415.538116455078
arenacam6_1769537065130567933.png,1769537065130567933,1769537065.130568,42.30007367512041,-83.69860047197234,236.22320556640625,-0.6961525737167246,-0.7178806330544951,0.003734522949111233,0.002245914335013553,0.0004000000000000001,-8e-05,0.0004300000000000001,0.07490000000000001,-0.14070000000000002,-9.8184,0.05188042834146149,0.11605340537414888,0.0,0.0,0.0,0.0,0.0,0.0,0.0,0.0,0.0,0.0,-3.1000001430511475,0.0,0.0,0.0,0.0,0.0,0.0,snow covered,0.302256911993027,-7.06193399429321,100.0,415.538116455078
arenacam6_1769537065145870428.png,1769537065145870428,1769537065.1458704,42.30007367512041,-83.69860047197234,236.22320556640625,-0.6961525737167246,-0.7178806330544951,0.003734522949111233,0.002245914335013553,0.0004000000000000001,-8e-05,0.0004300000000000001,0.07490000000000001,-0.14070000000000002,-9.8184,0.05188042834146149,0.11605340537414888,0.0,0.0,0.0,0.0,0.0,0.0,0.0,0.0,0.0,0.0,-3.1000001430511475,0.0,0.0,0.0,0.0,0.0,0.0,snow covered,0.302256911993027,-7.06193399429321,100.0,415.538116455078
arenacam6_1769537065208285823.png,1769537065208285823,1769537065.2082858,42.30007367512041,-83.69860047197234,236.22320556640625,-0.6961700274604713,-0.7178638396098653,0.0036841704996724367,0.002286380107807944,0.0008200000000000001,0.0008500000000000001,0.00029,0.0425,0.0148,-9.8275,0.06871915498854332,0.1537206265600721,0.0,0.0,0.0,0.0,0.0,0.0,0.0,0.0,0.0,0.0,-3.1000001430511475,0.0,0.0,0.0,0.0,0.0,0.0,snow covered,0.302256911993027,-7.06193399429321,100.0,415.538116455078
arenacam6_1769537065234019315.png,1769537065234019315,1769537065.2340193,42.30007367512041,-83.69860047197234,236.22320556640625,-0.6961710913897385,-0.7178627933319722,0.0036845802447655557,0.002290268817945388,0.00048,0.0004700000000000001,-0.0014700000000000002,0.1218,-0.1855,-9.8497,0.07117428595883561,0.15921260723275774,0.0,0.0,0.0,0.0,0.0,0.0,0.0,0.0,0.0,0.0,-3.1000001430511475,0.0,0.0,0.0,0.0,0.0,0.0,snow covered,0.302256911993027,-7.06193399429321,100.0,415.538116455078
arenacam6_1769537065371772107.png,1769537065371772107,1769537065.371772,42.30007389979075,-83.69860052309873,236.225341796875,-0.6961865617239046,-0.7178478916213253,0.003671631408586673,0.002279230717932905,0.0017500000000000003,-0.0005200000000000001,-0.0008200000000000001,0.0743,-0.0695,-9.7405,0.08454319932291075,0.18911806429339198,0.0,0.0,0.0,0.0,0.0,0.0,0.0,0.0,0.0,0.0,-3.1000001430511475,0.0,0.0,0.0,0.0,0.0,0.0,snow covered,0.302256911993027,-7.06193399429321,100.0,415.538116455078
arenacam6_1769537065474785724.png,1769537065474785724,1769537065.4747858,42.30007398914602,-83.69860054365904,236.22645568847656,-0.696208354638913,-0.7178267376978065,0.0036561135624113873,0.0023096343262533577,0.0008600000000000002,-0.0004000000000000001,0.00135,0.0437,0.1018,-9.7569,0.09243625395274375,0.20677435391705062,0.0,0.0,0.0,0.0,0.0,0.0,0.0,0.0,0.0,0.0,-3.1000001430511475,0.0,0.0,0.0,0.0,0.0,0.0,snow covered,0.302256911993027,-7.06193399429321,100.0,415.538116455078
arenacam6_1769537065495450118.png,1769537065495450118,1769537065.49545,42.300074025382905,-83.69860055016632,236.22677612304688,-0.6962133268763124,-0.7178218851307984,0.0036520930579092203,0.0023252792047797413,-0.00101,-0.00037000000000000005,0.00096,0.0723,-0.013800000000000002,-9.842,0.09595288487387132,0.21464084628975774,0.0,0.0,0.0,0.0,0.0,0.0,0.0,0.0,0.0,0.0,-3.1000001430511475,0.0,0.0,0.0,0.0,0.0,0.0,snow covered,0.302256911993027,-7.06193399429321,100.0,415.538116455078
arenacam6_1769537065516137255.png,1769537065516137255,1769537065.5161371,42.300074025382905,-83.69860055016632,236.22677612304688,-0.6962136575014951,-0.717821514879674,0.0036564636639306388,0.0023337004339115397,0.0018600000000000003,0.00064,3e-05,-0.0064,0.0245,-9.7939,0.0960194149307063,0.21478967003509417,0.0,0.20999999344348907,0.0,0.20999999344348907,0.0,0.17052193087605266,0.0,0.17052193087605266,0.08526096543802633,0.0,-3.1000001430511475,0.0,0.0,0.0,0.0,0.0,0.0,snow covered,0.302256911993027,-7.06193399429321,100.0,415.538116455078
arenacam6_1769537065578068261.png,1769537065578068261,1769537065.5780683,42.30007410232062,-83.69860056478764,236.22767639160156,-0.6962164350994854,-0.7178185685883018,0.003687995134653064,0.002361520504329489,0.0016000000000000003,-0.00020000000000000004,0.00015000000000000001,0.0431,-0.1955,-9.8397,0.10124278428542793,0.22647403387944517,0.0,0.20999999344348907,0.22999998927116394,0.20999999344348907,0.0,0.17052193087605266,0.1867621118880862,0.17052193087605266,0.13195149341004786,0.0,-3.1000001430511475,0.0,0.0,0.0,0.0,0.0,0.0,snow covered,0.302256911993027,-7.06193399429321,100.0,415.538116455078
arenacam6_1769537065599351792.png,1769537065599351792,1769537065.599352,42.30007412062897,-83.69860056630665,236.22781372070312,-0.6962207510407916,-0.7178143530308615,0.003695366823196793,0.0023589546676076687,0.00010000000000000002,-0.00021000000000000004,0.0004300000000000001,0.0419,-0.0509,-9.7827,0.10256359425114892,0.22942860652416508,0.0,0.20999999344348907,0.22999998927116394,0.20999999344348907,0.0,0.17052193087605266,0.1867621118880862,0.17052193087605266,0.13195149341004786,0.0,-3.1000001430511475,0.0,0.0,0.0,0.0,0.0,0.0,snow covered,0.302256911993027,-7.06193399429321,100.0,415.538116455078
arenacam6_1769537065640382890.png,1769537065640382890,1769537065.640383,42.300074181662225,-83.69860057561492,236.2284393310547,-0.6962238582806712,-0.7178110619928598,0.0037259603483308693,0.0023949239948427054,0.004090000000000001,-0.00012,0.00017,0.0264,-0.1401,-9.810400000000001,0.10392309378542158,0.23246972541236097,0.0,0.20999999344348907,0.22999998927116394,0.20999999344348907,0.0,0.17052193087605266,0.1867621118880862,0.17052193087605266,0.13195149341004786,0.0,-3.1000001430511475,0.0,0.0,0.0,0.0,0.0,0.0,snow covered,0.302256911993027,-7.06193399429321,100.0,415.538116455078
arenacam6_1769537065743536998.png,1769537065743536998,1769537065.743537,42.30007422562004,-83.69860058298259,236.22886657714844,-0.6962286795378528,-0.717805857899253,0.0037890673483366496,0.0024533901289833272,0.0022800000000000003,0.00011000000000000002,-0.0013900000000000002,0.10110000000000001,-0.3427,-9.8209,0.10968533046023866,0.2453595031197263,0.25999999046325684,0.26999998092651367,0.22999998927116394,0.20999999344348907,0.21112238945607664,0.21924247391215326,0.1867621118880862,0.17052193087605266,0.1969122265330922,0.0,-3.1000001430511475,13.050000190734863,0.0,0.0,0.0,0.0,0.0,snow covered,0.302256911993027,-7.06193399429321,100.0,415.538116455078
arenacam6_1769537065764577290.png,1769537065764577290,1769537065.7645774,42.30007433187682,-83.69860059695404,236.22979736328125,-0.6962289730087944,-0.7178054204277986,0.003805966923139949,0.00247187446498562,0.00354,0.0015700000000000002,0.00022000000000000003,0.0799,-0.1188,-9.7766,0.10994037768718727,0.2459300284635767,0.25999999046325684,0.26999998092651367,0.22999998927116394,0.26999998092651367,0.21112238945607664,0.21924247391215326,0.1867621118880862,0.21924247391215326,0.20909236229211733,0.0,-3.1000001430511475,20.524999618530273,0.0,0.0,0.0,0.0,0.0,snow covered,0.302256911993027,-7.06193399429321,100.0,415.538116455078
arenacam6_1769537065806084403.png,1769537065806084403,1769537065.8060844,42.30007433187682,-83.69860059695404,236.22979736328125,-0.6962354602583732,-0.7177989559431357,0.003842960477649868,0.002464625838293351,0.0022500000000000003,-0.0028700000000000006,0.00169,-0.1617,0.08460000000000001,-9.8862,0.11107358248609957,0.24846493960645558,0.25999999046325684,0.26999998092651367,0.2800000011920929,0.26999998092651367,0.21112238945607664,0.21924247391215326,0.22736258256799044,0.21924247391215326,0.2192424799620934,0.0,-3.1000001430511475,20.274999618530273,0.0,0.0,0.0,0.0,0.0,snow covered,0.302256911993027,-7.06193399429321,100.0,415.538116455078
arenacam6_1769537065827137946.png,1769537065827137946,1769537065.827138,42.30007435444506,-83.69860060060331,236.22999572753906,-0.6962379207560215,-0.717796430614295,0.0038594396059897272,0.002479238721326868,0.0018900000000000002,-0.00033000000000000005,-0.00035000000000000005,0.06330000000000001,-0.1436,-9.6943,0.11166842513380373,0.24979556691881094,0.25999999046325684,0.26999998092651367,0.2800000011920929,0.26999998092651367,0.21112238945607664,0.21924247391215326,0.22736258256799044,0.21924247391215326,0.2192424799620934,0.0,-3.1000001430511475,20.075000762939453,0.0,0.0,0.0,0.0,0.0,snow covered,0.302256911993027,-7.06193399429321,100.0,415.538116455078
arenacam6_1769537065950462284.png,1769537065950462284,1769537065.950462,42.30007448734428,-83.69860061545631,236.2312469482422,-0.6962504189821314,-0.7177833027304676,0.003968648858911155,0.002595036566794679,0.005610000000000001,0.0051,-0.00021000000000000004,0.1496,-0.1751,-9.7086,0.11673987466062465,0.2611400952233377,0.29999998211860657,0.3199999928474426,0.2800000011920929,0.32999998331069946,0.24360275148014365,0.2598429445920575,0.22736258256799044,0.26796302904813407,0.24969282692208142,0.0,-3.1000001430511475,19.975000381469727,0.0,0.0,0.0,0.0,0.0,snow covered,0.302256911993027,-7.06193399429321,100.0,415.538116455078
arenacam6_1769537065992411770.png,1769537065992411770,1769537065.9924116,42.30007453412231,-83.69860061973681,236.23146057128906,-0.6962568138524616,-0.7177769474092602,0.003922215471305821,0.0027053941781624473,0.0038800000000000006,0.010970000000000002,-0.00026000000000000003,0.49470000000000003,-0.054,-9.632100000000001,0.12774454161741491,0.28575687492566015,0.29999998211860657,0.3199999928474426,0.3400000035762787,0.32999998331069946,0.24360275148014365,0.2598429445920575,0.27608313770397125,0.26796302904813407,0.2618729657060766,0.0,-3.1000001430511475,18.475000381469727,0.0,0.0,0.0,0.0,0.0,snow covered,0.302256911993027,-7.06193399429321,100.0,415.538116455078
arenacam6_1769537066012630763.png,1769537066012630763,1769537066.0126307,42.30007455996985,-83.69860062285281,236.23158264160156,-0.6962548973065426,-0.7177785757001628,0.003879498119337927,0.002825550715157988,0.004210000000000001,0.010390000000000002,-0.00036,0.5359,-0.14350000000000002,-9.6654,0.1444163357398417,0.3230506780698815,0.29999998211860657,0.3199999928474426,0.3400000035762787,0.32999998331069946,0.24360275148014365,0.2598429445920575,0.27608313770397125,0.26796302904813407,0.2618729657060766,0.0,-3.1000001430511475,17.649999618530273,0.0,0.0,0.0,0.0,0.0,snow covered,0.302256911993027,-7.06193399429321,100.0,415.538116455078
arenacam6_1769537066157759816.png,1769537066157759816,1769537066.1577597,42.30007482167398,-83.69860064881443,236.23086547851562,-0.6963241348082709,-0.7177099946777082,0.0032484222549519054,0.003809275008489074,0.0036200000000000004,0.018120000000000004,0.0015600000000000002,1.4692,-0.0015,-9.985700000000001,0.30058022172872845,0.6723799211938618,0.699999988079071,0.7799999713897705,0.7899999618530273,0.7400000095367432,0.5684064443200959,0.6333671683682298,0.6414872528243065,0.6008868305439234,0.6110369240141389,0.0,-3.1000001430511475,14.65000057220459,0.0,0.0,0.0,0.0,0.0,snow covered,0.302256911993027,-7.06193399429321,100.0,415.538116455078
arenacam6_1769537066198758324.png,1769537066198758324,1769537066.1987584,42.30007493970649,-83.69860065934712,236.23077392578125,-0.6963336238871116,-0.7177002602928538,0.00316635088559155,0.003974272497155447,0.00321,0.009850000000000003,0.0013000000000000002,1.2463,0.0176,-10.1568,0.3431791127818969,0.7676710845463365,0.9799999594688416,1.0499999523162842,0.7899999618530273,1.0299999713897705,0.7957690026883257,0.852609642280383,0.6414872528243065,0.8363694733682299,0.7815588427903113,0.0,-3.1000001430511475,14.375,0.0,0.0,0.0,0.0,0.0,snow covered,0.302256911993027,-7.06193399429321,100.0,415.538116455078
arenacam6_1769537066219982848.png,1769537066219982848,1769537066.2199829,42.3000750767731,-83.69860066833736,236.23118591308594,-0.6963322026751508,-0.7177008218674407,0.003116430368195054,0.004157122819086768,0.005420000000000001,0.005450000000000001,-0.00036,1.2982,-0.0345,-10.167100000000001,0.39682021871807127,0.8876630200592024,0.9799999594688416,1.0499999523162842,1.0499999523162842,1.0299999713897705,0.7957690026883257,0.852609642280383,0.852609642280383,0.8363694733682299,0.8343394401543304,0.0,-3.1000001430511475,14.699999809265137,0.0,0.0,0.0,0.0,0.0,snow covered,0.302256911993027,-7.06193399429321,100.0,415.538116455078
arenacam6_1769537066283999744.png,1769537066283999744,1769537066.2839997,42.30007531497777,-83.69860068207613,236.2328338623047,-0.696278656029171,-0.7177516593878814,0.0032719950241257307,0.004228788563612964,0.004760000000000001,-0.006940000000000001,-0.00267,1.1484,-0.11030000000000001,-10.0875,0.47246291787121375,1.056871199502833,1.350000023841858,1.2400000095367432,1.2699999809265137,1.2400000095367432,1.0962124663598085,1.0068914405439235,1.0312516939121532,1.0068914405439235,1.0353117603399522,0.02039930615293774,-3.1000001430511475,14.574999809265137,0.0,0.0,0.0,0.0,0.0,snow covered,0.302256911993027,-7.06193399429321,100.0,415.538116455078
arenacam6_1769537066322846042.png,1769537066322846042,1769537066.322846,42.30007549254873,-83.69860069068213,236.23446655273438,-0.6962526651513151,-0.7177760409863065,0.0034922545426677707,0.004193496622588686,0.007290000000000001,-0.012530000000000001,-0.0013300000000000002,1.0484,-0.2627,-9.8827,0.5180899078872344,1.1589360385492702,1.5,1.409999966621399,1.459999918937683,1.3899999856948853,1.21801383,1.1449329730962683,1.1855333953766514,1.1286928041841149,1.1692932506642588,0.008936828065122176,-3.1000001430511475,15.02500057220459,0.0,0.0,0.0,0.0,0.0,snow covered,0.302256911993027,-7.06193399429321,100.0,415.538116455078
arenacam6_1769537066364621357.png,1769537066364621357,1769537066.3646214,42.30007559160941,-83.69860069690826,236.23533630371094,-0.6962543142711535,-0.7177739554677486,0.0036324260107515683,0.004157426158649517,0.0033900000000000007,-0.0134,0.00033000000000000005,1.1908,-0.024900000000000002,-10.164,0.5529641497442075,1.2369476251288076,1.6399999856948853,1.5499999523162842,1.5999999046325684,1.5399999618530273,1.331695109184115,1.2586142522803832,1.2992146745607662,1.2504941678243064,1.2850045509623926,0.03885122122982424,-3.1000001430511475,15.125,0.0,0.0,0.0,0.0,0.0,snow covered,0.302256911993027,-7.06193399429321,100.0,415.538116455078
arenacam6_1769537066446870381.png,1769537066446870381,1769537066.4468703,42.30007624862965,-83.69860073789013,236.2409210205078,-0.6963508985475233,-0.7176780807551081,0.004109221577922044,0.0040881283914590985,0.009840000000000002,0.0008700000000000001,0.0016100000000000003,1.1681000000000001,-0.011000000000000001,-9.4033,0.6510087299281057,1.4562674683253767,1.8700000047683716,1.7799999713897705,1.8899999856948853,1.7999999523162842,1.5184572452719618,1.44537638836823,1.534697414184115,1.4616165572803832,1.4900369012761725,0.02318903201870513,-3.1000001430511475,15.175000190734863,0.0,0.0,0.0,0.0,0.0,snow covered,0.302256911993027,-7.06193399429321,100.0,415.538116455078
arenacam6_1769537066488440656.png,1769537066488440656,1769537066.4884405,42.300076368567616,-83.69860074548527,236.2417755126953,-0.6963743258427942,-0.7176546519892659,0.004246015484357954,0.00407064339702957,0.0037200000000000006,0.0004300000000000001,0.004690000000000001,0.859,-0.08030000000000001,-9.6022,0.6808215455994514,1.522956948213237,1.959999918937683,2.0,2.109999895095825,2.0299999713897705,1.5915380053766515,1.62401844,1.713339369016843,1.64837869336823,1.6443186269404313,0.07968818742353695,-3.1000001430511475,15.425000190734863,0.0,0.0,0.0,0.0,0.0,snow covered,0.302256911993027,-7.06193399429321,100.0,415.538116455078
arenacam6_1769537066633120480.png,1769537066633120480,1769537066.6331205,42.30007731562584,-83.69860080047135,236.24594116210938,-0.696273080871191,-0.7177515696983813,0.0045106209869387095,0.004016882866326863,-0.0005000000000000001,-0.00229,-0.00020000000000000004,1.2303,-0.5982000000000001,-10.4832,0.8280441636203622,1.852285111368933,2.419999837875366,2.429999828338623,2.5,2.4800000190734863,1.9650621807533026,1.9731822652093793,2.03002305,2.013782881087847,1.9955125942626322,0.07732474985335645,-3.1000001430511475,15.550000190734863,0.0,0.0,0.0,0.0,0.0,snow covered,0.302256911993027,-7.06193399429321,100.0,415.538116455078
arenacam6_1769537066674579778.png,1769537066674579778,1769537066.6745796,42.300077620207965,-83.69860081542208,236.2469482421875,-0.6962366633854501,-0.7177867098160757,0.004569022772749491,0.003983942797043373,-0.00036,-0.014770000000000002,-0.0025000000000000005,1.0421,-0.607,-10.1272,0.8551931064544617,1.9130156675522436,2.490000009536743,2.5299999713897705,2.5899999141693115,2.549999952316284,2.0219029655439233,2.05438330336823,2.1031038101046895,2.070623472280383,2.0625033878243064,0.07814244431324312,-3.0,15.050000190734863,0.0,0.0,0.0,0.0,0.0,snow covered,0.302256911993027,-7.06193399429321,100.0,415.538116455078
arenacam6_1769537066716628664.png,1769537066716628664,1769537066.7166288,42.30007810173996,-83.69860084367836,236.24888610839844,-0.6962095128595689,-0.7178127344467901,0.0046363748851396104,0.0039618805873622084,-0.00204,-0.010910000000000001,-0.00102,0.9844,-0.7899,-9.8838,0.9057662333417089,2.0261447180114023,2.6399998664855957,2.5999999046325684,2.7799999713897705,2.7899999618530273,2.1437042323850726,2.111223894560766,2.2573856083682298,2.2655056928243065,2.194454857034594,0.08306915963455104,-3.0,13.449999809265137,0.0,0.0,0.0,0.0,0.0,snow covered,0.302256911993027,-7.06193399429321,100.0,415.538116455078
arenacam6_1769537066798586013.png,1769537066798586013,1769537066.7985861,42.30007861425462,-83.69860087522169,236.2510528564453,-0.6962433631377793,-0.7177801120820709,0.004674164173824266,0.0038784243347211667,0.004260000000000001,-0.00223,0.003650000000000001,0.5804,-0.11960000000000001,-9.8573,0.9725573503969536,2.1755524393969616,2.879999876022339,2.869999885559082,2.9700000286102295,2.9099998474121094,2.3385864529289964,2.3304663684729197,2.41166740663177,2.362946706297226,2.360916733582728,0.08520332161570288,-2.6000001430511475,6.200000286102295,0.0,0.0,0.0,0.0,0.0,snow covered,0.302256911993027,-7.06193399429321,100.0,415.538116455078
arenacam6_1769537066840268383.png,1769537066840268383,1769537066.8402684,42.3000789745952,-83.69860089842985,236.2522430419922,-0.6963088343154359,-0.717715269662949,0.004740605505953113,0.004040495805737653,0.0038200000000000005,0.0029700000000000004,0.006770000000000001,0.774,0.1552,-9.731900000000001,1.0194739299055504,2.280502012762922,2.9800000190734863,2.950000047683716,3.069999933242798,3.0,2.4197874910878467,2.395427237719617,2.492868251192536,2.43602766,2.43602766,0.0681979872706415,-2.299999952316284,5.625,0.0,0.0,0.0,0.0,0.0,snow covered,0.302256911993027,-7.06193399429321,100.0,415.538116455078
arenacam6_1769537066860786239.png,1769537066860786239,1769537066.8607862,42.30007934446771,-83.698600920189,236.25323486328125,-0.6963468259245291,-0.7176767266732448,0.00482950985933386,0.004229639574362318,0.011150000000000002,0.0049900000000000005,0.0037300000000000002,0.7615000000000001,-0.4439,-9.8301,1.0474877626502181,2.343167275782779,3.0399999618530273,3.0199999809265137,3.0999999046325684,3.0,2.4685079978243065,2.452267828912153,2.5172285045607663,2.43602766,2.4685079978243065,0.05349200773540807,-2.200000047683716,5.550000190734863,0.0,0.0,0.0,0.0,0.0,snow covered,0.302256911993027,-7.06193399429321,100.0,415.538116455078
arenacam6_1769537066902297128.png,1769537066902297128,1769537066.902297,42.30007953763225,-83.69860093188218,236.2537384033203,-0.696403210047616,-0.7176215258999905,0.004805344551954005,0.00433857857858124,0.005110000000000001,0.00415,0.004020000000000001,1.1107,0.4655,-9.7247,1.0789487247459904,2.413543560333296,3.0799999237060547,3.119999885559082,3.1399998664855957,3.0999999046325684,2.500988335648613,2.5334686734729193,2.549708842385073,2.5172285045607663,2.5253485890168426,0.04632401524508096,-2.0,6.050000190734863,0.0,0.0,0.0,0.0,0.0,snow covered,0.302256911993027,-7.06193399429321,100.0,415.538116455078
arenacam6_1769537066964284983.png,1769537066964284983,1769537066.964285,42.30008013094948,-83.69860096515272,236.25540161132812,-0.6964347220856708,-0.7175892574988688,0.004891271902950418,0.004517837408330267,0.00708,0.0009200000000000001,-0.00064,0.9268000000000001,-0.0108,-9.8198,1.1308887328089263,2.5297302419695997,3.2899999618530273,3.240000009536743,3.299999952316284,3.240000009536743,2.6715103028243066,2.6309098805439235,2.6796303872803833,2.6309098805439235,2.653240112798134,0.0488233364883886,-2.0,6.700000286102295,0.0,0.0,0.0,0.0,0.0,snow covered,0.302256911993027,-7.06193399429321,100.0,415.538116455078
arenacam6_1769537067006377845.png,1769537067006377845,1769537067.0063777,42.30008075061124,-83.69860099991438,236.25753784179688,-0.6964432118128315,-0.717579641656436,0.004973028953071086,0.004645382985343501,0.00795,0.005410000000000001,-0.0006700000000000001,0.746,0.1517,-9.6958,1.1652553796876652,2.606606369038526,3.3499999046325684,3.299999952316284,3.3999998569488525,3.3399999141693115,2.7202308095607663,2.6796303872803833,2.7608312318411494,2.7121107251046896,2.7182007884467474,0.042812148674901,-2.0,7.775000095367432,0.0,0.0,0.0,0.0,0.0,snow covered,0.302256911993027,-7.06193399429321,100.0,415.538116455078
arenacam6_1769537067026464082.png,1769537067026464082,1769537067.026464,42.3000809619139,-83.69860101131455,236.25839233398438,-0.6964359287772773,-0.7175860283821498,0.005055701228162546,0.004661422953888614,0.00632,-0.00759,-0.0020700000000000002,0.6745,-0.45480000000000004,-10.073,1.1814574329505492,2.6428493900644017,3.3499999046325684,3.3399999141693115,3.3999998569488525,3.359999895095825,2.7202308095607663,2.7121107251046896,2.7608312318411494,2.7283508940168426,2.730380915130862,0.03312013366918625,-2.0,8.475000381469727,0.0,0.0,0.0,0.0,0.0,snow covered,0.302256911993027,-7.06193399429321,100.0,415.538116455078
arenacam6_1769537067047011348.png,1769537067047011348,1769537067.0470114,42.30008139208406,-83.69860103471825,236.26010131835938,-0.6964500238226856,-0.7175717600404526,0.005103558576695388,0.004699702084358646,0.006720000000000001,0.0016300000000000002,0.0009200000000000001,0.47900000000000004,0.23450000000000001,-9.805100000000001,1.1952800236259034,2.6737696960497286,3.379999876022339,3.3899998664855957,3.429999828338623,3.379999876022339,2.7445910629289965,2.7527111473850727,2.7851914852093795,2.7445910629289965,2.7567711896131115,0.03104287317116755,-2.0,9.350000381469727,0.0,0.0,0.0,0.0,0.0,snow covered,0.302256911993027,-7.06193399429321,100.0,415.538116455078
arenacam6_1769537067130433788.png,1769537067130433788,1769537067.1304338,42.300082051848804,-83.69860107354353,236.26278686523438,-0.69647806125797,-0.7175418700746649,0.005287742062566686,0.004900475484280714,0.009440000000000002,-0.0014600000000000004,0.00239,0.7694000000000001,-0.2923,-9.756400000000001,1.236652747316574,2.7663179965823375,3.490000009536743,3.5,3.5299999713897705,3.490000009536743,2.833912185543923,2.8420322700000002,2.86639252336823,2.833912185543923,2.844062291114019,0.02810388922305077,-2.0,11.375,0.0,0.0,0.0,0.0,0.0,snow covered,0.302256911993027,-7.06193399429321,100.0,415.538116455078
arenacam6_1769537067171530475.png,1769537067171530475,1769537067.1715305,42.300082499547955,-83.69860110186339,236.2643280029297,-0.6965394004407488,-0.7174821931006112,0.005304312235775464,0.004902090256743977,-0.0033400000000000005,-0.00286,0.0036000000000000008,0.7869,-0.2993,-9.741800000000001,1.2643973686977878,2.82838104993483,3.5299999713897705,3.5299999713897705,3.5799999237060547,3.559999942779541,2.86639252336823,2.86639252336823,2.906992945648613,2.89075277673646,2.8826326922803833,0.01918116455588737,-2.0,12.225000381469727,0.0,0.0,0.0,0.0,0.0,snow covered,0.302256911993027,-7.06193399429321,100.0,415.538116455078
arenacam6_1769537067191949791.png,1769537067191949791,1769537067.1919498,42.300082499547955,-83.69860110186339,236.2643280029297,-0.6965481007248503,-0.717474252229239,0.005294819499876398,0.004837938730689069,-0.0059900000000000005,-0.0032400000000000003,0.0012100000000000001,0.23450000000000001,-0.3511,-9.8804,1.2721082675376263,2.845629867985618,3.569999933242798,3.569999933242798,3.5999999046325684,3.5899999141693115,2.8988728611925363,2.8988728611925363,2.9232331145607664,2.91511303010469,2.9090229667626324,0.022277352191938337,-2.0,12.350000381469727,0.0,0.0,0.0,0.0,0.0,snow covered,0.302256911993027,-7.06193399429321,100.0,415.538116455078
arenacam6_1769537067213606409.png,1769537067213606409,1769537067.2136064,42.300083188015925,-83.69860115003983,236.26657104492188,-0.6965808361977751,-0.717443199682932,0.005254745988903541,0.004772998566623162,-0.0062900000000000005,-0.00136,0.0039000000000000007,0.6433,-0.0383,-9.7467,1.2815727889221562,2.8668014344515282,3.629999876022339,3.5999999046325684,3.619999885559082,3.629999876022339,2.947593367928996,2.9232331145607664,2.9394732834729194,2.947593367928996,2.9394732834729194,0.025349453278508835,-2.0,12.25,0.0,0.0,0.0,0.0,0.0,snow covered,0.302256911993027,-7.06193399429321,100.0,415.538116455078
arenacam6_1769537067274604105.png,1769537067274604105,1769537067.274604,42.30008389111181,-83.69860120221765,236.2686767578125,-0.6965995237765824,-0.71742698993928,0.005184574461461717,0.004553874016325856,-0.005320000000000001,-0.005510000000000001,-0.0004300000000000001,0.5517000000000001,-0.4016,-9.9643,1.313877593988536,2.9390653450967164,3.7200000286102295,3.7200000286102295,3.7099997997283936,3.7300000190734863,3.0206743216317706,3.0206743216317706,3.0125540435776093,3.028794406087847,3.0206742732322494,0.027766966213147424,-2.0,12.300000190734863,0.0,0.0,0.0,0.0,0.0,snow covered,0.302256911993027,-7.06193399429321,100.0,415.538116455078
arenacam6_1769537067357245033.png,1769537067357245033,1769537067.357245,42.30008485107911,-83.69860127780636,236.271484375,-0.6966241818862984,-0.7174067955469651,0.004936365011261524,0.004227435955308388,-0.010150000000000001,0.00158,0.0008000000000000001,0.4267,-0.2525,-9.704600000000001,1.3471696394823225,3.0135376533435867,3.7899999618530273,3.8499999046325684,3.819999933242798,3.8299999237060547,3.0775149128243067,3.1262354195607664,3.101875166192537,3.109995250648613,3.1039051873065557,0.02998719258168361,-2.0,11.375,0.0,0.0,0.0,0.0,0.0,snow covered,0.302256911993027,-7.06193399429321,100.0,415.538116455078
arenacam6_1769537067440533767.png,1769537067440533767,1769537067.4405339,42.300085589257804,-83.69860133737349,236.27392578125,-0.696678449988935,-0.717357010661795,0.004618632382595672,0.0040895978167688725,-0.009250000000000001,0.0027700000000000003,0.0033100000000000004,0.4999,0.10930000000000001,-10.0111,1.3872328510949186,3.1031566539282673,3.9599997997283936,3.93999981880188,3.990000009536743,3.990000009536743,3.215556348577609,3.199316179665456,3.239916795543923,3.239916795543923,3.2236765298327277,0.03883783171303806,-2.0,7.599999904632568,0.0,0.0,0.0,0.0,0.0,snow covered,0.302256911993027,-7.06193399429321,100.0,415.538116455078
arenacam6_1769537067460780107.png,1769537067460780107,1769537067.4607801,42.30008608969386,-83.69860137585924,236.27566528320312,-0.6966907352513261,-0.7173459316058425,0.004553438538115592,0.0040124831453905545,-0.01048,-0.00234,0.0012100000000000001,0.6345000000000001,-0.16060000000000002,-10.012400000000001,1.3994185610788143,3.1304153560196433,4.0,3.9800000190734863,4.029999732971191,4.029999732971191,3.24803688,3.231796711087847,3.272396939770146,3.272396939770146,3.256156867657035,0.04016767659780245,-2.0,6.650000095367432,0.0,0.0,0.0,0.0,0.0,snow covered,0.302256911993027,-7.06193399429321,100.0,415.538116455078
arenacam6_1769537067481732340.png,1769537067481732340,1769537067.4817324,42.30008634521346,-83.69860139368234,236.27662658691406,-0.6967159515063672,-0.7173225925672896,0.004442137761633823,0.003930460688779906,-0.006310000000000001,0.0029200000000000007,0.00037000000000000005,0.6222,0.16290000000000002,-9.7025,1.41635681850719,3.1683052215914738,4.019999980926514,3.9800000190734863,4.079999923706055,4.049999713897705,3.2642770489121533,3.231796711087847,3.312997555648613,3.2886371086822987,3.2744271060827277,0.033494842532231714,-2.0,6.0,0.0,0.0,0.0,0.0,0.0,snow covered,0.302256911993027,-7.06193399429321,100.0,415.538116455078
arenacam6_1769537067564338378.png,1769537067564338378,1769537067.5643384,42.30008738202581,-83.69860146389516,236.28016662597656,-0.6967560652649736,-0.7172833831376121,0.004472821798183559,0.003940514724639661,0.00256,-0.0028700000000000006,0.0005000000000000001,0.6861,-0.2,-9.7955,1.4649236881982328,3.276946395078155,4.170000076293945,4.170000076293945,4.150000095367432,4.170000076293945,3.386078509351387,3.386078509351387,3.369838340439234,3.386078509351387,3.382018467123349,0.032064019174377636,-2.0,5.425000190734863,0.0,0.0,0.0,0.0,0.0,snow covered,0.302256911993027,-7.06193399429321,100.0,415.538116455078
arenacam6_1769537067628288403.png,1769537067628288403,1769537067.6282885,42.30008818081767,-83.69860151198704,236.28269958496094,-0.6967922197724695,-0.7172479560485379,0.004455312358223942,0.00401524601237751,-0.0005700000000000001,0.0007600000000000002,0.0023300000000000005,0.46680000000000005,-0.0285,-9.6294,1.4979137550944412,3.3507431953209594,4.25,4.230000019073486,4.210000038146973,4.239999771118164,3.451039185,3.4347990160878465,3.4185588471756936,3.442918906945839,3.436828988802345,0.025691552131359242,-2.0,5.300000190734863,0.0,0.0,0.0,0.0,0.0,snow covered,0.302256911993027,-7.06193399429321,100.0,415.538116455078
arenacam6_1769537067688851690.png,1769537067688851690,1769537067.6888516,42.30008899564444,-83.6986015609838,236.28549194335938,-0.6968195373486402,-0.7172211555094061,0.004450943147207287,0.004066394481562269,0.007050000000000001,0.0004500000000000001,-0.0018200000000000002,0.5807,-0.1647,-9.719000000000001,1.528198119874231,3.4184875022714625,4.279999732971191,4.269999980926514,4.279999732971191,4.279999732971191,3.4753992447701454,3.4672793539121534,3.4753992447701454,3.4753992447701454,3.4733692720556473,0.01605440117821634,-2.0,5.050000190734863,0.0,0.0,0.0,0.0,0.0,snow covered,0.302256911993027,-7.06193399429321,100.0,415.538116455078
arenacam6_1769537067729873836.png,1769537067729873836,1769537067.729874,42.30008982612551,-83.69860161211473,236.28890991210938,-0.6968262647214544,-0.717214586064763,0.004553639100962501,0.003957107685510132,-0.00031,-0.010960000000000001,0.0005900000000000001,0.4228,0.044700000000000004,-9.9776,1.5523864400601661,3.4725953232281883,4.309999942779541,4.299999713897705,4.319999694824219,4.319999694824219,3.4997596917364597,3.4916394136822984,3.507879582594452,3.507879582594452,3.5017895676519153,0.00840703903171403,-2.0,5.425000190734863,0.0,0.0,0.0,0.0,0.0,snow covered,0.302256911993027,-7.06193399429321,100.0,415.538116455078
arenacam6_1769537067750824040.png,1769537067750824040,1769537067.750824,42.30008982612551,-83.69860161211473,236.28890991210938,-0.6968342383730293,-0.7172066420008424,0.004597226990802687,0.003942385692795703,0.0041400000000000005,-0.008470000000000002,0.0018200000000000002,0.2886,-0.0872,-9.9648,1.5552671020629578,3.479039191288713,4.329999923706055,4.329999923706055,4.360000133514404,4.339999675750732,3.5159998606486127,3.5159998606486127,3.540360307614927,3.524119751506605,3.5241199451046894,0.01295781718379476,-2.0,5.375,0.0,0.0,0.0,0.0,0.0,snow covered,0.302256911993027,-7.06193399429321,100.0,415.538116455078
arenacam6_1769537067791908448.png,1769537067791908448,1769537067.7919083,42.30009067043247,-83.69860166745542,236.29295349121094,-0.6968634050877655,-0.7171779217524497,0.004779131270281973,0.003792506377520651,0.004390000000000001,-0.01101,0.0009500000000000001,0.3012,-0.0325,-9.9352,1.5735207348863742,3.5198714726967264,4.380000114440918,4.380000114440918,4.360000133514404,4.400000095367432,3.556600476527081,3.556600476527081,3.540360307614927,3.572840645439234,3.556600476527081,0.010434757097029684,-2.0,5.400000095367432,0.0,0.0,0.0,0.0,0.0,snow covered,0.302256911993027,-7.06193399429321,100.0,415.538116455078
arenacam6_1769537067812842228.png,1769537067812842228,1769537067.8128421,42.30009067043247,-83.69860166745542,236.29295349121094,-0.6968717500802393,-0.717169557616714,0.00483116334134224,0.0037748415490890365,0.004940000000000001,-0.010060000000000001,0.0019600000000000004,0.2933,-0.3341,-9.7737,1.576575503390738,3.5267048065548776,4.400000095367432,4.400000095367432,4.400000095367432,4.429999828338623,3.572840645439234,3.572840645439234,3.572840645439234,3.5972007052093797,3.5789306603817703,0.01480868308848067,-2.0,5.5,0.0,0.0,0.0,0.0,0.0,snow covered,0.302256911993027,-7.06193399429321,100.0,415.538116455078
arenacam6_1769537067833485144.png,1769537067833485144,1769537067.8334851,42.30009095423743,-83.6986016873057,236.2942657470703,-0.6968886905099445,-0.7171530811859369,0.004896719045135896,0.003692333604229736,-0.0035300000000000006,-0.007110000000000001,0.00302,0.2169,-0.1588,-9.923,1.5813716698023756,3.5374335430477264,4.429999828338623,4.400000095367432,4.46999979019165,4.480000019073486,3.5972007052093797,3.572840645439234,3.6296810430336857,3.637801321087847,3.6093809286925365,0.020338865668928657,-2.0,5.175000190734863,0.0,0.0,0.0,0.0,0.0,snow covered,0.302256911993027,-7.06193399429321,100.0,415.538116455078
arenacam6_1769537067895872917.png,1769537067895872917,1769537067.895873,42.30009181115658,-83.69860174407236,236.2987518310547,-0.6969377642693977,-0.7171049743202181,0.005146161057758519,0.0034242614883258312,-0.00198,-0.009580000000000002,0.0016100000000000003,0.1723,0.21610000000000001,-9.8392,1.5981669041146673,3.575003474490264,4.489999771118164,4.46999979019165,4.569999694824219,4.489999771118164,3.645921211945839,3.6296810430336857,3.710881887594452,3.645921211945839,3.6581013386299537,0.023244135210676385,-2.0,5.550000190734863,0.0,0.0,0.0,0.0,0.0,snow covered,0.302256911993027,-7.06193399429321,100.0,415.538116455078
arenacam6_1769537067916118297.png,1769537067916118297,1769537067.9161184,42.300092386704556,-83.69860177740243,236.3014373779297,-0.6969576132049633,-0.7170844003988642,0.005383690648066113,0.0033262554393614667,0.00425,-0.00837,-0.0010400000000000001,0.44530000000000003,-0.4279,-9.2864,1.6121567234456218,3.6062978609444496,4.529999732971191,4.489999771118164,4.549999713897705,4.440000057220459,3.678401549770146,3.645921211945839,3.694641718682299,3.6053209832635402,3.656071365915456,0.013801828603800153,-2.0,5.525000095367432,0.0,0.0,0.0,0.0,0.0,snow covered,0.302256911993027,-7.06193399429321,100.0,415.538116455078
arenacam6_1769537068063260027.png,1769537068063260027,1769537068.0632598,42.300094441911575,-83.69860189989721,236.30703735351562,-0.6971153515378022,-0.7169298150926069,0.0056760703031435685,0.0030998560483324372,-0.0035100000000000005,-0.0010400000000000001,0.00808,0.0736,0.4732,-9.700700000000001,1.6502838012738041,3.6915858464214235,4.599999904632568,4.599999904632568,4.659999847412109,4.670000076293945,3.735242334560766,3.735242334560766,3.7839628412972264,3.7920831193513873,3.7616326574425365,0.018974720874774042,-2.0,5.5,0.0,0.0,0.0,0.0,0.0,snow covered,0.302256911993027,-7.06193399429321,100.0,415.538116455078
arenacam6_1769537068081863841.png,1769537068081863841,1769537068.0818639,42.300094441911575,-83.69860189989721,236.30703735351562,-0.6971270324158076,-0.7169181807767168,0.005692745953923911,0.003132952351456354,0.006980000000000001,0.00221,0.0028000000000000004,0.164,-0.0002,-9.847800000000001,1.6521472904109202,3.6957543598118043,4.639999866485596,4.599999904632568,4.659999847412109,4.619999885559082,3.767722672385073,3.735242334560766,3.7839628412972264,3.7514825034729196,3.7596025879289963,0.017276101683457994,-2.0,5.325000286102295,0.0,0.0,0.0,0.0,0.0,snow covered,0.302256911993027,-7.06193399429321,100.0,415.538116455078
arenacam6_1769537068143940425.png,1769537068143940425,1769537068.1439404,42.300095334019645,-83.69860195814731,236.3084716796875,-0.6972025002186651,-0.7168466070869708,0.005529081208383496,0.0030074669959207797,-0.009550000000000001,-0.00026000000000000003,0.0008100000000000001,0.222,-0.625,-10.0638,1.6666825518809811,3.7282688676046423,4.690000057220459,4.679999828338623,4.639999866485596,4.650000095367432,3.8083232882635407,3.8002030102093793,3.767722672385073,3.775842950439234,3.788022980324307,0.016027307804669065,-2.0,5.724999904632568,0.0,0.0,0.0,0.0,0.0,snow covered,0.302256911993027,-7.06193399429321,100.0,415.538116455078
arenacam6_1769537068164300356.png,1769537068164300356,1769537068.1643002,42.30009592993711,-83.69860199408453,236.30967712402344,-0.6972394467784437,-0.7168128211826471,0.005341183312946336,0.0028293117681415067,-0.018000000000000002,0.0015400000000000001,-0.0005200000000000001,0.1824,-0.1865,-9.6541,1.6736547744488233,3.743865311155551,4.699999809265137,4.699999809265137,4.650000095367432,4.71999979019165,3.8164431791215323,3.8164431791215323,3.775842950439234,3.832683348033686,3.8103531641789963,0.01775914662991003,-2.0,5.599999904632568,0.0,0.0,0.0,0.0,0.0,snow covered,0.302256911993027,-7.06193399429321,100.0,415.538116455078
arenacam6_1769537068206025596.png,1769537068206025596,1769537068.2060254,42.30009653148162,-83.69860203996498,236.31082153320312,-0.6972708603643957,-0.7167852501357519,0.005056939090125916,0.002584538945755945,-0.021990000000000003,0.0011900000000000003,0.0010000000000000002,0.0782,-0.3572,-9.6449,1.6813868378612962,3.761161473085448,4.690000057220459,4.690000057220459,4.739999771118164,4.730000019073486,3.8083232882635407,3.8083232882635407,3.848923516945839,3.8408036260878466,3.826593429890192,0.017396742275748913,-2.0,5.5,0.0,0.0,0.0,0.0,0.0,snow covered,0.302256911993027,-7.06193399429321,100.0,415.538116455078
arenacam6_1769537068269056330.png,1769537068269056330,1769537068.2690563,42.300097436962204,-83.69860211002593,236.312744140625,-0.6973401696424864,-0.7167216236181299,0.00461842065642976,0.002339280192824224,-0.010770000000000002,0.007740000000000001,0.00135,0.07930000000000001,-0.3458,-9.6905,1.6907434832556183,3.782091727433823,4.710000038146973,4.769999980926514,4.75,4.75,3.8245634571756937,3.8732839639121535,3.8570437950000005,3.8570437950000005,3.852983752771962,0.01874413167293541,-2.0,5.450000286102295,0.0,0.0,0.0,0.0,0.0,snow covered,0.302256911993027,-7.06193399429321,100.0,415.538116455078
arenacam6_1769537068288548412.png,1769537068288548412,1769537068.2885485,42.300097436962204,-83.69860211002593,236.312744140625,-0.6973743534963854,-0.7166906024748488,0.0043382750182602405,0.002184211437264015,-0.019290000000000005,0.005800000000000001,0.0040100000000000005,0.1844,0.5196000000000001,-10.0042,1.6966952920837985,3.7954055666739324,4.759999752044678,4.769999980926514,4.730000019073486,4.730000019073486,3.8651636858579925,3.8732839639121535,3.8408036260878466,3.8408036260878466,3.85501372548646,0.01570534631026652,-2.0,5.599999904632568,0.0,0.0,0.0,0.0,0.0,snow covered,0.302256911993027,-7.06193399429321,100.0,415.538116455078
arenacam6_1769537068309393255.png,1769537068309393255,1769537068.3093932,42.30009834895314,-83.69860218157429,236.3150177001953,-0.6973755515766389,-0.716690067901382,0.004253216685928505,0.002144010847325073,-0.007360000000000001,0.00493,-0.00128,0.17700000000000002,-0.1554,-9.8367,1.7007716462624942,3.804524126390424,4.759999752044678,4.75,4.739999771118164,4.75,3.8651636858579925,3.8570437950000005,3.848923516945839,3.8570437950000005,3.857043698200958,0.013804504864675993,-1.899999976158142,5.450000286102295,0.0,0.0,0.0,0.0,0.0,snow covered,0.302256911993027,-7.06193399429321,100.0,415.538116455078
arenacam6_1769537068392426023.png,1769537068392426023,1769537068.392426,42.30009926608223,-83.69860224598287,236.3175506591797,-0.697426208448268,-0.7166434626898357,0.00392656705068402,0.0018474914320299742,-0.012730000000000002,-0.0033000000000000004,0.0018900000000000002,0.0734,0.006500000000000001,-9.6594,1.7145373678983198,3.8353172197464676,4.779999732971191,4.759999752044678,4.799999713897705,4.819999694824219,3.8814038547701455,3.8651636858579925,3.8976440236822985,3.9138841925944523,3.889523939226222,0.014133568717775569,-1.8000000715255737,5.650000095367432,0.0,0.0,0.0,0.0,0.0,snow covered,0.302256911993027,-7.06193399429321,100.0,415.538116455078
arenacam6_1769537068413256589.png,1769537068413256589,1769537068.4132566,42.30009957226272,-83.69860226428786,236.31838989257812,-0.6974385150593229,-0.7166319582065561,0.0038618916832977544,0.0017999948637990669,-0.006300000000000001,0.0005000000000000001,0.00131,0.1378,0.3536,-9.441,1.7173641121110965,3.8416404769457966,4.829999923706055,4.809999942779541,4.799999713897705,4.799999713897705,3.922004470648613,3.90576430173646,3.8976440236822985,3.8976440236822985,3.9057642049374173,0.016691756653553567,-1.8000000715255737,5.450000286102295,0.0,0.0,0.0,0.0,0.0,snow covered,0.302256911993027,-7.06193399429321,100.0,415.538116455078
arenacam6_1769537068454531955.png,1769537068454531955,1769537068.454532,42.30010018805186,-83.69860230245615,236.31983947753906,-0.6974574977582432,-0.7166138465185312,0.003792922771163694,0.0018020920001932048,-0.0006700000000000001,0.007890000000000001,0.0013000000000000002,0.0693,0.27940000000000004,-9.5927,1.7203754297346356,3.848376613790596,4.859999656677246,4.809999942779541,4.789999961853027,4.779999732971191,3.9463645304187587,3.90576430173646,3.889524132824307,3.8814038547701455,3.9057642049374177,0.014912155671348291,-1.8000000715255737,5.700000286102295,0.0,0.0,0.0,0.0,0.0,snow covered,0.302256911993027,-7.06193399429321,100.0,415.538116455078
arenacam6_1769537068516320049.png,1769537068516320049,1769537068.51632,42.30010142380044,-83.69860236211468,236.32254028320312,-0.6974908200784726,-0.7165788337750988,0.00407298930331173,0.0021775329880416036,0.017660000000000006,7.000000000000002e-05,0.0021900000000000005,0.09380000000000001,0.3421,-9.6892,1.7326473246288288,3.8758281063552125,4.809999942779541,4.809999942779541,4.859999656677246,4.819999694824219,3.90576430173646,3.90576430173646,3.9463645304187587,3.9138841925944523,3.9179443316215323,0.010866381096019636,-1.8000000715255737,6.050000190734863,0.0,0.0,0.0,0.0,0.0,snow covered,0.302256911993027,-7.06193399429321,100.0,415.538116455078
arenacam6_1769537068581481991.png,1769537068581481991,1769537068.581482,42.300102669645476,-83.69860241443828,236.3251953125,-0.6975349189553582,-0.7165319621369206,0.004448761765590982,0.0026819009879462505,0.01794,0.008990000000000001,0.0017200000000000004,-0.023200000000000002,0.3629,-9.834100000000001,1.7368283352539375,3.8851807762629433,4.849999904632568,4.859999656677246,4.829999923706055,4.819999694824219,3.9382446395607666,3.9463645304187587,3.922004470648613,3.9138841925944523,3.9301244583056474,0.011567977046858096,-1.8000000715255737,7.075000286102295,0.0,0.0,0.0,0.0,0.0,snow covered,0.302256911993027,-7.06193399429321,100.0,415.538116455078
arenacam6_1769537068599167871.png,1769537068599167871,1769537068.5991678,42.300102669645476,-83.69860241443828,236.3251953125,-0.6975300182429279,-0.7165353969913213,0.004568207654525922,0.0028337232284602345,0.017510000000000005,0.0009800000000000002,-7.000000000000002e-05,0.1835,-0.1216,-9.831000000000001,1.741104711598493,3.894746773563133,4.859999656677246,4.849999904632568,4.819999694824219,4.849999904632568,3.9463645304187587,3.9382446395607666,3.9138841925944523,3.9382446395607666,3.9341845005336857,0.010125877050145867,-1.8000000715255737,7.099999904632568,0.0,0.0,0.0,0.0,0.0,snow covered,0.302256911993027,-7.06193399429321,100.0,415.538116455078
arenacam6_1769537068660843059.png,1769537068660843059,1769537068.660843,42.30010360445984,-83.69860245250723,236.3274688720703,-0.6975378559480092,-0.7165250933229977,0.00475874459433648,0.0031756114072437943,0.012040000000000002,-0.003790000000000001,0.00020000000000000004,0.09870000000000001,-0.3637,-10.183900000000001,1.748191183609657,3.9105987862637868,4.849999904632568,4.839999675750732,4.909999847412109,4.859999656677246,3.9382446395607666,3.9301243615066053,3.986965146297226,3.9463645304187587,3.950424669445839,0.010184088258284943,-1.8000000715255737,7.375,0.0,0.0,0.0,0.0,0.0,snow covered,0.302256911993027,-7.06193399429321,100.0,415.538116455078
arenacam6_1769537068785675282.png,1769537068785675282,1769537068.7856753,42.3001054790507,-83.69860255235268,236.3335418701172,-0.6975290152029227,-0.716530463686293,0.00509318839094921,0.0033803833452233528,-0.0035000000000000005,-0.0022800000000000003,5.000000000000001e-05,0.2584,-0.5547000000000001,-10.024700000000001,1.7597837505428344,3.936530662939288,4.880000114440918,4.889999866485596,4.880000114440918,4.940000057220459,3.962605086527081,3.970724977385073,3.962605086527081,4.01132559326354,3.9768151859256937,0.010233509258715204,-1.8000000715255737,7.349999904632568,0.0,0.0,0.0,0.0,0.0,snow covered,0.302256911993027,-7.06193399429321,100.0,415.538116455078
arenacam6_1769537068951243877.png,1769537068951243877,1769537068.9512439,42.30010831362892,-83.69860273963117,236.34576416015625,-0.6976380308155204,-0.7164283597092975,0.005074542527602385,0.002415032551344384,-0.006080000000000001,-0.00903,-0.0006100000000000001,0.0029000000000000002,0.0891,-9.6776,1.778988406934545,3.979490327008161,4.929999828338623,4.929999828338623,4.989999771118164,5.0,4.00320531520938,4.00320531520938,4.051925821945839,4.0600461,4.02959563809115,0.012590886512006901,-1.7000000476837158,7.224999904632568,0.0,0.0,0.0,0.0,0.0,snow covered,0.302256911993027,-7.06193399429321,100.0,415.538116455078
arenacam6_1769537068971789028.png,1769537068971789028,1769537068.9717891,42.30010831362892,-83.69860273963117,236.34576416015625,-0.6976431753402024,-0.7164232782197092,0.005101969208150056,0.002378284332044201,-0.0011400000000000002,-0.009120000000000001,0.0015300000000000003,-0.038400000000000004,0.527,-9.779300000000001,1.7789112215832104,3.979317668008347,4.960000038146973,4.929999828338623,4.960000038146973,4.960000038146973,4.027565762175694,4.00320531520938,4.027565762175694,4.027565762175694,4.021475650434116,0.010594274180394676,-1.7000000476837158,7.650000095367432,0.0,0.0,0.0,0.0,0.0,snow covered,0.302256911993027,-7.06193399429321,100.0,415.538116455078
arenacam6_1769537068992101686.png,1769537068992101686,1769537068.9921017,42.30010862868655,-83.69860275445194,236.34718322753906,-0.6976270027095554,-0.7164380631761345,0.0052277691890646105,0.002395235315627515,0.011800000000000001,-0.007000000000000001,-0.003650000000000001,0.3009,-0.313,-9.9295,1.7825180225643433,3.9873858653950824,4.980000019073486,4.960000038146973,4.980000019073486,4.920000076293945,4.043805931087847,4.027565762175694,4.043805931087847,3.995085424351387,4.027565762175693,0.01007675157032481,-1.600000023841858,7.675000190734863,0.0,0.0,0.0,0.0,0.0,snow covered,0.302256911993027,-7.06193399429321,100.0,415.538116455078
arenacam6_1769537069013479421.png,1769537069013479421,1769537069.0134795,42.30010926541676,-83.6986027888721,236.3500213623047,-0.6976453838053972,-0.7164187519045147,0.00543062534681825,0.002366153617168542,0.01251,-0.006810000000000001,0.0014700000000000002,-0.018000000000000002,0.18130000000000002,-9.538400000000001,1.784956509879804,3.992840615210529,5.019999980926514,5.0,5.029999732971191,4.960000038146973,4.0762862689121535,4.0600461,4.084406159770146,4.027565762175694,4.062076072714499,0.0173399001303034,-1.5,7.275000095367432,0.0,0.0,0.0,0.0,0.0,snow covered,0.302256911993027,-7.06193399429321,100.0,415.538116455078
arenacam6_1769537069054262686.png,1769537069054262686,1769537069.0542629,42.300109582343644,-83.69860280273524,236.35110473632812,-0.6976741912929342,-0.7163891443425385,0.005605309624239181,0.0024284101656209954,0.010230000000000003,-0.00496,0.004810000000000001,0.0729,0.0131,-9.4145,1.7910142309947956,4.006391373881498,5.029999732971191,5.029999732971191,5.079999923706055,5.0,4.084406159770146,4.084406159770146,4.125006775648613,4.0600461,4.0884662987972265,0.020485997811095544,-1.399999976158142,7.5,0.0,0.0,0.0,0.0,0.0,snow covered,0.302256911993027,-7.06193399429321,100.0,415.538116455078
arenacam6_1769537069077184637.png,1769537069077184637,1769537069.0771844,42.30010989890781,-83.69860281762377,236.35226440429688,-0.6977072732481355,-0.7163561180829024,0.005679246250812679,0.002493813118265031,8e-05,0.0008900000000000001,0.006520000000000001,-0.08610000000000001,-0.48550000000000004,-9.794400000000001,1.7905505577936547,4.005354164750938,5.039999961853027,5.039999961853027,5.099999904632568,5.0,4.092526437824306,4.092526437824306,4.141246944560766,4.0600461,4.096586480052345,0.02277759008286849,-1.399999976158142,7.425000190734863,0.0,0.0,0.0,0.0,0.0,snow covered,0.302256911993027,-7.06193399429321,100.0,415.538116455078
arenacam6_1769537069116125750.png,1769537069116125750,1769537069.1161256,42.30011085486513,-83.69860286668172,236.35487365722656,-0.6978155027513616,-0.7162511897479993,0.005580523272462889,0.0025719767584270596,-0.004000000000000001,0.00786,0.00693,-0.21960000000000002,-0.4893,-9.3819,1.7931616169977118,4.011194947526862,5.069999694824219,5.029999732971191,5.069999694824219,5.039999961853027,4.116886497594452,4.084406159770146,4.116886497594452,4.092526437824306,4.102676398195839,0.022806533181684532,-1.399999976158142,7.375,0.0,0.0,0.0,0.0,0.0,snow covered,0.302256911993027,-7.06193399429321,100.0,415.538116455078
arenacam6_1769537069240253078.png,1769537069240253078,1769537069.2402532,42.300112783250555,-83.6986029763644,236.35797119140625,-0.6979901938118984,-0.7160839804103539,0.005124742961582711,0.0026756964831649997,-0.01068,0.0021100000000000003,0.0021900000000000005,0.12390000000000001,-0.1512,-9.6484,1.821900060634269,4.075481121635222,5.099999904632568,5.099999904632568,5.109999656677246,5.139999866485596,4.141246944560766,4.141246944560766,4.149366835418759,4.173727282385073,4.1513970017313415,0.01862746454476513,-1.399999976158142,7.349999904632568,0.0,0.0,0.0,0.0,0.0,snow covered,0.302256911993027,-7.06193399429321,100.0,415.538116455078
arenacam6_1769537069282436368.png,1769537069282436368,1769537069.2824364,42.30011311164808,-83.6986030002064,236.35885620117188,-0.6980235444368088,-0.7160524630918627,0.005041196984247106,0.002566679745708666,-0.010230000000000003,-0.005070000000000001,0.0021000000000000003,-0.0543,-0.20650000000000002,-9.8796,1.8280795084183694,4.089304175561388,5.179999828338623,5.119999885559082,5.150000095367432,5.130000114440918,4.206207620209379,4.15748711347292,4.181847560439234,4.165607391527081,4.1777874214121535,0.021637726628300633,-1.2000000476837158,7.175000190734863,0.0,0.0,0.0,0.0,0.0,snow covered,0.302256911993027,-7.06193399429321,100.0,415.538116455078
arenacam6_1769537069364463361.png,1769537069364463361,1769537069.3644633,42.30011441437364,-83.69860307989116,236.36175537109375,-0.6980137795542155,-0.7160643949543566,0.004828699385939037,0.002286808546894182,-0.007540000000000001,-0.005070000000000001,-0.0007800000000000001,0.2909,-0.1477,-10.0006,1.8415910408980862,4.119528663026565,5.190000057220459,5.179999828338623,5.21999979019165,5.150000095367432,4.214327898263541,4.206207620209379,4.238687958033686,4.181847560439234,4.21026775923646,0.022026572365982867,-0.6000000238418579,7.450000286102295,0.0,0.0,0.0,0.0,0.0,snow covered,0.302256911993027,-7.06193399429321,100.0,415.538116455078
arenacam6_1769537069385072311.png,1769537069385072311,1769537069.3850725,42.30011441437364,-83.69860307989116,236.36175537109375,-0.6980326014035697,-0.7160463878475907,0.0048073337922273605,0.0022242684174745265,-0.0066900000000000015,-0.00491,0.00262,0.11180000000000001,-0.1718,-9.7186,1.845945422217233,4.129269152774617,5.190000057220459,5.179999828338623,5.21999979019165,5.179999828338623,4.214327898263541,4.206207620209379,4.238687958033686,4.206207620209379,4.216357774178997,0.021090565468676648,-0.5,7.474999904632568,0.0,0.0,0.0,0.0,0.0,snow covered,0.302256911993027,-7.06193399429321,100.0,415.538116455078
arenacam6_1769537069509964152.png,1769537069509964152,1769537069.509964,42.30011706244261,-83.69860324373352,236.3699188232422,-0.6983424227662578,-0.7157451289752154,0.004803004372790131,0.0019240743749945534,0.00034,-0.0025700000000000007,0.007980000000000001,0.185,0.3776,-9.9025,1.872628988391024,4.188958689291418,5.309999942779541,5.25,5.269999980926514,5.279999732971191,4.3117689117364595,4.263048405,4.279288573912154,4.287408464770145,4.28537858885469,0.023017629610375026,-0.10000000149011612,7.275000095367432,0.0,0.0,0.0,0.0,0.0,snow covered,0.302256911993027,-7.06193399429321,100.0,415.538116455078
arenacam6_1769537069530055412.png,1769537069530055412,1769537069.5300555,42.30011739635848,-83.698603260273,236.37086486816406,-0.6983671042505523,-0.7157205007375707,0.004881497254685876,0.0019296396585233252,0.005730000000000001,-0.006180000000000001,0.0027500000000000003,0.2048,-0.1446,-9.5214,1.878088311941688,4.20117086851484,5.259999752044678,5.309999942779541,5.339999675750732,5.269999980926514,4.271168295857993,4.3117689117364595,4.336128971506605,4.279288573912154,4.299588688253302,0.023426283485883114,-0.10000000149011612,7.175000190734863,0.0,0.0,0.0,0.0,0.0,snow covered,0.302256911993027,-7.06193399429321,100.0,415.538116455078
arenacam6_1769537069550730615.png,1769537069550730615,1769537069.5507305,42.30011772976722,-83.69860327603114,236.37179565429688,-0.6983823888075836,-0.715704896386224,0.004966776935306408,0.0019675922017316715,0.012010000000000002,-0.0013000000000000002,-0.00014000000000000004,0.1514,0.3206,-9.7196,1.881968920041075,4.209851555996683,5.279999732971191,5.299999713897705,5.309999942779541,5.319999694824219,4.287408464770145,4.3036486336822986,4.3117689117364595,4.319888802594452,4.305678703195839,0.02276259528976878,-0.10000000149011612,7.175000190734863,0.0,0.0,0.0,0.0,0.0,snow covered,0.302256911993027,-7.06193399429321,100.0,415.538116455078
arenacam6_1769537069612887075.png,1769537069612887075,1769537069.6128871,42.30011874047209,-83.69860332096349,236.3740997314453,-0.6983566717098101,-0.7157280323902246,0.0051520340891649825,0.002190724528079684,0.01251,0.0035100000000000005,-0.0029700000000000004,0.4984,-0.0839,-9.804,1.8939047125963444,4.236551207795267,5.349999904632568,5.339999675750732,5.389999866485596,5.329999923706055,4.344249249560766,4.336128971506605,4.376729587385073,4.328009080648613,4.346279222275264,0.025900315869686025,-0.10000000149011612,7.425000190734863,0.0,0.0,0.0,0.0,0.0,snow covered,0.302256911993027,-7.06193399429321,100.0,415.538116455078
arenacam6_1769537069633364609.png,1769537069633364609,1769537069.6333647,42.300119081331175,-83.69860333734441,236.37481689453125,-0.6983312256060378,-0.7157515592172348,0.005277725240643255,0.0023131013706315586,0.010000000000000002,0.0032600000000000003,-0.0024000000000000002,-0.0833,-0.043500000000000004,-9.4357,1.898931012486001,4.247794739070436,5.389999866485596,5.349999904632568,5.400000095367432,5.339999675750732,4.376729587385073,4.344249249560766,4.384849865439234,4.336128971506605,4.36048941847292,0.026530161254247748,-0.10000000149011612,7.425000190734863,0.0,0.0,0.0,0.0,0.0,snow covered,0.302256911993027,-7.06193399429321,100.0,415.538116455078
arenacam6_1769537069674907484.png,1769537069674907484,1769537069.6749074,42.30012010414107,-83.69860338246824,236.37625122070312,-0.6983151260125264,-0.715766501352561,0.005288765799576075,0.0025158060220837703,0.006540000000000001,0.007530000000000001,-0.00031,0.0431,-0.1791,-9.7714,1.9095493771372525,4.271547383693406,5.409999847412109,5.409999847412109,5.400000095367432,5.369999885559082,4.392969756297226,4.392969756297226,4.384849865439234,4.36048941847292,4.382819699126651,0.026049650264451336,-0.10000000149011612,7.450000286102295,0.0,0.0,0.0,0.0,0.0,snow covered,0.302256911993027,-7.06193399429321,100.0,415.538116455078
arenacam6_1769537069695648466.png,1769537069695648466,1769537069.6956484,42.30012010414107,-83.69860338246824,236.37625122070312,-0.6983185782227646,-0.7157630581208904,0.005282459791915298,0.0025502072297013084,0.003980000000000001,0.005790000000000001,0.0009000000000000002,0.0989,-0.3073,-9.7986,1.9108998357695564,4.274568278626352,5.429999828338623,5.409999847412109,5.400000095367432,5.349999904632568,4.40920992520938,4.392969756297226,4.384849865439234,4.344249249560766,4.382819699126651,0.025324527167240984,-0.10000000149011612,7.599999904632568,0.0,0.0,0.0,0.0,0.0,snow covered,0.302256911993027,-7.06193399429321,100.0,415.538116455078
arenacam6_1769537069716263856.png,1769537069716263856,1769537069.716264,42.30012078781919,-83.69860341576762,236.37686157226562,-0.6983670964983322,-0.7157160181938652,0.00517466732386776,0.0026837748220298733,-0.0006600000000000001,0.009020000000000002,0.0037600000000000008,0.0931,-0.1762,-9.6302,1.9204037614484182,4.295827990134425,5.409999847412109,5.380000114440918,5.420000076293945,5.369999885559082,4.392969756297226,4.368609696527081,4.4010900343513875,4.36048941847292,4.380789726412154,0.019777732365645714,-0.10000000149011612,7.700000286102295,0.0,0.0,0.0,0.0,0.0,snow covered,0.302256911993027,-7.06193399429321,100.0,415.538116455078
arenacam6_1769537069758050861.png,1769537069758050861,1769537069.758051,42.30012147883833,-83.69860345919223,236.37753295898438,-0.6984410259762767,-0.7156450693437648,0.00498742085831368,0.0027191157287553545,-0.01207,0.00795,0.00632,0.5076,-0.402,-9.8932,1.9297505543743343,4.316736205102123,5.409999847412109,5.409999847412109,5.449999809265137,5.409999847412109,4.392969756297226,4.392969756297226,4.4254500941215325,4.392969756297226,4.401089840753302,0.019541067983602514,-0.10000000149011612,7.474999904632568,0.0,0.0,0.0,0.0,0.0,snow covered,0.302256911993027,-7.06193399429321,100.0,415.538116455078
arenacam6_1769537069778211324.png,1769537069778211324,1769537069.7782114,42.30012147883833,-83.69860345919223,236.37753295898438,-0.6984676370767268,-0.715619671171122,0.004923257772331347,0.0026847201523778953,-0.013950000000000002,0.004030000000000001,0.00727,0.398,-0.23420000000000002,-10.000200000000001,1.934074344052955,4.326408263185818,5.449999809265137,5.46999979019165,5.449999809265137,5.449999809265137,4.4254500941215325,4.441690263033686,4.4254500941215325,4.4254500941215325,4.429510136349571,0.023830823836267535,-0.10000000149011612,7.800000190734863,0.0,0.0,0.0,0.0,0.0,snow covered,0.302256911993027,-7.06193399429321,100.0,415.538116455078
arenacam6_1769537069798940992.png,1769537069798940992,1769537069.798941,42.3001221722355,-83.6986035047345,236.3782958984375,-0.6985533476834271,-0.7155380629578373,0.004698036008385972,0.0025356175751018993,-0.017130000000000003,0.00316,0.00642,0.11910000000000001,-0.192,-9.8717,1.9426307568690635,4.345548445270683,5.509999752044678,5.519999980926514,5.460000038146973,5.449999809265137,4.474170600857992,4.482290878912154,4.433570372175694,4.4254500941215325,4.453870486516843,0.02492712775163004,-0.10000000149011612,7.300000190734863,0.0,0.0,0.0,0.0,0.0,snow covered,0.302256911993027,-7.06193399429321,100.0,415.538116455078
arenacam6_1769537069840491677.png,1769537069840491677,1769537069.8404918,42.30012286660752,-83.6986035515422,236.37913513183594,-0.6985977670947658,-0.7154968962511888,0.004416786689452717,0.002417283695099479,-0.017130000000000003,0.005680000000000001,0.0029900000000000005,0.1012,-0.5848,-10.0073,1.9452030370249562,4.351302481642606,5.529999732971191,5.5,5.440000057220459,5.449999809265137,4.490410769770146,4.46605071,4.41733020326354,4.4254500941215325,4.449810444288805,0.022638730141558063,-0.10000000149011612,7.425000190734863,0.0,0.0,0.0,0.0,0.0,snow covered,0.302256911993027,-7.06193399429321,100.0,415.538116455078
arenacam6_1769537069861317278.png,1769537069861317278,1769537069.8613174,42.300123216360554,-83.69860357687774,236.37973022460938,-0.698622324983595,-0.7154742569133709,0.004233086523213204,0.0023485542921509828,-0.015580000000000002,0.008640000000000002,0.0034100000000000007,0.0148,0.3108,-10.064400000000001,1.945418354074436,4.351784132963269,5.489999771118164,5.489999771118164,5.480000019073486,5.460000038146973,4.457930431945839,4.457930431945839,4.449810541087847,4.433570372175694,4.449810444288805,0.022525545461462654,-0.10000000149011612,7.349999904632568,0.0,0.0,0.0,0.0,0.0,snow covered,0.302256911993027,-7.06193399429321,100.0,415.538116455078
arenacam6_1769537069902906671.png,1769537069902906671,1769537069.9029067,42.30012356484511,-83.69860360151307,236.38027954101562,-0.6986193336385964,-0.7154783700789514,0.004066439171044696,0.0022787470238719377,-0.012800000000000002,0.0016800000000000003,0.00015000000000000001,0.1837,-0.2253,-10.041400000000001,1.9563355132288602,4.376205162962167,5.5,5.429999828338623,5.549999713897705,5.529999732971191,4.46605071,4.40920992520938,4.506650938682299,4.490410769770146,4.468080585915456,0.020994313459266736,0.0,7.275000095367432,0.0,0.0,0.0,0.0,0.0,snow covered,0.302256911993027,-7.06193399429321,100.0,415.538116455078
arenacam6_1769537069943729861.png,1769537069943729861,1769537069.9437299,42.300124616318165,-83.69860367699528,236.3826141357422,-0.6986510007332212,-0.7154490160487746,0.003815654529000571,0.002219321928847393,-0.013560000000000003,0.0006000000000000001,0.00319,0.3315,-0.11900000000000001,-10.117,1.9699795857500468,4.40672613454771,5.529999732971191,5.489999771118164,5.559999942779541,5.539999961853027,4.490410769770146,4.457930431945839,4.5147712167364595,4.498531047824307,4.490410866569188,0.018990227544527692,0.10000000149011612,7.400000095367432,0.0,0.0,0.0,0.0,0.0,snow covered,0.302256911993027,-7.06193399429321,100.0,415.538116455078
arenacam6_1769537070005861206.png,1769537070005861206,1769537070.005861,42.30012532172415,-83.69860372641882,236.38462829589844,-0.6987295735697956,-0.7153738163133888,0.0036313784961089658,0.0020246091987251237,-0.015500000000000002,-0.00041000000000000005,0.008180000000000002,0.24050000000000002,0.24530000000000002,-10.010900000000001,1.9771727650852395,4.422816845129776,5.559999942779541,5.529999732971191,5.569999694824219,5.559999942779541,4.5147712167364595,4.490410769770146,4.522891107594452,4.5147712167364595,4.510711077709379,0.019872908071332088,0.10000000149011612,6.974999904632568,0.0,0.0,0.0,0.0,0.0,snow covered,0.302256911993027,-7.06193399429321,100.0,415.538116455078
arenacam6_1769537070026698757.png,1769537070026698757,1769537070.0266988,42.300126386468534,-83.69860379938395,236.38804626464844,-0.6988063353316003,-0.7152996159196968,0.003587004945719222,0.0018161941174803587,-0.009650000000000002,-0.005710000000000001,0.007800000000000001,0.39130000000000004,-0.1705,-9.7852,1.9897338767792154,4.450915298322498,5.559999942779541,5.569999694824219,5.599999904632568,5.589999675750732,4.5147712167364595,4.522891107594452,4.547251554560767,4.539131276506605,4.531011288849571,0.017995397611196992,0.10000000149011612,6.849999904632568,0.0,0.0,0.0,0.0,0.0,snow covered,0.302256911993027,-7.06193399429321,100.0,415.538116455078
arenacam6_1769537070088719659.png,1769537070088719659,1769537070.0887196,42.30012674181166,-83.69860382142359,236.38917541503906,-0.6989315309275116,-0.7151785862716538,0.0034692696269629023,0.001506314063936575,-0.009720000000000003,-0.0072000000000000015,0.0049700000000000005,0.1336,0.2548,-9.6157,1.9976314332902225,4.468581658384231,5.619999885559082,5.579999923706055,5.62999963760376,5.589999675750732,4.56349172347292,4.531011385648613,4.571611614330912,4.539131276506605,4.551311499989763,0.01851366897375785,0.20000000298023224,6.800000190734863,0.0,0.0,0.0,0.0,0.0,snow covered,0.302256911993027,-7.06193399429321,100.0,415.538116455078
arenacam6_1769537070130200488.png,1769537070130200488,1769537070.1302006,42.300127814908464,-83.69860388571861,236.39222717285156,-0.6989715066350649,-0.7151392846092759,0.003502097853397457,0.001540075149275776,0.00792,0.0019300000000000003,0.0018900000000000002,0.38230000000000003,0.0334,-9.5051,1.999068202472456,4.471795624838736,5.62999963760376,5.62999963760376,5.619999885559082,5.589999675750732,4.571611614330912,4.571611614330912,4.56349172347292,4.539131276506605,4.561461557160337,0.020051437910880585,0.20000000298023224,6.700000286102295,0.0,0.0,0.0,0.0,0.0,snow covered,0.302256911993027,-7.06193399429321,100.0,415.538116455078
arenacam6_1769537070150562342.png,1769537070150562342,1769537070.1505623,42.3001281725555,-83.69860390475557,236.39300537109375,-0.6989821097787772,-0.7151286656204231,0.0035295727129534245,0.001594971356102197,0.00396,0.0029300000000000003,0.0009800000000000002,0.0577,0.34950000000000003,-9.8407,2.001879060134405,4.4780833447770565,5.62999963760376,5.609999656677246,5.670000076293945,5.609999656677246,4.571611614330912,4.555371445418758,4.604092339351387,4.555371445418758,4.571611711129953,0.0208858029545122,0.20000000298023224,6.950000286102295,0.0,0.0,0.0,0.0,0.0,snow covered,0.302256911993027,-7.06193399429321,100.0,415.538116455078
arenacam6_1769537070212664068.png,1769537070212664068,1769537070.2126641,42.30012925238985,-83.69860395447748,236.39523315429688,-0.6989911114610903,-0.7151178703567281,0.0037295473929963518,0.001986975362420713,0.018170000000000006,0.00425,0.0007700000000000001,0.2832,0.277,-9.987,2.014862363895504,4.507126216292408,5.659999847412109,5.639999866485596,5.639999866485596,5.639999866485596,4.595972061297226,4.579731892385073,4.579731892385073,4.579731892385073,4.583791934613111,0.01700988937109651,0.30000001192092896,7.050000190734863,0.0,0.0,0.0,0.0,0.0,snow covered,0.302256911993027,-7.06193399429321,100.0,415.538116455078
arenacam6_1769537070357793105.png,1769537070357793105,1769537070.357793,42.30013216029901,-83.69860410191521,236.4013214111328,-0.6991887882669379,-0.7149235164019617,0.0038619805687985023,0.0021187645813839423,-0.00459,0.0063300000000000006,0.0032900000000000004,-0.0302,-0.33890000000000003,-9.7867,2.0330579305216268,4.547828607101048,5.710000038146973,5.699999809265137,5.710000038146973,5.730000019073486,4.636572677175694,4.628452399121533,4.636572677175694,4.652812846087847,4.638602649890192,0.01995986450487787,0.5,6.825000286102295,0.0,0.0,0.0,0.0,0.0,snow covered,0.302256911993027,-7.06193399429321,100.0,415.538116455078
arenacam6_1769537070461334467.png,1769537070461334467,1769537070.4613345,42.30013362380635,-83.69860418639858,236.404296875,-0.6993165554988179,-0.7147992543930292,0.0036914942648646667,0.0021803656874332437,0.0037100000000000006,0.005330000000000001,0.0021000000000000003,-0.069,0.1096,-10.0189,2.040339424081545,4.564116871304972,5.71999979019165,5.739999771118164,5.730000019073486,5.739999771118164,4.644692568033686,4.660932736945839,4.652812846087847,4.660932736945839,4.654842722003303,0.019878073514885904,1.7000000476837158,7.025000095367432,0.0,0.0,0.0,0.0,0.0,snow covered,0.302256911993027,-7.06193399429321,100.0,415.538116455078
arenacam6_1769537070565209593.png,1769537070565209593,1769537070.5652096,42.30013582791771,-83.69860431327135,236.4095458984375,-0.6994264517721026,-0.7146920835316455,0.0035175405224130304,0.0023433325319454695,0.005470000000000001,-0.0016600000000000002,0.0011300000000000001,0.08850000000000001,0.1355,-9.933900000000001,2.0531854370304647,4.592852631510928,5.759999752044678,5.699999809265137,5.75,5.710000038146973,4.677172905857993,4.628452399121533,4.669053015,4.636572677175694,4.652812749288804,0.013055092899453922,3.0,8.90000057220459,0.0,0.0,0.0,0.0,0.0,snow covered,0.302256911993027,-7.06193399429321,100.0,415.538116455078
arenacam6_1769537070585406829.png,1769537070585406829,1769537070.5854068,42.30013582791771,-83.69860431327135,236.4095458984375,-0.6994359759079565,-0.714682469665426,0.0035522014934542255,0.002380130912736792,0.01012,0.0004300000000000001,0.0026500000000000004,0.1356,0.151,-9.9353,2.05473265637296,4.596313668346929,5.739999771118164,5.710000038146973,5.789999961853027,5.71999979019165,4.660932736945839,4.636572677175694,4.701533352824307,4.644692568033686,4.660932833744882,0.0140589111319709,3.0,9.074999809265137,0.0,0.0,0.0,0.0,0.0,snow covered,0.302256911993027,-7.06193399429321,100.0,415.538116455078
arenacam6_1769537070627503189.png,1769537070627503189,1769537070.6275032,42.30013693667393,-83.69860436388801,236.4125518798828,-0.6994550231897305,-0.7146621737331272,0.0038248181061437798,0.002453311262423452,0.00954,-0.008280000000000001,0.00185,0.14350000000000002,0.02,-10.0158,2.061192120018218,4.6107631009535535,5.779999732971191,5.769999980926514,5.75,5.71999979019165,4.693413074770145,4.685293183912153,4.669053015,4.644692568033686,4.6731129604289965,0.013522676856364282,3.0,9.350000381469727,0.0,0.0,0.0,0.0,0.0,snow covered,0.302256911993027,-7.06193399429321,100.0,415.538116455078
arenacam6_1769537070647592130.png,1769537070647592130,1769537070.6475923,42.30013730776401,-83.69860438212602,236.41375732421875,-0.6994783691614118,-0.7146386685249768,0.003965808218515137,0.002420101095773819,0.007260000000000001,-0.015400000000000002,0.00445,0.0077,-0.1236,-9.6796,2.063992492518485,4.6170273662143,5.759999752044678,5.75,5.789999961853027,5.75,4.677172905857993,4.669053015,4.701533352824307,4.669053015,4.679203072170575,0.013466609795569651,3.0,9.40000057220459,0.0,0.0,0.0,0.0,0.0,snow covered,0.302256911993027,-7.06193399429321,100.0,415.538116455078
arenacam6_1769537070668092804.png,1769537070668092804,1769537070.668093,42.300138048805415,-83.6986044137759,236.4158477783203,-0.6995357840357637,-0.7145819492526643,0.004099217474612879,0.0023496961139145823,-0.0009500000000000001,-0.008270000000000001,0.007720000000000001,0.1847,-0.219,-9.8538,2.06458314630055,4.618348623285553,5.769999980926514,5.739999771118164,5.779999732971191,5.75,4.685293183912153,4.660932736945839,4.693413074770145,4.669053015,4.677173002657034,0.01273710240818349,3.0,9.600000381469727,0.0,0.0,0.0,0.0,0.0,snow covered,0.302256911993027,-7.06193399429321,100.0,415.538116455078
arenacam6_1769537070709670380.png,1769537070709670380,1769537070.7096703,42.300138420959726,-83.69860443338618,236.41714477539062,-0.6995899502876294,-0.7145286949570631,0.004232607445084986,0.002174988212471254,-0.0022600000000000003,-0.014390000000000002,0.0053100000000000005,0.13720000000000002,-0.23600000000000002,-9.797600000000001,2.0709560616231695,4.632604452487333,5.769999980926514,5.75,5.759999752044678,5.799999713897705,4.685293183912153,4.669053015,4.677172905857993,4.7096532436822995,4.685293087113112,0.011373436943767088,3.0,10.125,0.0,0.0,0.0,0.0,0.0,snow covered,0.302256911993027,-7.06193399429321,100.0,415.538116455078
arenacam6_1769537070751196556.png,1769537070751196556,1769537070.7511966,42.30013954033407,-83.69860448854412,236.42071533203125,-0.6996683592348087,-0.7144520230986561,0.004412714188922845,0.0017383122260641337,-0.009550000000000001,-0.020820000000000005,0.0053100000000000005,0.2283,-0.0671,-9.6608,2.082812439464722,4.659126458336216,5.75,5.809999942779541,5.799999713897705,5.819999694824219,4.669053015,4.7177735217364605,4.7096532436822995,4.725893412594452,4.705593298253303,0.009973294421736079,3.0,10.90000057220459,0.0,0.0,0.0,0.0,0.0,snow covered,0.302256911993027,-7.06193399429321,100.0,415.538116455078
arenacam6_1769537070874991208.png,1769537070874991208,1769537070.8749912,42.300141423387814,-83.69860458031212,236.4262237548828,-0.6996812269038858,-0.7144310074416389,0.005775148427356937,0.0010788812910535114,0.023660000000000004,-0.019910000000000004,-0.0023000000000000004,-0.1651,0.2044,-9.5373,2.1058780568338755,4.71072286045397,5.929999828338623,5.940000057220459,5.940000057220459,5.940000057220459,4.815214535209379,4.82333481326354,4.82333481326354,4.82333481326354,4.82130474375,0.023474504141254703,3.1000001430511475,12.175000190734863,0.0,0.0,0.0,0.0,0.0,snow covered,0.302256911993027,-7.06193399429321,100.0,415.538116455078
arenacam6_1769537070979037879.png,1769537070979037879,1769537070.979038,42.30014331765549,-83.698604653845,236.42825317382812,-0.699651162849671,-0.7144516242098424,0.006587085139064032,0.001933208833003883,0.01289,0.015330000000000002,-0.00096,0.1085,0.040400000000000005,-9.8321,2.1178709003460066,4.737550131819996,6.009999752044678,5.980000019073486,6.019999980926514,5.96999979019165,4.880175210857993,4.855815151087847,4.888295488912154,4.847694873033686,4.86799518097292,0.027534283653650994,3.200000047683716,12.475000381469727,0.0,0.0,0.0,0.0,0.0,snow covered,0.302256911993027,-7.06193399429321,100.0,415.538116455078
arenacam6_1769537071040384874.png,1769537071040384874,1769537071.0403848,42.300144848151874,-83.69860470389395,236.4287109375,-0.6996631781397082,-0.7144376367919362,0.006591039152867109,0.002618872559277234,0.017240000000000002,0.01043,0.0009200000000000001,0.3658,0.4464,-10.1364,2.147784303258999,4.804464619332186,6.089999675750732,6.089999675750732,6.099999904632568,6.069999694824219,4.9451358865066055,4.9451358865066055,4.9532561645607665,4.928895717594452,4.943105913792108,0.028856762500041672,3.200000047683716,12.324999809265137,0.0,0.0,0.0,0.0,0.0,snow covered,0.302256911993027,-7.06193399429321,100.0,415.538116455078
arenacam6_1769537071185402777.png,1769537071185402777,1769537071.1854029,42.30014798398898,-83.69860481863645,236.43417358398438,-0.6997105370750273,-0.7143753625291871,0.007677403716149721,0.0037500919520372746,0.0076500000000000005,-0.00027000000000000006,0.00289,0.31220000000000003,-0.5198,-9.9669,2.2080128565789225,4.939192279395655,6.25,6.230000019073486,6.230000019073486,6.210000038146973,5.075057625,5.058817456087847,5.058817456087847,5.0425772871756935,5.058817456087847,0.024219582864028248,3.200000047683716,12.100000381469727,0.0,0.0,0.0,0.0,0.0,snow covered,0.302256911993027,-7.06193399429321,100.0,415.538116455078
arenacam6_1769537071206468663.png,1769537071206468663,1769537071.2064686,42.30014798398898,-83.69860481863645,236.43417358398438,-0.6997208237254622,-0.714365288440192,0.007670768326416014,0.0037633535582529956,0.0009500000000000001,0.0028500000000000005,0.0028300000000000005,0.30910000000000004,-0.5575,-9.7255,2.211601849850775,4.947220642005193,6.239999771118164,6.25,6.259999752044678,6.279999732971191,5.0669373469458385,5.075057625,5.083177515857992,5.099417684770146,5.081147543143494,0.027071139702396347,3.1000001430511475,12.27500057220459,0.0,0.0,0.0,0.0,0.0,snow covered,0.302256911993027,-7.06193399429321,100.0,415.538116455078
arenacam6_1769537071247791153.png,1769537071247791153,1769537071.247791,42.30014878295941,-83.69860485884094,236.43603515625,-0.6997837748093474,-0.7143049603496806,0.00758613651951851,0.003680036158641684,-0.0068000000000000005,-0.00058,0.0037700000000000003,0.4138,-0.2497,-9.8718,2.2320806881758144,4.993030574608007,6.289999961853027,6.309999942779541,6.339999675750732,6.359999656677246,5.107537962824306,5.12377813173646,5.148138191506605,5.164378360418758,5.135958161621533,0.028625417945642564,3.1000001430511475,12.449999809265137,0.0,0.0,0.0,0.0,0.0,snow covered,0.301835805177689,-6.68777084350586,100.0,424.401519775391
arenacam6_1769537071268171155.png,1769537071268171155,1769537071.2681713,42.30014878295941,-83.69860485884094,236.43603515625,-0.6998149968456786,-0.7142758143691611,0.007529114530320463,0.003513350472673879,-0.01518,-0.006530000000000001,0.00534,0.2594,-0.6094,-10.080300000000001,2.244493909081289,5.0207982049802995,6.339999675750732,6.349999904632568,6.309999942779541,6.369999885559082,5.148138191506605,5.1562584695607665,5.12377813173646,5.17249863847292,5.150168357819188,0.025766849723329297,3.1000001430511475,12.074999809265137,0.0,0.0,0.0,0.0,0.0,snow covered,0.301835805177689,-6.68777084350586,100.0,424.401519775391
arenacam6_1769537071311224504.png,1769537071311224504,1769537071.3112245,42.30014999356894,-83.69860492702796,236.4387664794922,-0.6998556248718163,-0.7142377367916755,0.007455455536799964,0.0033129836588381583,-0.007140000000000001,-0.004370000000000001,0.0033900000000000007,0.2932,0.0238,-9.4648,2.254109392883469,5.042307465316748,6.37999963760376,6.389999866485596,6.389999866485596,6.339999675750732,5.180618529330912,5.188738807385073,5.188738807385073,5.148138191506605,5.176558583901916,0.02662493699731872,3.1000001430511475,12.074999809265137,0.0,0.0,0.0,0.0,0.0,snow covered,0.301835805177689,-6.68777084350586,100.0,424.401519775391
arenacam6_1769537071330086220.png,1769537071330086220,1769537071.3300862,42.3001503999366,-83.69860495057864,236.4394073486328,-0.6998628888188071,-0.7142316034189349,0.007405594907067171,0.003211027231837316,-0.013670000000000002,-0.0028200000000000005,0.0016000000000000003,0.1902,-0.4449,-9.592,2.2603833063609864,5.056341833331145,6.399999618530273,6.389999866485596,6.420000076293945,6.460000038146973,5.196858698243065,5.188738807385073,5.213099254351387,5.245579592175694,5.211069088038805,0.030600631802166853,3.1000001430511475,12.475000381469727,0.0,0.0,0.0,0.0,0.0,snow covered,0.301835805177689,-6.68777084350586,100.0,424.401519775391
arenacam6_1769537071350783209.png,1769537071350783209,1769537071.3507833,42.3001508067828,-83.69860497116737,236.44015502929688,-0.6998764228290923,-0.7142195496820994,0.007318901617377548,0.003140270524567962,-0.007490000000000002,-0.0009000000000000002,0.00198,0.5018,0.43260000000000004,-9.8843,2.2693352794722252,5.0763668600626,6.399999618530273,6.440000057220459,6.440000057220459,6.46999979019165,5.196858698243065,5.229339423263541,5.229339423263541,5.253699483033686,5.227309256950958,0.029734335805371038,3.0,12.300000190734863,0.0,0.0,0.0,0.0,0.0,snow covered,0.301835805177689,-6.68777084350586,100.0,424.401519775391
arenacam6_1769537071413003471.png,1769537071413003471,1769537071.4130034,42.300152039637496,-83.69860503770366,236.443115234375,-0.6998430379443306,-0.7142508358801972,0.007473156547388225,0.0031012282257214,0.011420000000000001,-0.0033200000000000005,-0.0030700000000000002,0.3095,0.16240000000000002,-9.4068,2.2984001141515082,5.141383151350075,6.5,6.5,6.519999980926514,6.539999961853027,5.2780599299999995,5.2780599299999995,5.294300098912153,5.310540267824307,5.290240056684115,0.0289526963760621,3.0,12.475000381469727,0.0,0.0,0.0,0.0,0.0,snow covered,0.301835805177689,-6.68777084350586,100.0,424.401519775391
arenacam6_1769537071454474541.png,1769537071454474541,1769537071.4544744,42.30015287039125,-83.69860507915354,236.44496154785156,-0.6997867060753503,-0.7143046311730594,0.007613561331014015,0.0030811635447726177,-0.0017500000000000003,-0.006280000000000001,-0.0027100000000000006,0.4269,0.0898,-9.5601,2.321848352675101,5.1938354540330405,6.609999656677246,6.609999656677246,6.559999942779541,6.599999904632568,5.367380665418758,5.367380665418758,5.32678043673646,5.3592607745607665,5.355200635533686,0.03106859717231602,3.0,12.449999809265137,0.0,0.0,0.0,0.0,0.0,snow covered,0.301835805177689,-6.68777084350586,100.0,424.401519775391
arenacam6_1769537071537580562.png,1769537071537580562,1769537071.5375805,42.30015454940378,-83.69860515561618,236.44760131835938,-0.6997173141864759,-0.7143731258434521,0.0076525438505865104,0.0028558488990808525,-0.0028700000000000006,-0.00032,-0.00011000000000000002,0.3186,-0.0733,-9.9251,2.3564752287828994,5.271293698273619,6.649999618530273,6.649999618530273,6.62999963760376,6.639999866485596,5.399861003243066,5.399861003243066,5.3836208343309115,5.391741112385073,5.393770988300529,0.02323476873751543,3.0,12.15000057220459,0.0,0.0,0.0,0.0,0.0,snow covered,0.301835805177689,-6.68777084350586,100.0,424.401519775391
arenacam6_1769537071681938077.png,1769537071681938077,1769537071.6819382,42.30015798387817,-83.69860530484085,236.45277404785156,-0.699564601722967,-0.7145103734839937,0.008649709807230198,0.003078428203046935,0.009150000000000002,-0.007430000000000001,-0.0016800000000000003,0.2285,-0.4884,-9.9265,2.4205702509132148,5.414670417077807,6.799999713897705,6.789999961853027,6.759999752044678,6.799999713897705,5.521662463682299,5.513542572824306,5.489182125857993,5.521662463682299,5.511512406511724,0.017885112476740603,3.0,12.574999809265137,0.0,0.0,0.0,0.0,0.0,snow covered,0.301835805177689,-6.68777084350586,100.0,424.401519775391
arenacam6_1769537071726242107.png,1769537071726242107,1769537071.726242,42.300158855745615,-83.69860534892513,236.45423889160156,-0.6995639238634485,-0.7145098111765456,0.00872471993222027,0.003150463987542927,0.00792,0.0021900000000000005,-0.003790000000000001,0.49410000000000004,-0.3502,-9.4921,2.437598424619362,5.452761419968035,6.839999675750732,6.819999694824219,6.889999866485596,6.940000057220459,5.554142801506606,5.537902632594451,5.5947434173850725,5.63534403326354,5.580533221187417,0.023432494359918392,3.0,13.850000381469727,0.0,0.0,0.0,0.0,0.0,snow covered,0.301835805177689,-6.68777084350586,100.0,424.401519775391
arenacam6_1769537071764721371.png,1769537071764721371,1769537071.7647214,42.30016017298599,-83.69860542067947,236.45692443847656,-0.699585375270887,-0.7144879144031631,0.008825949428078725,0.0030700970022893175,0.004090000000000001,-0.011400000000000002,-0.0038500000000000006,0.6286,-0.6985,-9.7005,2.4532674563606878,5.4878121038314776,6.87999963760376,6.869999885559082,6.909999847412109,6.909999847412109,5.586623139330912,5.578503248472919,5.610983586297227,5.610983586297227,5.596773390099571,0.019855141576734927,3.0,14.375,0.0,0.0,0.0,0.0,0.0,snow covered,0.301835805177689,-6.68777084350586,100.0,424.401519775391
arenacam6_1769537071786095227.png,1769537071786095227,1769537071.7860951,42.30016017298599,-83.69860542067947,236.45692443847656,-0.6995755974956062,-0.7144974908533718,0.008843136267554215,0.0030195850468303885,-0.004570000000000001,-0.009620000000000002,-0.0027100000000000006,0.12510000000000002,-0.9833000000000001,-9.9319,2.4553230975739275,5.492410449887021,6.899999618530273,6.899999618530273,6.889999866485596,6.949999809265137,5.602863308243065,5.602863308243065,5.5947434173850725,5.643463924121533,5.610983489498184,0.021588524873191493,3.0,14.625,0.0,0.0,0.0,0.0,0.0,snow covered,0.301835805177689,-6.68777084350586,100.0,424.401519775391
arenacam6_1769537071807092282.png,1769537071807092282,1769537071.8070922,42.30016061461193,-83.69860544498432,236.458251953125,-0.699611355885532,-0.7144633507702371,0.008830535363368867,0.0028447789666039822,-0.00936,-0.013500000000000002,0.005880000000000001,0.2093,0.6856,-10.586500000000001,2.460821172970768,5.50470931466523,6.929999828338623,6.909999847412109,6.899999618530273,6.980000019073486,5.627223755209379,5.610983586297227,5.602863308243065,5.667824371087846,5.627223755209379,0.022256296116809602,3.0,14.975000381469727,0.0,0.0,0.0,0.0,0.0,snow covered,0.301835805177689,-6.68777084350586,100.0,424.401519775391
arenacam6_1769537071847424955.png,1769537071847424955,1769537071.847425,42.3001610578966,-83.69860547036448,236.45928955078125,-0.6995844878398095,-0.71448811971373,0.009055437559717576,0.0025040392273383695,-0.006810000000000001,-0.019180000000000003,2e-05,0.0661,0.6751,-9.8865,2.4851281782652626,5.559082627088697,6.960000038146973,6.989999771118164,7.029999732971191,7.009999752044678,5.651584202175694,5.675944261945839,5.7084245997701455,5.692184430857993,5.682034373687417,0.022117272731222257,3.0,15.975000381469727,0.0,0.0,0.0,0.0,0.0,snow covered,0.301835805177689,-6.68777084350586,100.0,424.401519775391
arenacam6_1769537071868810373.png,1769537071868810373,1769537071.8688104,42.30016239755707,-83.69860554843821,236.46372985839844,-0.6995453296461303,-0.7145243915525067,0.009226332940680057,0.0024699043048131016,0.01182,-0.014940000000000002,-0.006600000000000001,0.4409,-0.46080000000000004,-9.708400000000001,2.495303203069313,5.58184354707387,7.0,7.029999732971191,7.109999656677246,6.980000019073486,5.6840645400000005,5.7084245997701455,5.773385275418759,5.667824371087846,5.708424696569187,0.02267730158106528,3.0,15.90000057220459,0.0,0.0,0.0,0.0,0.0,snow covered,0.301835805177689,-6.68777084350586,100.0,424.401519775391
arenacam6_1769537071889799472.png,1769537071889799472,1769537071.8897994,42.30016239755707,-83.69860554843821,236.46372985839844,-0.6995376267500905,-0.7145309883625692,0.009310064928152714,0.0024286048452935934,0.006740000000000001,-0.01795,-0.0025000000000000005,0.2846,-0.5940000000000001,-9.400500000000001,2.4990204638043894,5.590158836302591,7.039999961853027,7.029999732971191,7.089999675750732,7.109999656677246,5.716544877824306,5.7084245997701455,5.757145106506605,5.773385275418759,5.738874964879955,0.02660320268747966,3.0,15.975000381469727,0.0,0.0,0.0,0.0,0.0,snow covered,0.301835805177689,-6.68777084350586,100.0,424.401519775391
arenacam6_1769537071950755117.png,1769537071950755117,1769537071.9507551,42.30016374697335,-83.69860562385384,236.46798706054688,-0.6994374525245426,-0.7146268164933832,0.009545079197159445,0.00215745628712018,-0.00642,-0.005960000000000001,-0.0035300000000000006,0.2738,-0.1806,-9.3424,2.5223343725207403,5.642310651266545,7.149999618530273,7.170000076293945,7.269999980926514,7.190000057220459,5.805865613243065,5.822106169351388,5.903307013912154,5.83834633826354,5.8424062836925374,0.035463420005255576,3.0,16.100000381469727,0.0,0.0,0.0,0.0,0.0,snow covered,0.301835805177689,-6.68777084350586,100.0,424.401519775391
arenacam6_1769537071971569876.png,1769537071971569876,1769537071.97157,42.30016374697335,-83.69860562385384,236.46798706054688,-0.6994044517173468,-0.7146594467516735,0.009536606048918348,0.0020835622422048857,-0.00505,1e-05,-0.00412,0.3039,-0.1452,-9.541400000000001,2.529471430247206,5.6582758211771855,7.179999828338623,7.159999847412109,7.289999961853027,7.259999752044678,5.83022606020938,5.813985891297226,5.9195471828243065,5.895186735857992,5.864736467547226,0.03648826124688412,3.1000001430511475,16.149999618530273,0.0,0.0,0.0,0.0,0.0,snow covered,0.301835805177689,-6.68777084350586,100.0,424.401519775391
arenacam6_1769537071992685012.png,1769537071992685012,1769537071.992685,42.30016511032608,-83.69860570170788,236.4715118408203,-0.699376855987884,-0.7146871771069176,0.009502094070768411,0.0019905767300487432,-0.012790000000000001,-0.007070000000000001,-0.00459,0.5996,-0.6507000000000001,-9.348600000000001,2.5439630944431553,5.690692804483672,7.289999961853027,7.259999752044678,7.329999923706055,7.329999923706055,5.9195471828243065,5.895186735857992,5.952027520648613,5.952027520648613,5.929697239994882,0.0419991807188923,3.1000001430511475,15.875,0.0,0.0,0.0,0.0,0.0,snow covered,0.301835805177689,-6.68777084350586,100.0,424.401519775391
arenacam6_1769537072033762582.png,1769537072033762582,1769537072.0337625,42.30016556984571,-83.69860572822316,236.4722137451172,-0.699362502048513,-0.7147040560152224,0.009309662494218123,0.001879688292537773,-0.011640000000000001,0.006980000000000001,-0.00229,0.6696000000000001,-0.0553,-8.9133,2.5584379978372493,5.723072294882057,7.369999885559082,7.389999866485596,7.329999923706055,7.389999866485596,5.98450785847292,6.0007480273850735,5.952027520648613,6.0007480273850735,5.98450785847292,0.045680982192843535,3.1000001430511475,15.975000381469727,0.0,0.0,0.0,0.0,0.0,snow covered,0.301835805177689,-6.68777084350586,100.0,424.401519775391
arenacam6_1769537072095971772.png,1769537072095971772,1769537072.0959718,42.300166491828584,-83.69860578522774,236.47286987304688,-0.6993354277716283,-0.7147376928784335,0.008727892997079083,0.0019528763707744893,-0.006830000000000001,0.022750000000000003,0.00017,0.5135000000000001,-0.7293000000000001,-8.9695,2.5982480744886387,5.8121250477466155,7.489999771118164,7.480000019073486,7.449999809265137,7.409999847412109,6.08194887194584,6.073828981087847,6.049468534121532,6.016988196297226,6.055558645863112,0.04188375097175112,3.299999952316284,15.800000190734863,0.0,0.0,0.0,0.0,0.0,snow covered,0.301835805177689,-6.68777084350586,100.0,424.401519775391
arenacam6_1769537072137143443.png,1769537072137143443,1769537072.1371436,42.30016836205467,-83.69860590058515,236.47059631347656,-0.6993350408997784,-0.7147409387527579,0.008375304139967203,0.0023969399439242845,0.014650000000000003,0.02909,-0.00506,0.7050000000000001,-0.0857,-9.912,2.6246413880301276,5.871165306540114,7.559999942779541,7.559999942779541,7.460000038146973,7.509999752044678,6.13878965673646,6.13878965673646,6.057588812175694,6.098189040857992,6.108339291626652,0.040396407306457695,3.5,15.574999809265137,0.0,0.0,0.0,0.0,0.0,snow covered,0.301835805177689,-6.68777084350586,100.0,424.401519775391
arenacam6_1769537072281828737.png,1769537072281828737,1769537072.2818289,42.30017172794851,-83.69860607139341,236.46983337402344,-0.6991224691236432,-0.7149382955791608,0.008520972454781346,0.004289488227059217,0.012050000000000002,-0.0037700000000000003,-0.007260000000000001,0.8417,-0.2973,-10.6396,2.7323620987650985,6.1121300732116,7.71999979019165,7.759999752044678,7.690000057220459,7.730000019073486,6.268711008033685,6.301191345857993,6.24435094826354,6.276831286087847,6.272771147060767,0.026282338877771698,4.400000095367432,15.574999809265137,0.0,0.0,0.0,0.0,0.0,snow covered,0.301835805177689,-6.68777084350586,100.0,424.401519775391
arenacam6_1769537072303356964.png,1769537072303356964,1769537072.303357,42.300172217571955,-83.69860609767649,236.4708709716797,-0.6991039976634095,-0.7149559765833579,0.008590937056821108,0.004212813698929852,-0.005930000000000001,-0.013590000000000001,0.0005400000000000001,0.4889,-0.5384,-10.8917,2.746457493577894,6.143660625684134,7.75,7.739999771118164,7.819999694824219,7.819999694824219,6.293071455000001,6.28495117694584,6.349911852594452,6.349911852594452,6.319461584283686,0.028615017871364754,4.400000095367432,15.625,0.0,0.0,0.0,0.0,0.0,snow covered,0.301835805177689,-6.68777084350586,100.0,424.401519775391
arenacam6_1769537072427060390.png,1769537072427060390,1769537072.4270604,42.30017521709547,-83.69860624246112,236.48341369628906,-0.6989449784120336,-0.7150978640240592,0.009855485953719847,0.0037190613662546833,0.005110000000000001,-0.017450000000000004,-0.0016800000000000003,0.2671,-0.0339,-9.6807,2.813643068350974,6.293950725317028,7.980000019073486,7.96999979019165,8.010000228881836,8.019999504089355,6.479833591087846,6.471713313033686,6.504194038054162,6.512313541715985,6.492013620972919,0.03146877125351414,4.400000095367432,13.02500057220459,0.0,0.0,0.0,0.0,0.0,snow covered,0.301835805177689,-6.68777084350586,100.0,424.401519775391
arenacam6_1769537072468078744.png,1769537072468078744,1769537072.4680789,42.30017572486031,-83.69860627023834,236.4856414794922,-0.6988995942041705,-0.7151384656526093,0.01017237940628077,0.0035853678322098972,-0.005300000000000001,-0.0061,-0.0003800000000000001,0.22210000000000002,-0.1154,-9.4642,2.8372386162408825,6.34673255021388,8.010000228881836,8.059999465942383,8.069999694824219,8.09999942779541,6.504194038054162,6.544793879540292,6.5529141575944525,6.5772742173645975,6.544794073138375,0.03120684877730043,4.400000095367432,11.40000057220459,0.0,0.0,0.0,0.0,0.0,snow covered,0.301835805177689,-6.68777084350586,100.0,424.401519775391
arenacam6_1769537072530747302.png,1769537072530747302,1769537072.5307474,42.30017777016502,-83.6986063928632,236.4937744140625,-0.6988875826370132,-0.7151535065986259,0.009997930457070363,0.0034132421620119736,-0.018240000000000003,0.007250000000000001,-7.000000000000002e-05,0.5298,-0.2185,-9.13,2.862532979843895,6.4033145239320035,8.15999984741211,8.179999351501465,8.210000038146973,8.1899995803833,6.625995111297226,6.64223489301321,6.666595727175694,6.650355171067371,6.646295225638375,0.037946082579302584,4.300000190734863,9.074999809265137,0.0,0.0,0.0,0.0,0.0,snow covered,0.301835805177689,-6.68777084350586,100.0,424.401519775391
arenacam6_1769537072654345330.png,1769537072654345330,1769537072.6543453,42.30018089677505,-83.6986065909471,236.49989318847656,-0.6987276036933158,-0.7153192334943015,0.00929632512285399,0.0034217494548784634,-0.005870000000000001,0.015220000000000003,-0.0028000000000000004,0.6549,-0.2091,-9.3613,2.9361585516685844,6.568010510569524,8.34000015258789,8.34000015258789,8.309999465942383,8.34999942779541,6.772157018702774,6.772157018702774,6.747796184540291,6.7802765223645975,6.76809668607761,0.030463741674301343,4.300000190734863,6.125,0.0,0.0,0.0,0.0,0.0,snow covered,0.301835805177689,-6.68777084350586,100.0,424.401519775391
arenacam6_1769537072695602529.png,1769537072695602529,1769537072.6956024,42.300181955271974,-83.69860666161537,236.50067138671875,-0.6987032019734192,-0.7153462122015992,0.009046971113639224,0.0034328639042547917,-0.0009800000000000002,0.0101,-0.0034200000000000003,0.43610000000000004,0.0023,-9.5825,2.9631388353459585,6.628363786338789,8.369999885559082,8.369999885559082,8.319999694824219,8.34999942779541,6.796517078472919,6.796517078472919,6.7559164625944526,6.7802765223645975,6.782306785476222,0.023224886880034122,4.300000190734863,5.974999904632568,0.0,0.0,0.0,0.0,0.0,snow covered,0.301835805177689,-6.68777084350586,100.0,424.401519775391
arenacam6_1769537072757825888.png,1769537072757825888,1769537072.7578259,42.30018409682612,-83.69860679282712,236.50259399414062,-0.6986399731708424,-0.7154068587286567,0.0090594629894151,0.003624983059775143,0.009420000000000001,0.0056700000000000006,-0.004760000000000001,0.3629,0.0385,-10.0106,2.9910916745293608,6.690892610421709,8.399999618530273,8.309999465942383,8.420000076293945,8.420000076293945,6.820877138243064,6.747796184540291,6.837117694351387,6.837117694351387,6.810727177871533,0.01791010174982784,4.200000286102295,6.375,0.0,0.0,0.0,0.0,0.0,snow covered,0.301835805177689,-6.68777084350586,100.0,424.401519775391
arenacam6_1769537072799077490.png,1769537072799077490,1769537072.7990773,42.30018517640682,-83.6986068538837,236.50404357910156,-0.6985310498300095,-0.7155106047869965,0.009223166037382238,0.0037255964593925213,0.003940000000000001,-0.0038500000000000006,-0.007770000000000002,0.1961,-0.14880000000000002,-10.3071,3.0119528121343397,6.73755772357579,8.40999984741211,8.4399995803833,8.460000038146973,8.479999542236328,6.828997416297226,6.853357476067372,6.869598032175693,6.885837813891678,6.859447684607993,0.01809111936892061,4.200000286102295,7.099999904632568,0.0,0.0,0.0,0.0,0.0,snow covered,0.301835805177689,-6.68777084350586,100.0,424.401519775391
arenacam6_1769537072861633185.png,1769537072861633185,1769537072.8616333,42.30018680534188,-83.6986069419358,236.5077362060547,-0.6984072431289413,-0.7156295107437904,0.00937130062571749,0.0037289170300963716,0.0039900000000000005,-0.003650000000000001,-0.006780000000000001,0.1652,-0.22210000000000002,-10.2321,3.024317387040454,6.765216535766274,8.449999809265137,8.489999771118164,8.489999771118164,8.5,6.861477754121532,6.89395809194584,6.89395809194584,6.90207837,6.8878680770033025,0.018129728825174475,4.200000286102295,10.25,0.0,0.0,0.0,0.0,0.0,snow covered,0.301835805177689,-6.68777084350586,100.0,424.401519775391
arenacam6_1769537072924494160.png,1769537072924494160,1769537072.924494,42.30018844250842,-83.69860702740758,236.51260375976562,-0.6982996516863819,-0.7157323956881507,0.009563848824930053,0.0036423910872198616,0.0017100000000000001,-0.004200000000000001,-0.00203,0.12290000000000001,-0.4083,-9.985100000000001,3.037860610231743,6.795511913451796,8.449999809265137,8.479999542236328,8.550000190734863,8.519999504089355,6.861477754121532,6.885837813891678,6.9426789858784685,6.918318151715985,6.902078176401917,0.015681859484223862,4.200000286102295,15.02500057220459,0.0,0.0,0.0,0.0,0.0,snow covered,0.301835805177689,-6.68777084350586,100.0,424.401519775391
arenacam6_1769537073027028529.png,1769537073027028529,1769537073.0270286,42.300191183229686,-83.69860718515763,236.5213165283203,-0.6982327702315682,-0.7157960722104659,0.00980759568476484,0.00328521684274937,-0.0030600000000000007,-0.005710000000000001,-0.0007300000000000002,0.013800000000000002,-0.3627,-9.5561,3.052939155379603,6.82924171423485,8.539999961853027,8.529999732971191,8.609999656677246,8.639999389648438,6.934558707824307,6.926438429770146,6.9913991054187585,7.015759165188904,6.967038852050528,0.020177516565046294,4.200000286102295,20.524999618530273,0.0,0.0,0.0,0.0,0.0,snow covered,0.301835805177689,-6.68777084350586,100.0,424.401519775391
arenacam6_1769537073068181001.png,1769537073068181001,1769537073.068181,42.30019173284601,-83.69860722180334,236.5225372314453,-0.6981836440837887,-0.7158464117447517,0.009724260516774634,0.0029921035153446752,-0.01566,-0.004950000000000001,-0.0031300000000000004,0.2187,-0.5255000000000001,-9.2317,3.0626948593825203,6.851064638747135,8.649999618530273,8.619999885559082,8.679999351501465,8.720000267028809,7.023879443243065,6.9995193834729195,7.04823950301321,7.080720615229854,7.038089736239763,0.02729869113113916,4.200000286102295,21.0,0.0,0.0,0.0,0.0,0.0,snow covered,0.301835805177689,-6.68777084350586,100.0,424.401519775391
arenacam6_1769537073150901936.png,1769537073150901936,1769537073.150902,42.300194491316596,-83.69860740131335,236.52696228027344,-0.698123700159221,-0.7159133415369621,0.009178161485392685,0.0026735813298545317,-0.014340000000000002,0.00787,-0.00011000000000000002,0.4773,0.0007,-9.648900000000001,3.091377502468628,6.915225990372173,8.84999942779541,8.800000190734863,8.819999694824219,8.789999961853027,7.186281132364598,7.145681290878468,7.161921072594452,7.137561012824307,7.157861127165456,0.03508708712211223,4.200000286102295,20.850000381469727,0.0,0.0,0.0,0.0,0.0,snow covered,0.301835805177689,-6.68777084350586,100.0,424.401519775391
arenacam6_1769537073172150179.png,1769537073172150179,1769537073.1721504,42.30019560506402,-83.69860747662074,236.52769470214844,-0.6981112752047343,-0.7159273431299998,0.00903887780915291,0.0026430056357659194,-0.011800000000000001,0.007450000000000001,-0.0029300000000000003,0.6409,-0.4631,-9.7452,3.1044614695013935,6.944494039586448,8.889999389648438,8.84000015258789,8.84000015258789,8.829999923706055,7.2187614701889045,7.1781616287027745,7.1781616287027745,7.170041350648613,7.186281519560767,0.0348171484626572,4.200000286102295,20.75,0.0,0.0,0.0,0.0,0.0,snow covered,0.301835805177689,-6.68777084350586,100.0,424.401519775391
arenacam6_1769537073192878660.png,1769537073192878660,1769537073.1928785,42.30019560506402,-83.69860747662074,236.52769470214844,-0.6981002858198161,-0.7159391960844403,0.00895722094281796,0.002612784192808805,-0.0158,0.006950000000000001,-0.0033600000000000006,0.5024000000000001,-0.4383,-9.6768,3.110348669414784,6.957663352560708,8.949999809265137,8.899999618530273,8.90999984741211,8.929999351501465,7.267482364121533,7.226881748243065,7.235002026297226,7.25124180801321,7.245151986668759,0.0413197103022013,4.099999904632568,20.725000381469727,0.0,0.0,0.0,0.0,0.0,snow covered,0.301835805177689,-6.68777084350586,100.0,424.401519775391
arenacam6_1769537073233797958.png,1769537073233797958,1769537073.2337978,42.30019672582672,-83.69860755188922,236.52838134765625,-0.6980957647323185,-0.7159490475821791,0.008525307760378917,0.0025658637065809056,-0.015790000000000002,0.00982,0.00062,0.5734,-0.40990000000000004,-9.8704,3.1449015748836695,7.034956128920276,9.010000228881836,8.989999771118164,9.019999504089355,8.979999542236328,7.316203258054162,7.299962701945839,7.324322761715985,7.291842423891678,7.308082786401917,0.038824216168006104,4.099999904632568,20.575000762939453,0.0,0.0,0.0,0.0,0.0,snow covered,0.301835805177689,-6.68777084350586,100.0,424.401519775391
arenacam6_1769537073275470174.png,1769537073275470174,1769537073.27547,42.30019842899743,-83.69860766616308,236.52999877929688,-0.6981059138645384,-0.7159434622708396,0.00816869319261019,0.002522758515153066,-0.011280000000000002,0.005580000000000001,-0.0006500000000000001,0.791,0.00030000000000000003,-10.4008,3.179637657907784,7.112658662480238,9.130000114440918,9.059999465942383,9.170000076293945,9.09000015258789,7.413644271527081,7.356803099540292,7.446124609351387,7.381163933702774,7.399433978530383,0.04031900441995117,4.0,20.55000114440918,0.0,0.0,0.0,0.0,0.0,snow covered,0.301835805177689,-6.68777084350586,100.0,424.401519775391
arenacam6_1769537073420688089.png,1769537073420688089,1769537073.4206882,42.300201925619916,-83.69860788740057,236.5381317138672,-0.6980071692770832,-0.7160455069401357,0.00790198192452842,0.0015434734535006865,-0.016520000000000003,-0.01844,-0.00198,0.6940000000000001,0.2061,-10.065900000000001,3.3072637249557517,7.39815051690252,9.429999351501465,9.380000114440918,9.40999984741211,9.40999984741211,7.6572464180132105,7.616646576527081,7.641006636297226,7.641006636297226,7.638976566783686,0.032552196570068685,4.0,19.950000762939453,0.0,0.0,0.0,0.0,0.0,snow covered,0.301835805177689,-6.68777084350586,100.0,424.401519775391
arenacam6_1769537073441343730.png,1769537073441343730,1769537073.4413438,42.30020371700436,-83.69860799339914,236.54397583007812,-0.6979729347757663,-0.7160787885042823,0.007950782323579608,0.0013175868800198345,-0.01213,-0.019500000000000003,-0.00487,0.8027000000000001,-0.1966,-9.652700000000001,3.3252012743146473,7.438275738565408,9.4399995803833,9.449999809265137,9.469999313354492,9.479999542236328,7.665366696067372,7.673486974121532,7.689726755837517,7.697847033891678,7.681606864979525,0.032713378068590836,4.0,19.92500114440918,0.0,0.0,0.0,0.0,0.0,snow covered,0.301835805177689,-6.68777084350586,100.0,424.401519775391
arenacam6_1769537073482132565.png,1769537073482132565,1769537073.4821324,42.30020432104334,-83.69860802638898,236.5459747314453,-0.6979132872484357,-0.7161357053425744,0.008126741645576247,0.0008068988795862088,-0.00251,-0.019400000000000004,-0.005170000000000001,0.7529,-0.1943,-9.6011,3.365365570549457,7.528120859384903,9.559999465942383,9.65999984741211,9.59999942779541,9.569999694824219,7.762807709540291,7.844008941297226,7.795288047364597,7.770927987594452,7.793258171449141,0.03521958759916896,4.0,20.100000381469727,0.0,0.0,0.0,0.0,0.0,snow covered,0.301835805177689,-6.68777084350586,100.0,424.401519775391
arenacam6_1769537073503551709.png,1769537073503551709,1769537073.5035517,42.30020492504811,-83.69860806015184,236.54800415039062,-0.697905233121244,-0.7161424383260175,0.008237023112744303,0.000667128689246264,-0.0013400000000000003,-0.018920000000000003,0.00029,0.6278,-0.054,-9.5867,3.3802875791392566,7.561500497279769,9.639999389648438,9.619999885559082,9.65999984741211,9.630000114440918,7.827768385188905,7.81152860347292,7.844008941297226,7.819648881527081,7.825738702871533,0.03494520772521576,4.0,19.67500114440918,0.0,0.0,0.0,0.0,0.0,snow covered,0.301835805177689,-6.68777084350586,100.0,424.401519775391
arenacam6_1769537073588943503.png,1769537073588943503,1769537073.5889437,42.300207378045684,-83.69860820760638,236.5544891357422,-0.6978718229428479,-0.716170519223017,0.00863077081885827,0.000464686273378438,0.00034,-0.0044,0.0008800000000000001,0.6918000000000001,-0.109,-9.3899,3.444054527061551,7.7041433337650655,9.869999885559082,9.829999923706055,9.819999694824219,9.809999465942383,8.014530908472919,7.982050570648613,7.973930292594452,7.965810014540291,7.984080446564069,0.03633591700872422,3.6000001430511475,19.975000381469727,0.0,0.0,0.0,0.0,0.0,snow covered,0.301835805177689,-6.68777084350586,100.0,424.401519775391
arenacam6_1769537073626905605.png,1769537073626905605,1769537073.6269057,42.30020799958994,-83.69860824179365,236.55569458007812,-0.6978704926327552,-0.716171358522938,0.008674670499091337,0.0003329198957754976,-0.008950000000000001,-0.0062900000000000005,0.0022600000000000003,0.6911,0.0366,-9.6285,3.4846205243244284,7.7948870356822875,9.949999809265137,9.960000038146973,9.84999942779541,9.920000076293945,8.079491584121532,8.087611862175693,7.998290352364598,8.055131524351388,8.055131330753303,0.033386538365432074,3.299999952316284,19.725000381469727,0.0,0.0,0.0,0.0,0.0,snow covered,0.301835805177689,-6.68777084350586,100.0,424.401519775391
arenacam6_1769537073668890514.png,1769537073668890514,1769537073.6688907,42.30020987871815,-83.69860835130115,236.55897521972656,-0.6978479670814343,-0.7161937353021337,0.008641634198187129,0.0002655422209994436,-0.0058200000000000005,-0.0009200000000000001,-0.0025400000000000006,0.6709,-0.3633,-9.3278,3.510334506814202,7.852407671672961,10.059999465942383,10.029999732971191,9.989999771118164,9.949999809265137,8.168812319540292,8.144452259770146,8.11197192194584,8.079491584121532,8.126182021344453,0.03486501989181165,2.9000000953674316,19.774999618530273,0.0,0.0,0.0,0.0,0.0,snow covered,0.301835805177689,-6.68777084350586,100.0,424.401519775391
arenacam6_1769537073730284877.png,1769537073730284877,1769537073.7302847,42.30021242394865,-83.69860849526353,236.56248474121094,-0.6978178884615687,-0.7162244045828873,0.00852907449532565,0.00022740092202935074,0.004240000000000001,0.0020900000000000003,-0.0038000000000000004,0.5968,0.3211,-9.938600000000001,3.5655009777677806,7.97581175720786,10.1899995803833,10.130000114440918,10.130000114440918,10.149999618530273,8.274373611067372,8.225653491527082,8.225653491527082,8.241893273243065,8.24189346684115,0.03336108194790677,2.299999952316284,19.575000762939453,0.0,0.0,0.0,0.0,0.0,snow covered,0.301835805177689,-6.68777084350586,100.0,424.401519775391
arenacam6_1769537073771724247.png,1769537073771724247,1769537073.7717242,42.30021306821091,-83.69860853514064,236.5632781982422,-0.6977999783303688,-0.7162406146589372,0.008631414432898884,0.00026615787066217326,0.0041,-0.005540000000000001,0.0014600000000000004,0.6118,0.0675,-10.0692,3.5922472225648203,8.03564150204415,10.130000114440918,10.210000038146973,10.239999771118164,10.279999732971191,8.225653491527082,8.290614167175693,8.31497422694584,8.347454564770146,8.294674112604689,0.032235461287645095,2.0,20.0,0.0,0.0,0.0,0.0,0.0,snow covered,0.301835805177689,-6.68777084350586,100.0,424.401519775391
arenacam6_1769537073792393596.png,1769537073792393596,1769537073.7923934,42.300213716927566,-83.69860856773667,236.5644073486328,-0.697768444902273,-0.7162690233232537,0.008818432042344223,0.00034464841564852495,0.011870000000000002,-0.014080000000000002,-0.0036200000000000004,0.9935,-0.2629,-10.283100000000001,3.6206853303215216,8.099255842809425,10.300000190734863,10.239999771118164,10.300000190734863,10.289999961853027,8.363695120878468,8.31497422694584,8.363695120878468,8.355574842824307,8.34948482788177,0.030895305683484534,1.8000000715255737,19.774999618530273,0.0,0.0,0.0,0.0,0.0,snow covered,0.301835805177689,-6.68777084350586,100.0,424.401519775391
arenacam6_1769537073833757017.png,1769537073833757017,1769537073.833757,42.3002150202417,-83.6986086411728,236.5668182373047,-0.6977674002880407,-0.7162676062899052,0.009013966259829878,0.0003459584733043313,0.010010000000000002,-0.0041,-0.00102,0.7848,0.4379,-9.9886,3.6427620585888247,8.148640159339687,10.319999694824219,10.389999389648438,10.420000076293945,10.389999389648438,8.379934902594453,8.436775300188904,8.461136134351387,8.436775300188904,8.428655409330911,0.03436343297970779,1.5,19.575000762939453,0.0,0.0,0.0,0.0,0.0,snow covered,0.301835805177689,-6.68777084350586,100.0,424.401519775391
arenacam6_1769537073875121187.png,1769537073875121187,1769537073.875121,42.30021700005186,-83.6986087486258,236.57122802734375,-0.697755408020469,-0.7162722759950437,0.009559692651545089,0.00017174247228800665,0.012660000000000001,-0.015270000000000002,-0.00302,1.1009,-0.4685,-9.8573,3.695065105060568,8.265638936114188,10.460000038146973,10.479999542236328,10.550000190734863,10.460000038146973,8.493616472175693,8.509856253891678,8.566697425878468,8.493616472175693,8.515946656030383,0.030282924508419084,0.9000000357627869,19.67500114440918,0.0,0.0,0.0,0.0,0.0,snow covered,0.301835805177689,-6.68777084350586,100.0,424.401519775391
arenacam6_1769537073958343652.png,1769537073958343652,1769537073.9583437,42.30021967893546,-83.69860889771762,236.57717895507812,-0.6978603746054179,-0.7161664139143044,0.009816847124887517,-0.00044119070392951694,-0.011720000000000001,-0.007930000000000001,0.005600000000000001,0.5096,-0.8152,-9.7553,3.7526951074062995,8.394553793561448,10.710000038146973,10.639999389648438,10.65999984741211,10.710000038146973,8.696618777175694,8.639777605188904,8.656018161297226,8.696618777175694,8.67225833020938,0.033081512546971635,-1.2000000476837158,19.725000381469727,0.0,0.0,0.0,0.0,0.0,snow covered,0.301835805177689,-6.68777084350586,100.0,424.401519775391
