image_filename,timestamp_ns,timestamp_sec,latitude,longitude,altitude,orientation_x,orientation_y,orientation_z,orientation_w,angular_velocity_x,angular_velocity_y,angular_velocity_z,linear_acceleration_x,linear_acceleration_y,linear_acceleration_z,vehicle_speed_mps,vehicle_speed_mph,wheel_speed_fl_rads,wheel_speed_fr_rads,wheel_speed_rl_rads,wheel_speed_rr_rads,wheel_speed_fl_mph,wheel_speed_fr_mph,wheel_speed_rl_mph,wheel_speed_rr_mph,avg_wheel_speed_mph,wheel_slip,steering_angle_deg,throttle_pedal,brake_pedal,brake_torque_actual,abs_active,esc_active,trac_active,marwis_road_condition,marwis_friction,marwis_surface_temp_c,marwis_ice_percent,marwis_water_film_height
arenacam6_1769615358320344647.png,1769615358320344647,1769615358.3203447,42.299510301242165,-83.69750271429068,234.63644409179688,0.7295941892300399,0.6838622938263267,0.002548997165185786,0.004264356669813356,-0.00075,0.0009500000000000001,0.0008700000000000001,-0.011000000000000001,0.08070000000000001,-9.8063,0.0038706892914057564,0.008658499703517192,0.0,0.0,0.0,0.0,0.0,0.0,0.0,0.0,0.0,0.0,-1.3000000715255737,36.17499923706055,0.0,164.0,0.0,0.0,0.0,snow covered,0.277963280677795,-8.98924160003662,100.0,411.495483398438
arenacam6_1769615358340960345.png,1769615358340960345,1769615358.3409603,42.29951029981264,-83.69750271364974,234.63636779785156,0.7295975541652165,0.6838586476064146,0.0025486784945287456,0.004273556831400165,-0.0006300000000000001,-0.0006500000000000001,-0.00046000000000000007,-0.0099,0.09620000000000001,-9.8122,0.004070110618516038,0.009104593246983267,0.0,0.0,0.0,0.0,0.0,0.0,0.0,0.0,0.0,0.0,-1.3000000715255737,36.17499923706055,0.0,164.0,0.0,0.0,0.0,snow covered,0.277963280677795,-8.98924160003662,100.0,411.495483398438
arenacam6_1769615358360713091.png,1769615358360713091,1769615358.3607132,42.29951030061964,-83.6975027151511,234.6365509033203,0.7295907382542391,0.6838659334041224,0.002551320554035021,0.004269724390806397,-3e-05,0.0011800000000000003,0.00020000000000000004,-0.0119,0.09230000000000001,-9.8214,0.004176577859480936,0.009342754076987286,0.0,0.0,0.0,0.0,0.0,0.0,0.0,0.0,0.0,0.0,-1.3000000715255737,36.17499923706055,0.0,164.0,0.0,0.0,0.0,snow covered,0.277963280677795,-8.98924160003662,100.0,411.495483398438
arenacam6_1769615358381320928.png,1769615358381320928,1769615358.381321,42.29951029933569,-83.69750271459415,234.63648986816406,0.7295924363200962,0.6838641393417098,0.002543467226728915,0.004271599395498485,-0.00030000000000000003,-0.00031,-1e-05,-0.0098,0.09770000000000001,-9.8085,0.004375785099488018,0.009788368720448727,0.0,0.0,0.0,0.0,0.0,0.0,0.0,0.0,0.0,0.0,-1.3000000715255737,36.17499923706055,0.0,164.0,0.0,0.0,0.0,snow covered,0.277963280677795,-8.98924160003662,100.0,411.495483398438
arenacam6_1769615358402036384.png,1769615358402036384,1769615358.4020364,42.29951029810388,-83.69750271405707,234.6364288330078,0.7295951701547297,0.6838612357573588,0.0025395516804726506,0.004271837142414711,0.0004700000000000001,-0.0019600000000000004,0.00102,-0.0258,0.10250000000000001,-9.814,0.0041888142261877915,0.009370126095128519,0.0,0.0,0.0,0.0,0.0,0.0,0.0,0.0,0.0,0.0,-1.3000000715255737,36.17499923706055,0.0,164.0,0.0,0.0,0.0,snow covered,0.277963280677795,-8.98924160003662,100.0,411.495483398438
arenacam6_1769615358422690653.png,1769615358422690653,1769615358.4226906,42.29951029893775,-83.69750271551105,234.63661193847656,0.7295965403576296,0.6838597885282387,0.0025363742800631347,0.0042713859345817244,-0.0006300000000000001,-0.0009000000000000002,-0.00024,-0.028200000000000003,0.10060000000000001,-9.8092,0.004095641307212145,0.009161703865755136,0.0,0.0,0.0,0.0,0.0,0.0,0.0,0.0,0.0,0.0,-1.3000000715255737,36.17499923706055,0.0,164.0,0.0,0.0,0.0,snow covered,0.277963280677795,-8.98924160003662,100.0,411.495483398438
arenacam6_1769615358443350320.png,1769615358443350320,1769615358.4433503,42.29951029771839,-83.69750271493464,234.63656616210938,0.7295985900572851,0.683857606480589,0.002534583199744115,0.004271689720125664,-0.0006600000000000001,-0.00032,0.00021000000000000004,-0.0446,0.1164,-9.788400000000001,0.003722924089377081,0.008327957812491169,0.0,0.0,0.0,0.0,0.0,0.0,0.0,0.0,0.0,0.0,-1.3000000715255737,36.17499923706055,0.0,164.0,0.0,0.0,0.0,snow covered,0.277963280677795,-8.98924160003662,100.0,411.495483398438
arenacam6_1769615358464132316.png,1769615358464132316,1769615358.4641323,42.299510296513546,-83.69750271438097,234.6365203857422,0.7296006542658668,0.6838554199451129,0.0025339322815801073,0.004269554274723011,0.0006900000000000001,-0.00035000000000000005,-0.0005000000000000001,-0.023200000000000002,0.11760000000000001,-9.7926,0.0034556580180587844,0.007730099646916418,0.0,0.0,0.0,0.0,0.0,0.0,0.0,0.0,0.0,0.0,-1.3000000715255737,36.17499923706055,0.0,164.0,0.0,0.0,0.0,snow covered,0.277963280677795,-8.98924160003662,100.0,411.495483398438
arenacam6_1769615358484814363.png,1769615358484814363,1769615358.4848144,42.29951029721112,-83.69750271563075,234.63668823242188,0.7296091804381384,0.6838462684781575,0.0025422452623751956,0.004273394191173584,-0.0009100000000000001,0.00096,0.00101,-0.0427,0.1077,-9.7844,0.003063542341370996,0.006852960405106436,0.0,0.0,0.0,0.0,0.0,0.0,0.0,0.0,0.0,0.0,-1.3000000715255737,36.17499923706055,0.0,164.0,0.0,0.0,0.0,snow covered,0.277963280677795,-8.98924160003662,100.0,411.495483398438
arenacam6_1769615358505554574.png,1769615358505554574,1769615358.5055547,42.299510295893754,-83.6975027149144,234.63665771484375,0.7296060833637006,0.6838495241667207,0.0025495822036959515,0.004276803270793071,-0.0004900000000000001,0.00124,0.0015300000000000003,-0.0221,0.0879,-9.8145,0.002870315364588397,0.006420723251662369,0.0,0.0,0.0,0.0,0.0,0.0,0.0,0.0,0.0,0.0,-1.3000000715255737,36.17499923706055,0.0,164.0,0.0,0.0,0.0,snow covered,0.277963280677795,-8.98924160003662,100.0,411.495483398438
arenacam6_1769615358526352116.png,1769615358526352116,1769615358.5263522,42.29951029522748,-83.69750271538983,234.6367950439453,0.7296016508058557,0.6838542634994389,0.0025503853660359646,0.004274689403338908,-0.0006300000000000001,0.00144,-0.0014200000000000003,-0.020800000000000003,0.09820000000000001,-9.8071,0.0027839839677843386,0.006227605096895499,0.0,0.0,0.0,0.0,0.0,0.0,0.0,0.0,0.0,0.0,-1.3000000715255737,36.17499923706055,0.0,164.0,0.0,0.0,0.0,snow covered,0.277963280677795,-8.98924160003662,100.0,411.495483398438
arenacam6_1769615358548121994.png,1769615358548121994,1769615358.5481222,42.299510293963316,-83.69750271468449,234.6367645263672,0.7296013569474726,0.6838546253997074,0.002551003953187916,0.0042665722381385555,0.00079,0.00143,-0.0002800000000000001,-0.028300000000000002,0.10890000000000001,-9.7981,0.00260433667709621,0.005825744886463596,0.0,0.0,0.0,0.0,0.0,0.0,0.0,0.0,0.0,0.0,-1.3000000715255737,36.17499923706055,0.0,164.0,0.0,0.0,0.0,snow covered,0.277963280677795,-8.98924160003662,100.0,411.495483398438
arenacam6_1769615358568790882.png,1769615358568790882,1769615358.5687907,42.299510291912824,-83.69750271388641,234.63661193847656,0.7296024513785742,0.6838535220495824,0.0025531418679363453,0.004254972309989709,0.0016500000000000002,0.00158,-0.00035000000000000005,-0.0173,0.0966,-9.7965,0.002704903758749053,0.006050707414096107,0.0,0.0,0.0,0.0,0.0,0.0,0.0,0.0,0.0,0.0,-1.3000000715255737,36.17499923706055,0.0,164.0,0.0,0.0,0.0,snow covered,0.277963280677795,-8.98924160003662,100.0,411.495483398438
arenacam6_1769615358630789958.png,1769615358630789958,1769615358.63079,42.29951028849021,-83.69750271345762,234.63650512695312,0.7296055125065046,0.6838503184295232,0.002532171179316896,0.004257489057975056,0.00062,-0.0018200000000000002,-0.00116,-0.0329,0.0906,-9.8088,0.0022931253701522014,0.005129583865508266,0.0,0.0,0.0,0.0,0.0,0.0,0.0,0.0,0.0,0.0,-1.3000000715255737,36.17499923706055,0.0,164.0,0.0,0.0,0.0,snow covered,0.277963280677795,-8.98924160003662,100.0,411.495483398438
arenacam6_1769615358650418678.png,1769615358650418678,1769615358.6504188,42.29951028899878,-83.69750271456368,234.63665771484375,0.7296007339635823,0.683855428048233,0.002531540002421736,0.004256035007618742,0.0002800000000000001,3e-05,-0.0013900000000000002,-0.0207,0.0781,-9.798,0.0022869427310716,0.005115753672843305,0.0,0.0,0.0,0.0,0.0,0.0,0.0,0.0,0.0,0.0,-1.3000000715255737,36.17499923706055,0.0,164.0,0.0,0.0,0.0,snow covered,0.277963280677795,-8.98924160003662,100.0,411.495483398438
arenacam6_1769615358671009021.png,1769615358671009021,1769615358.671009,42.29951028717112,-83.69750271408184,234.63653564453125,0.7296048074457238,0.6838510380356658,0.0025348879605666353,0.0042611116692460845,-0.0014500000000000003,0.0004700000000000001,0.0011900000000000003,-0.0013000000000000002,0.0794,-9.8085,0.0025601563348600295,0.005726916111701795,0.0,0.0,0.0,0.0,0.0,0.0,0.0,0.0,0.0,0.0,-1.3000000715255737,36.17499923706055,0.0,164.0,0.0,0.0,0.0,snow covered,0.277963280677795,-8.98924160003662,100.0,411.495483398438
arenacam6_1769615358691777999.png,1769615358691777999,1769615358.691778,42.29951028536556,-83.69750271361157,234.6364288330078,0.7295997017947519,0.6838565186504757,0.002532572171252224,0.004257125609861431,0.0007700000000000001,0.00048,-0.0012900000000000001,-0.009000000000000001,0.0805,-9.8099,0.0026535719942293585,0.005935881336771422,0.0,0.0,0.0,0.0,0.0,0.0,0.0,0.0,0.0,0.0,-1.3000000715255737,36.17499923706055,0.0,164.0,0.0,0.0,0.0,snow covered,0.277963280677795,-8.98924160003662,100.0,411.495483398438
arenacam6_1769615358712416011.png,1769615358712416011,1769615358.712416,42.299510285923134,-83.69750271487764,234.63658142089844,0.7296014194283356,0.6838546837031733,0.002535434208449683,0.004255810001121032,0.00027000000000000006,0.00042000000000000007,-4e-05,-0.0046,0.0658,-9.8157,0.002926671519230781,0.006546788588228103,0.0,0.0,0.0,0.0,0.0,0.0,0.0,0.0,0.0,0.0,-1.3000000715255737,36.17499923706055,0.0,164.0,0.0,0.0,0.0,snow covered,0.277963280677795,-8.98924160003662,100.0,411.495483398438
arenacam6_1769615358733097419.png,1769615358733097419,1769615358.7330976,42.29951028428035,-83.69750271462277,234.63648986816406,0.7295945149938213,0.6838620111764835,0.002527336799632138,0.004266840668112489,-0.0009500000000000001,-0.00055,-0.00016,-0.0159,0.0921,-9.821100000000001,0.0028267741403119905,0.006323324145429504,0.0,0.0,0.0,0.0,0.0,0.0,0.0,0.0,0.0,0.0,-1.3000000715255737,36.17499923706055,0.0,164.0,0.0,0.0,0.0,snow covered,0.277963280677795,-8.98924160003662,100.0,411.495483398438
arenacam6_1769615358753753990.png,1769615358753753990,1769615358.7537541,42.29951028265002,-83.69750271443696,234.6363983154297,0.7295965325911014,0.6838598074845287,0.0025313814141334446,0.00427263927816915,-0.0011500000000000002,-0.0008500000000000001,-2e-05,-0.040100000000000004,0.096,-9.8057,0.002427562306604136,0.005430311226135056,0.0,0.0,0.0,0.0,0.0,0.0,0.0,0.0,0.0,0.0,-1.3000000715255737,36.17499923706055,0.0,164.0,0.0,0.0,0.0,snow covered,0.277963280677795,-8.98924160003662,100.0,411.495483398438
arenacam6_1769615358774505113.png,1769615358774505113,1769615358.7745051,42.299510283144095,-83.6975027157379,234.63656616210938,0.7295940999218696,0.6838623823378016,0.0025258786198707832,0.004279172777677241,-0.00026000000000000003,-0.0013000000000000002,-0.00037000000000000005,-0.0393,0.1038,-9.783900000000001,0.0021347737167030836,0.004775360717841796,0.0,0.0,0.0,0.0,0.0,0.0,0.0,0.0,0.0,0.0,-1.3000000715255737,36.17499923706055,0.0,164.0,0.0,0.0,0.0,snow covered,0.277963280677795,-8.98924160003662,100.0,411.495483398438
arenacam6_1769615358795190488.png,1769615358795190488,1769615358.7951906,42.29951028138597,-83.69750271551882,234.636474609375,0.7295944112024487,0.6838620438119432,0.0025189910043082204,0.004284257208029249,0.0006600000000000001,-0.00062,0.00023000000000000003,-0.0441,0.1023,-9.7875,0.0015430093976805295,0.0034516194420474836,0.0,0.0,0.0,0.0,0.0,0.0,0.0,0.0,0.0,0.0,-1.3000000715255737,36.17499923706055,0.0,164.0,0.0,0.0,0.0,snow covered,0.277963280677795,-8.98924160003662,100.0,411.495483398438
arenacam6_1769615358816106542.png,1769615358816106542,1769615358.8161066,42.29951027964916,-83.69750271498874,234.63633728027344,0.7295957600683238,0.6838605865607278,0.002518526149407982,0.004287431069664858,-0.00026000000000000003,-0.00035000000000000005,0.00020000000000000004,-0.0193,0.08370000000000001,-9.7918,0.0015375784610047233,0.003439470762559906,0.0,0.0,0.0,0.0,0.0,0.0,0.0,0.0,0.0,0.0,-1.3000000715255737,36.17499923706055,0.0,164.0,0.0,0.0,0.0,snow covered,0.277963280677795,-8.98924160003662,100.0,411.495483398438
arenacam6_1769615358837730460.png,1769615358837730460,1769615358.8377306,42.29951027994096,-83.69750271624208,234.63648986816406,0.7295941349044812,0.6838624263975218,0.0025140471339223686,0.0042731301974993086,0.0022400000000000007,0.00010000000000000002,-0.00020000000000000004,-0.0381,0.10700000000000001,-9.803700000000001,0.0012447926808875544,0.0027845265395846064,0.0,0.0,0.0,0.0,0.0,0.0,0.0,0.0,0.0,0.0,-1.3000000715255737,36.17499923706055,0.0,164.0,0.0,0.0,0.0,snow covered,0.277963280677795,-8.98924160003662,100.0,411.495483398438
arenacam6_1769615358858415961.png,1769615358858415961,1769615358.8584158,42.2995102781289,-83.69750271572036,234.6363525390625,0.7295900428151911,0.683866758399205,0.002526155812199588,0.004271383652083493,-0.00046000000000000007,0.0012300000000000002,-0.00075,-0.0131,0.0872,-9.8071,0.001145209612138067,0.0025617651897761277,0.0,0.0,0.0,0.0,0.0,0.0,0.0,0.0,0.0,0.0,-1.3000000715255737,36.17499923706055,0.0,164.0,0.0,0.0,0.0,snow covered,0.277963280677795,-8.98924160003662,100.0,411.495483398438
arenacam6_1769615358879116149.png,1769615358879116149,1769615358.879116,42.29951027631681,-83.69750271526975,234.63623046875,0.7295886169333718,0.6838682354324487,0.0025216038696256604,0.0042811355600306114,-0.0010000000000000002,-0.0022700000000000003,-2e-05,-0.0296,0.098,-9.8073,0.0009455053963201897,0.002115038841244485,0.0,0.0,0.0,0.0,0.0,0.0,0.0,0.0,0.0,0.0,-1.3000000715255737,36.17499923706055,0.0,164.0,0.0,0.0,0.0,snow covered,0.277963280677795,-8.98924160003662,100.0,411.495483398438
arenacam6_1769615358899958787.png,1769615358899958787,1769615358.8999588,42.299510276504606,-83.69750271648911,234.63638305664062,0.7295916442839125,0.6838649645309188,0.002518483273018842,0.00428953613172332,-0.0009200000000000001,-0.0009200000000000001,0.00027000000000000006,-0.0373,0.10540000000000001,-9.8019,0.0005651353519218124,0.001264173874127979,0.0,0.0,0.0,0.0,0.0,0.0,0.0,0.0,0.0,0.0,-1.3000000715255737,36.17499923706055,0.0,164.0,0.0,0.0,0.0,snow covered,0.277963280677795,-8.98924160003662,100.0,411.495483398438
arenacam6_1769615358920577422.png,1769615358920577422,1769615358.9205775,42.29951027463735,-83.69750271599014,234.63626098632812,0.729598496874393,0.6838576455154721,0.002524527656144768,0.004287282213067336,0.00037000000000000005,0.0011800000000000003,0.0013300000000000002,-0.0477,0.10500000000000001,-9.804400000000001,-2.0248653247116936e-05,4.529502239460576e-05,0.0,0.0,0.0,0.0,0.0,0.0,0.0,0.0,0.0,0.0,-1.3000000715255737,36.17499923706055,0.0,164.0,0.0,0.0,0.0,snow covered,0.277963280677795,-8.98924160003662,100.0,411.495483398438
arenacam6_1769615358940247566.png,1769615358940247566,1769615358.9402475,42.29951027277183,-83.69750271551064,234.63616943359375,0.7295995301986796,0.6838565242046626,0.002531634291849022,0.004286101304953115,-0.0008400000000000001,0.0009700000000000002,0.00025000000000000006,-0.0342,0.10300000000000001,-9.7958,-0.00021285691338763344,0.0004761481438333328,0.0,0.0,0.0,0.0,0.0,0.0,0.0,0.0,0.0,0.0,-1.3000000715255737,36.17499923706055,0.0,164.0,0.0,0.0,0.0,snow covered,0.277963280677795,-8.98924160003662,100.0,411.495483398438
arenacam6_1769615358961203709.png,1769615358961203709,1769615358.9612038,42.299510272795054,-83.69750271663239,234.6363067626953,0.7295944248166456,0.6838620100957273,0.0025279051965203343,0.004282069548303676,0.0008300000000000001,6e-05,0.00062,-0.0162,0.08660000000000001,-9.7753,-0.0003117113085478744,0.0006972794945430822,0.0,0.0,0.0,0.0,0.0,0.0,0.0,0.0,0.0,0.0,-1.3000000715255737,36.17499923706055,0.0,164.0,0.0,0.0,0.0,snow covered,0.277963280677795,-8.98924160003662,100.0,411.495483398438
arenacam6_1769615358981663971.png,1769615358981663971,1769615358.981664,42.29951027092919,-83.69750271619264,234.63621520996094,0.7295900479459551,0.6838667874982669,0.002518404625563851,0.004270425407512837,0.0007400000000000001,-0.0007700000000000001,-0.00021000000000000004,-0.005200000000000001,0.0945,-9.793000000000001,-0.000211631203877013,0.0004734063052006455,0.0,0.0,0.0,0.0,0.0,0.0,0.0,0.0,0.0,0.0,-1.3000000715255737,36.17499923706055,0.0,164.0,0.0,0.0,0.0,snow covered,0.277963280677795,-8.98924160003662,100.0,411.495483398438
arenacam6_1769615359002350282.png,1769615359002350282,1769615359.0023503,42.29951026913852,-83.69750271577534,234.63612365722656,0.729594164627314,0.6838624386884773,0.002510673560666985,0.004268068777839168,0.0008400000000000001,-0.0007300000000000002,0.0013400000000000003,0.0114,0.08650000000000001,-9.8081,0.00028074922580237686,0.0006280191731663689,0.0,0.0,0.0,0.0,0.0,0.0,0.0,0.0,0.0,0.0,-1.3000000715255737,36.17499923706055,0.0,164.0,0.0,0.0,0.0,snow covered,0.277963280677795,-8.98924160003662,100.0,411.495483398438
arenacam6_1769615359022772445.png,1769615359022772445,1769615359.0227726,42.299510269224236,-83.69750271684522,234.63624572753906,0.7295962985325158,0.6838602750120337,0.0025036860678742034,0.00425405502915627,0.0017800000000000001,0.0006000000000000001,0.00030000000000000003,-0.0022,0.10640000000000001,-9.814,0.0006124797592594955,0.001370080472677936,0.0,0.0,0.0,0.0,0.0,0.0,0.0,0.0,0.0,0.0,-1.3000000715255737,36.17499923706055,0.0,164.0,0.0,0.0,0.0,snow covered,0.277963280677795,-8.98924160003662,100.0,411.495483398438
arenacam6_1769615359043399238.png,1769615359043399238,1769615359.043399,42.29951026769471,-83.69750271645314,234.6361541748047,0.7295929996452772,0.6838639138042159,0.0025057839753585753,0.004233593232159939,0.0016300000000000002,0.0021000000000000003,0.00017,0.038700000000000005,0.07050000000000001,-9.8117,0.0015847705650802297,0.0035450366678505692,0.0,0.0,0.0,0.0,0.0,0.0,0.0,0.0,0.0,0.0,-1.3000000715255737,36.17499923706055,0.0,164.0,0.0,0.0,0.0,snow covered,0.277963280677795,-8.98924160003662,100.0,411.495483398438
arenacam6_1769615359064235406.png,1769615359064235406,1769615359.0642354,42.29951026635719,-83.69750271609222,234.63607788085938,0.7295951018751957,0.6838616876414254,0.002515598031977561,0.004225075441467401,-4e-05,0.0008200000000000001,0.00012,0.26080000000000003,0.1076,-9.725,0.005531417130552308,0.01237344823601768,0.0,0.0,0.0,0.0,0.0,0.0,0.0,0.0,0.0,0.0,-1.3000000715255737,36.17499923706055,0.0,164.0,0.0,0.0,0.0,snow covered,0.277963280677795,-8.98924160003662,100.0,411.495483398438
arenacam6_1769615359084934392.png,1769615359084934392,1769615359.0849345,42.29951026755393,-83.69750271710564,234.63616943359375,0.7295931117825446,0.6838638585071073,0.0025201941194454977,0.0042146042323224706,0.00034,0.00011000000000000002,-0.00035000000000000005,0.2409,0.061500000000000006,-9.6073,0.011327543363965978,0.025339034852590057,0.0,0.0,0.0,0.0,0.0,0.0,0.0,0.0,0.0,0.0,-1.3000000715255737,36.17499923706055,0.0,164.0,0.0,0.0,0.0,snow covered,0.277963280677795,-8.98924160003662,100.0,411.495483398438
arenacam6_1769615359105799825.png,1769615359105799825,1769615359.1058,42.2995102683632,-83.6975027133956,234.6354522705078,0.7295989933329509,0.6838575492298526,0.0025484744919207656,0.004203161506308398,-0.0009000000000000002,0.0037600000000000008,0.00039000000000000005,-0.0519,0.12000000000000001,-9.745000000000001,0.011923669393526447,0.02667253301315505,0.0,0.0,0.0,0.0,0.0,0.0,0.0,0.0,0.0,0.0,-1.3000000715255737,36.17499923706055,0.0,164.0,0.0,0.0,0.0,snow covered,0.277963280677795,-8.98924160003662,100.0,411.495483398438
arenacam6_1769615359126672302.png,1769615359126672302,1769615359.1266723,42.299510270782655,-83.69750271415208,234.6354522705078,0.7295896774162997,0.6838676363932086,0.0025810928451502437,0.004158901450002752,0.00202,0.0039900000000000005,-0.0012000000000000001,0.138,0.1114,-9.9284,0.014160332359972577,0.03167581386931706,0.0,0.0,0.0,0.0,0.0,0.0,0.0,0.0,0.0,0.0,-1.3000000715255737,36.17499923706055,0.0,164.0,0.0,0.0,0.0,snow covered,0.277963280677795,-8.98924160003662,100.0,411.495483398438
arenacam6_1769615359148233262.png,1769615359148233262,1769615359.1482332,42.29951027172853,-83.69750271337736,234.63510131835938,0.7295964906974496,0.6838606691850533,0.0025895626506506767,0.004103665314802787,0.00415,0.006150000000000001,0.00023000000000000003,-0.0441,-0.0782,-9.708400000000001,0.013891877816321665,0.03107529716244259,0.0,0.0,0.0,0.0,0.0,0.0,0.0,0.0,0.0,0.0,-1.3000000715255737,36.17499923706055,0.0,164.0,0.0,0.0,0.0,snow covered,0.277963280677795,-8.98924160003662,100.0,411.495483398438
arenacam6_1769615359168826324.png,1769615359168826324,1769615359.1688263,42.29951027392164,-83.69750271162144,234.63478088378906,0.7296000328532737,0.683856999801793,0.0026869910661909517,0.0040219350569986375,-0.0016800000000000003,0.015000000000000001,0.0010400000000000001,0.2169,-0.0756,-9.7368,0.016077683353164732,0.035964813000028316,0.0,0.0,0.0,0.0,0.0,0.0,0.0,0.0,0.0,0.0,-1.3000000715255737,36.17499923706055,0.0,164.0,0.0,0.0,0.0,snow covered,0.277963280677795,-8.98924160003662,100.0,411.495483398438
arenacam6_1769615359188812603.png,1769615359188812603,1769615359.1888125,42.29951027990969,-83.6975027134299,234.63462829589844,0.7296190288117003,0.683836874486043,0.0027908080294568225,0.00392597498380183,0.00102,0.013180000000000002,0.0017400000000000002,0.9583,0.3013,-9.4357,0.03301944353316417,0.07386251401707626,0.0,0.0,0.0,0.0,0.0,0.0,0.0,0.0,0.0,0.0,-1.3000000715255737,36.17499923706055,0.0,164.0,0.0,0.0,0.0,snow covered,0.277963280677795,-8.98924160003662,100.0,411.495483398438
arenacam6_1769615359210164159.png,1769615359210164159,1769615359.2101643,42.29951029220267,-83.69750271456947,234.63380432128906,0.7296290542879282,0.6838267914947996,0.0029307218801835878,0.0037112318833909283,0.005040000000000001,0.029750000000000002,0.0029500000000000004,1.4021000000000001,-0.5197,-9.1257,0.057173366594822486,0.12789339067062222,0.0,0.0,0.0,0.0,0.0,0.0,0.0,0.0,0.0,0.0,-1.3000000715255737,36.17499923706055,0.0,164.0,0.0,0.0,0.0,snow covered,0.277963280677795,-8.98924160003662,100.0,411.495483398438
arenacam6_1769615359229791573.png,1769615359229791573,1769615359.2297914,42.299510305513955,-83.69750271222867,234.633056640625,0.7296865971546613,0.6837650270385663,0.0031972756219373227,0.0035545970794174596,-0.008620000000000001,0.031180000000000006,0.00898,2.1466000000000003,0.194,-9.105,0.09710089955204111,0.21720888624394286,0.0,0.0,0.0,0.0,0.0,0.0,0.0,0.0,0.0,0.0,-1.3000000715255737,36.17499923706055,0.0,164.0,0.0,0.0,0.0,snow covered,0.277963280677795,-8.98924160003662,100.0,411.495483398438
arenacam6_1769615359250478156.png,1769615359250478156,1769615359.250478,42.2995103293062,-83.69750271491732,234.63229370117188,0.7297072169870543,0.6837430621212004,0.0034384829424653333,0.0033135046682599366,0.0031700000000000005,0.038400000000000004,0.00319,1.9002000000000001,0.17420000000000002,-9.426400000000001,0.13737707348015468,0.3073042707506972,0.0,0.0,0.0,0.0,0.0,0.0,0.0,0.0,0.0,0.0,-1.3000000715255737,36.17499923706055,0.0,164.0,0.0,0.0,0.0,snow covered,0.277963280677795,-8.98924160003662,100.0,411.495483398438
arenacam6_1769615359271071953.png,1769615359271071953,1769615359.271072,42.29951036395583,-83.69750271379466,234.63111877441406,0.7297529368090256,0.6836933143777298,0.003941129571248546,0.0029275572580881207,-0.007250000000000001,0.04395,0.004700000000000001,2.2691,0.3013,-9.7375,0.19968501952571174,0.44668340757784564,0.0,0.0,0.0,0.0,0.0,0.0,0.0,0.0,0.0,0.0,-1.3000000715255737,35.82500076293945,0.0,164.0,0.0,0.0,0.0,snow covered,0.277963280677795,-8.98924160003662,100.0,411.495483398438
arenacam6_1769615359291790527.png,1769615359291790527,1769615359.2917905,42.29951039997904,-83.69750271155836,234.62994384765625,0.7297613734748694,0.6836834539167563,0.004253759125433522,0.002679208433350878,-0.0021900000000000005,0.039850000000000003,-0.00027000000000000006,2.3887,0.227,-9.9876,0.24723690961798692,0.5530541326008597,0.0,0.0,0.0,0.0,0.0,0.0,0.0,0.0,0.0,0.0,-1.3000000715255737,35.29999923706055,0.0,124.0,0.0,0.0,0.0,snow covered,0.277963280677795,-8.98924160003662,100.0,411.495483398438
arenacam6_1769615359312454702.png,1769615359312454702,1769615359.3124547,42.29951044741264,-83.69750271114704,234.62918090820312,0.7297625063160217,0.6836813002645388,0.004539947879408746,0.002439860078053624,-0.0038100000000000005,0.03900000000000001,0.0008600000000000002,2.3292,-0.016900000000000002,-10.260900000000001,0.29173625021387317,0.6525964875534215,0.0,0.0,0.0,0.0,0.0,0.0,0.0,0.0,0.0,0.0,-1.2000000476837158,35.25,0.0,72.0,0.0,0.0,0.0,snow covered,0.277963280677795,-8.98924160003662,100.0,411.495483398438
arenacam6_1769615359333256647.png,1769615359333256647,1769615359.3332567,42.299510507653785,-83.69750270580306,234.62818908691406,0.7297545180173256,0.6836885682487246,0.004819264084620687,0.0022493939167316994,-0.004370000000000001,0.031030000000000005,-0.0009800000000000002,2.4890000000000003,0.1626,-10.2635,0.3399096300073766,0.7603574477487011,0.0,0.0,0.0,0.0,0.0,0.0,0.0,0.0,0.0,0.0,-1.100000023841858,34.97500228881836,0.0,0.0,0.0,0.0,0.0,snow covered,0.277963280677795,-8.98924160003662,100.0,411.495483398438
arenacam6_1769615359354173183.png,1769615359354173183,1769615359.3541732,42.29951056868121,-83.69750270063294,234.6272735595703,0.7297340425400869,0.683709249694611,0.005045069569784191,0.0021062557230321064,-0.00478,0.022460000000000004,-0.0034200000000000003,2.2809,0.1637,-10.4509,0.3863859320207825,0.8643221467745692,0.0,0.0,0.0,0.0,0.0,0.0,0.0,0.0,0.0,0.0,-1.100000023841858,35.25,0.0,0.0,0.0,0.0,0.0,snow covered,0.277963280677795,-8.98924160003662,100.0,411.495483398438
arenacam6_1769615359374783658.png,1769615359374783658,1769615359.3747838,42.29951064164434,-83.69750269802653,234.62709045410156,0.7297172525314138,0.6837259942053047,0.0052511991056488246,0.0019801802760332715,-0.00468,0.023230000000000004,-0.0029700000000000004,2.4998,-0.1221,-10.4268,0.4335808070802762,0.9698942505901531,0.0,0.0,0.0,0.0,0.0,0.0,0.0,0.0,0.0,0.0,-1.100000023841858,35.25,0.0,0.0,0.0,0.0,0.0,snow covered,0.277963280677795,-8.98924160003662,100.0,411.495483398438
arenacam6_1769615359395175938.png,1769615359395175938,1769615359.395176,42.29951072800718,-83.69750269159896,234.62684631347656,0.729698533414855,0.6837448445356178,0.005411848779501278,0.001936438989812686,-0.0074,0.014300000000000002,-0.0022,2.5838,0.0413,-10.2698,0.4848009470904616,1.0844706305845373,0.0,0.8199999928474426,0.0,0.6699999570846558,0.0,0.6658475545920575,0.0,0.5440461425523448,0.3024734242861006,0.7210865691004787,-1.100000023841858,35.17499923706055,0.0,0.0,0.0,0.0,0.0,snow covered,0.277963280677795,-8.98924160003662,100.0,411.495483398438
arenacam6_1769615359416161452.png,1769615359416161452,1769615359.4161615,42.29951081454854,-83.69750268509242,234.62667846679688,0.7296879876017918,0.6837549765304765,0.0055628955464924745,0.0019044717361670883,-0.006770000000000001,0.015250000000000001,-0.0017900000000000004,2.4417,-0.06720000000000001,-10.269300000000001,0.5315278298429548,1.1889958636888993,0.0,0.8199999928474426,0.9199999570846558,0.6699999570846558,0.0,0.6658475545920575,0.7470484475523448,0.5440461425523448,0.4892355361741868,0.5885304977795993,-1.100000023841858,35.20000076293945,0.0,0.0,0.0,0.0,0.0,snow covered,0.277963280677795,-8.98924160003662,100.0,411.495483398438
arenacam6_1769615359436945465.png,1769615359436945465,1769615359.4369454,42.299510914368,-83.69750268186253,234.6270751953125,0.7296712065411614,0.6837716202779625,0.005716094380525126,0.0019047079169842282,-0.011050000000000003,0.01055,-0.0009100000000000001,2.8387000000000002,-0.1383,-10.023100000000001,0.5856252646250864,1.3100085794504408,0.0,0.8199999928474426,0.9199999570846558,1.2300000190734863,0.0,0.6658475545920575,0.7470484475523448,0.9987713560878467,0.6029168395580623,0.5397611519376531,-1.2000000476837158,35.0,0.0,0.0,0.0,0.0,0.0,snow covered,0.277963280677795,-8.98924160003662,100.0,411.495483398438
arenacam6_1769615359458434339.png,1769615359458434339,1769615359.4584343,42.29951102922901,-83.69750267603072,234.62722778320312,0.7296771852035985,0.6837641253768052,0.005827246395861858,0.001967089344164063,-0.012210000000000002,0.0012100000000000001,0.0005200000000000001,2.8276000000000003,-0.1648,-9.8942,0.6424605673808825,1.4371457415969915,1.2200000286102295,1.2899999618530273,1.350000023841858,1.2300000190734863,0.9906512716317702,1.0474918628243066,1.0962124663598085,0.9987713560878467,1.033281739225933,0.281018125498027,-1.3000000715255737,34.79999923706055,0.0,0.0,0.0,0.0,0.0,snow covered,0.277963280677795,-8.98924160003662,100.0,411.495483398438
arenacam6_1769615359479862197.png,1769615359479862197,1769615359.4798622,42.29951114395309,-83.69750267010167,234.62742614746094,0.7296899666590891,0.6837492955533324,0.005940494455929797,0.002040566832528011,-0.013770000000000003,0.0009000000000000002,0.0028200000000000005,2.4399,-0.0081,-9.8881,0.6908205235513162,1.5453240619528814,1.5799999237060547,1.6200000047683716,1.6899999380111694,1.5899999141693115,1.282974505648613,1.3154549402719617,1.3722955314644982,1.2910945901046895,1.3154548918724407,0.14875143391603365,-1.399999976158142,34.75,0.0,0.0,0.0,0.0,0.0,snow covered,0.277963280677795,-8.98924160003662,100.0,411.495483398438
arenacam6_1769615359499879167.png,1769615359499879167,1769615359.4998791,42.29951127258221,-83.69750266731583,234.62796020507812,0.7297209765382566,0.6837147061825927,0.006101205849020555,0.0020669390150016395,-0.013850000000000001,0.006590000000000001,0.0048000000000000004,2.8174,-0.09720000000000001,-9.5075,0.7453192120845196,1.6672343582803453,1.5799999237060547,1.6200000047683716,1.6899999380111694,1.5899999141693115,1.282974505648613,1.3154549402719617,1.3722955314644982,1.2910945901046895,1.3154548918724407,0.21099581151311236,-1.399999976158142,34.97500228881836,0.0,0.0,0.0,0.0,0.0,snow covered,0.277963280677795,-8.98924160003662,100.0,411.495483398438
arenacam6_1769615359520357712.png,1769615359520357712,1769615359.5203576,42.299511415882606,-83.69750266140788,234.6280517578125,0.7297570859691774,0.6836745776758539,0.006264791137776936,0.0021023105187250738,-0.013450000000000002,0.014370000000000003,0.006560000000000001,2.7667,-0.0137,-9.5625,0.799772283700023,1.7890426122999294,1.899999976158142,1.9299999475479126,1.96999990940094,1.8700000047683716,1.5428174986401917,1.5671777520084214,1.599658089832728,1.5184572452719618,1.5570276464383257,0.12968666272478194,-1.399999976158142,34.75,0.0,0.0,0.0,0.0,0.0,snow covered,0.277963280677795,-8.98924160003662,100.0,411.495483398438
arenacam6_1769615359540067619.png,1769615359540067619,1769615359.5400677,42.299511560008156,-83.69750265546942,234.62815856933594,0.7298079382888499,0.6836187685669664,0.0064232498229277925,0.002119984734640098,-0.01101,0.014300000000000002,0.007190000000000001,2.7840000000000003,0.049600000000000005,-9.5184,0.8528056301308817,1.9076750262649746,2.2100000381469727,1.9299999475479126,1.96999990940094,2.169999837875366,1.7945404071756936,1.5671777520084214,1.599658089832728,1.7620598757533026,1.6808590311925364,0.11889655834962617,-1.600000023841858,34.875,0.0,0.0,0.0,0.0,0.0,snow covered,0.277963280677795,-8.98924160003662,100.0,411.495483398438
arenacam6_1769615359560772139.png,1769615359560772139,1769615359.5607722,42.29951171725349,-83.69750265179363,234.62844848632812,0.7298899022036459,0.683527953333487,0.006766594277677632,0.0021168076831990287,-0.014200000000000003,0.023020000000000002,0.00855,2.9858000000000002,0.137,-9.738900000000001,0.9355355058087836,2.092736794363901,2.2100000381469727,2.190000057220459,2.25,2.169999837875366,1.7945404071756936,1.7783002382635404,1.827020745,1.7620598757533026,1.7904803165481342,0.14443119585310257,-1.899999976158142,34.97500228881836,0.0,0.0,0.0,0.0,0.0,snow covered,0.277963280677795,-8.98924160003662,100.0,411.495483398438
arenacam6_1769615359581378519.png,1769615359581378519,1769615359.5813785,42.299511890256326,-83.69750264350539,234.6281280517578,0.7298936653465745,0.6835212942028293,0.006996297294284272,0.002220243770781562,-0.029790000000000004,0.009150000000000002,-0.00099,2.8754,-0.661,-9.947700000000001,0.9918502629518998,2.218709527207623,2.5999999046325684,2.440000057220459,2.509999990463257,2.3999998569488525,2.111223894560766,1.9813025432635405,2.0381431344560768,1.9488220118411492,2.0198728960303836,0.08961814457410612,-2.299999952316284,35.25,0.0,0.0,0.0,0.0,0.0,snow covered,0.277963280677795,-8.98924160003662,100.0,411.495483398438
arenacam6_1769615359602192140.png,1769615359602192140,1769615359.6021922,42.2995120626727,-83.69750263690463,234.6278839111328,0.7299406451062276,0.6834666531997516,0.007411554005292834,0.0022488781784511754,-0.028160000000000004,0.054180000000000006,0.00801,1.732,-0.29000000000000004,-8.9291,1.0192645417681132,2.280033624062763,3.879999876022339,2.679999828338623,3.169999837875366,2.5899999141693115,3.1505956729289966,2.1761845702093794,2.5740690957533023,2.1031038101046895,2.500988287249092,0.09690851084582362,-2.700000047683716,35.25,0.0,0.0,0.0,0.0,0.0,snow covered,0.277963280677795,-8.98924160003662,100.0,411.495483398438
arenacam6_1769615359622902660.png,1769615359622902660,1769615359.6229029,42.29951224811692,-83.69750263618099,234.62765502929688,0.7299490516396527,0.6834508158299814,0.00798688981876028,0.002360919890083287,-0.05577000000000001,0.028490000000000005,0.0037700000000000003,3.0142,-0.394,-8.4457,1.07639881280511,2.4078395603162632,4.859999656677246,2.8499999046325684,4.360000133514404,2.819999933242798,3.9463645304187587,2.3142261995607667,3.540360307614927,2.2898659461925366,3.022704245946747,0.25535949145620107,-3.200000047683716,34.92499923706055,0.0,0.0,0.0,0.0,0.0,snow covered,0.277963280677795,-8.98924160003662,100.0,411.495483398438
arenacam6_1769615359643528078.png,1769615359643528078,1769615359.6435282,42.2995124467222,-83.69750263381188,234.6265411376953,0.7299743578665872,0.6834152399777644,0.00861166100770746,0.002624103291903422,-0.06347,0.030960000000000005,0.0036100000000000004,2.4699,0.23,-8.9071,1.1272871302180745,2.5216736730700196,6.460000038146973,2.8499999046325684,4.509999752044678,3.069999933242798,5.245579592175694,2.3142261995607667,3.6621613808579925,2.492868251192536,3.4287088559467476,0.3596957023279127,-3.700000047683716,35.07500076293945,0.0,0.0,0.0,0.0,0.0,snow covered,0.277963280677795,-8.98924160003662,100.0,411.495483398438
arenacam6_1769615359664377497.png,1769615359664377497,1769615359.6643777,42.29951264426601,-83.6975026300829,234.62545776367188,0.7299586795754309,0.6834221476450771,0.00926442059525185,0.0029435916357142006,-0.06999000000000001,0.025720000000000003,-0.00491,1.7157,-0.0548,-9.5523,1.169927595022633,2.617057834409929,8.079999923706055,2.9800000190734863,4.809999942779541,3.25,6.5610344356486126,2.4197874910878467,3.90576430173646,2.6390299649999998,3.8814040483682293,0.48311741427119576,-4.400000095367432,35.57500076293945,0.0,0.0,0.0,0.0,0.0,snow covered,0.277963280677795,-8.98924160003662,100.0,411.495483398438
arenacam6_1769615359684906879.png,1769615359684906879,1769615359.6849067,42.299512854151324,-83.69750262952981,234.62445068359375,0.7299371940035335,0.6834327994098072,0.010075109577894426,0.0031294836819458897,-0.06447,0.04630000000000001,-0.0036000000000000008,2.9726000000000004,0.5774,-9.417900000000001,1.2209438535995407,2.731178143870957,9.09999942779541,3.2799999713897705,5.569999694824219,3.3299999237060547,7.389283437364598,2.66339021836823,4.522891107594452,2.703990640648613,4.319888850993974,0.5816942811615003,-4.800000190734863,35.375,0.0,0.0,0.0,0.0,0.0,snow covered,0.277963280677795,-8.98924160003662,100.0,411.495483398438
arenacam6_1769615359706006666.png,1769615359706006666,1769615359.7060068,42.29951330307477,-83.69750261644336,234.62171936035156,0.729850235936039,0.68351487962393,0.010711979842778174,0.003360941034959731,-0.060610000000000004,0.023540000000000002,-0.013930000000000001,3.02,0.2812,-10.6795,1.2771828947612314,2.856981504607189,10.630000114440918,3.490000009536743,5.519999980926514,3.5,8.631658101527082,2.833912185543923,4.482290878912154,2.8420322700000002,4.69747335899579,0.6442085296739269,-5.400000095367432,35.29999923706055,0.0,0.0,0.0,0.0,0.0,snow covered,0.277963280677795,-8.98924160003662,100.0,411.495483398438
arenacam6_1769615359726420306.png,1769615359726420306,1769615359.7264202,42.2995135429793,-83.69750260749525,234.62100219726562,0.7297892692385816,0.6835696697361202,0.011334017970868738,0.0034160148864297636,-0.03898000000000001,0.04966000000000001,-0.006340000000000001,3.0814000000000004,1.4311,-10.770100000000001,1.3255047835573324,2.9650746705307394,11.800000190734863,3.569999933242798,4.960000038146973,3.7099997997283936,9.581708950878468,2.8988728611925363,4.027565762175694,3.0125540435776093,4.880175404456077,0.6458861737814314,-5.400000095367432,35.29999923706055,0.0,0.0,0.0,0.0,0.0,snow covered,0.277963280677795,-8.98924160003662,100.0,411.495483398438
arenacam6_1769615359747312489.png,1769615359747312489,1769615359.7473123,42.299513798262176,-83.69750259124451,234.6208038330078,0.7296691421868221,0.6836938886527806,0.011593994954287673,0.0033449723745878576,-0.008950000000000001,0.01895,-0.022970000000000004,3.3586,-0.060700000000000004,-10.607700000000001,1.3945337516766547,3.1194883304755763,12.899999618530273,3.8299999237060547,4.170000076293945,3.9099998474121094,10.474918628243065,3.109995250648613,3.386078509351387,3.174955926297226,5.036487078635073,0.6145234554755471,-5.400000095367432,34.775001525878906,0.0,0.0,0.0,0.0,0.0,snow covered,0.277963280677795,-8.98924160003662,100.0,411.495483398438
arenacam6_1769615359768724868.png,1769615359768724868,1769615359.768725,42.299514053437555,-83.69750256995282,234.62057495117188,0.7296130932164406,0.6837520845949933,0.011717011212924873,0.003245407120083871,0.011800000000000001,0.025380000000000003,-0.004750000000000001,2.1391,1.8275000000000001,-10.9064,1.441556988054213,3.2246764888579915,13.75999927520752,3.93999981880188,3.8299999237060547,4.230000019073486,11.173246278661823,3.199316179665456,3.109995250648613,3.4347990160878465,5.229339181265935,0.6216631960863424,-5.400000095367432,35.025001525878906,0.0,60.0,0.0,0.0,0.0,snow covered,0.277963280677795,-8.98924160003662,100.0,411.495483398438
arenacam6_1769615359789632133.png,1769615359789632133,1769615359.7896323,42.29951432071584,-83.69750255105792,234.62147521972656,0.7294907863787417,0.6838851148005759,0.01161931672195671,0.0030551303806990453,0.02091,-0.0022500000000000003,-0.015340000000000003,3.2378,0.2985,-11.417,1.5097166108589957,3.377145475494922,14.369999885559082,4.059999942779541,4.059999942779541,4.089999675750732,11.66857239847292,3.29675738673646,3.29675738673646,3.321117446506605,5.395801154613111,0.5977402198886189,-5.200000286102295,35.32500076293945,0.0,144.0,0.0,0.0,0.0,snow covered,0.277963280677795,-8.98924160003662,100.0,411.495483398438
arenacam6_1769615359810256674.png,1769615359810256674,1769615359.8102567,42.29951460391585,-83.69750252603575,234.62303161621094,0.7294268025544107,0.6839561139953352,0.011498175850538153,0.0028923685378768106,0.014140000000000002,0.01685,-0.0105,3.4038000000000004,-0.6004,-11.6639,1.559431583449939,3.4883548862825067,14.429999351501465,4.210000038146973,4.259999752044678,4.259999752044678,11.71729251801321,3.4185588471756936,3.4591590758579924,3.4591590758579924,5.513542379226222,0.5805566116301689,-5.0,35.20000076293945,0.0,252.0,0.0,0.0,0.0,snow covered,0.277963280677795,-8.98924160003662,100.0,411.495483398438
arenacam6_1769615359829788592.png,1769615359829788592,1769615359.8297887,42.299514888355475,-83.69750250127856,234.6243896484375,0.7293592176001986,0.6840327380228827,0.011251088493692926,0.002785322647693268,0.031120000000000002,0.019190000000000006,-0.013310000000000002,2.7113,0.3612,-10.325000000000001,1.6053214962463511,3.591007867813313,14.380000114440918,4.349999904632568,4.420000076293945,4.369999885559082,11.67669267652708,3.5322400295607665,3.5890808143513873,3.5484801984729195,5.586623429728038,0.5557257559365704,-4.900000095367432,35.125,0.0,172.0,0.0,0.0,0.0,snow covered,0.277963280677795,-8.98924160003662,100.0,411.495483398438
arenacam6_1769615359850539424.png,1769615359850539424,1769615359.8505394,42.299515184306316,-83.69750247930811,234.62649536132812,0.7293221057026945,0.684076878142494,0.010948293032838355,0.0028680662255191947,0.01856,-0.025570000000000002,-0.004660000000000001,1.5233,0.8867,-9.892800000000001,1.6549729673320073,3.7020752295436608,14.059999465942383,4.509999752044678,4.549999713897705,4.659999847412109,11.416849199540291,3.6621613808579925,3.694641718682299,3.7839628412972264,5.639403785094451,0.523308802611663,-4.900000095367432,35.275001525878906,0.0,264.0,0.0,0.0,0.0,snow covered,0.277963280677795,-8.98924160003662,100.0,411.495483398438
arenacam6_1769615359871310740.png,1769615359871310740,1769615359.871311,42.29951549315766,-83.69750245170593,234.62838745117188,0.729300698804,0.6841008050991797,0.010810253592286552,0.0031173071587767107,-0.0023500000000000005,-0.012180000000000002,0.007110000000000001,0.9958,1.462,-9.0055,1.727745758074042,3.8648635960661477,13.269999504089355,4.670000076293945,5.279999732971191,4.809999942779541,10.775361946715984,3.7920831193513873,4.287408464770145,3.90576430173646,5.690154458143494,0.4722782102672962,-5.0,35.275001525878906,0.0,296.0,0.0,0.0,0.0,snow covered,0.277963280677795,-8.98924160003662,100.0,411.495483398438
arenacam6_1769615359891986496.png,1769615359891986496,1769615359.8919864,42.29951580525337,-83.69750242978817,234.6302032470703,0.7292950967146429,0.6841056887706332,0.010845534359091868,0.003231545157208805,-0.023480000000000004,-0.021710000000000004,0.00124,2.6288,-0.1723,-8.6646,1.779245032725782,3.9800643835056113,12.309999465942383,4.809999942779541,6.150000095367432,5.159999847412109,9.99583306454029,3.90576430173646,4.993856780439234,4.1899674512972265,5.771355399503303,0.4500658389902567,-5.200000286102295,35.125,0.0,324.0,0.0,0.0,0.0,snow covered,0.277963280677795,-8.98924160003662,100.0,411.495483398438
arenacam6_1769615359912646728.png,1769615359912646728,1769615359.9126468,42.299516127559954,-83.69750240813089,234.63223266601562,0.7293570957100252,0.684038738845576,0.01085594150343726,0.003373311439096039,-0.005260000000000001,-0.021320000000000006,0.009500000000000001,2.1836,-0.29410000000000003,-9.4335,1.822993622769687,4.077927354518424,11.380000114440918,5.0,6.239999771118164,7.429999828338623,9.240665016527082,4.0600461,5.0669373469458385,6.033228365209379,6.100219207170575,0.4959116916125078,-5.400000095367432,35.17499923706055,0.0,332.0,0.0,0.0,0.0,snow covered,0.277963280677795,-8.98924160003662,100.0,411.495483398438
arenacam6_1769615359933179015.png,1769615359933179015,1769615359.9331791,42.29951646115828,-83.69750238535615,234.63340759277344,0.7293990297042432,0.6839902597627004,0.011037007088795247,0.003544642546711094,-0.03354000000000001,-0.0012900000000000001,0.00651,2.4312,-0.36200000000000004,-9.3778,1.8628901583854232,4.167173510898689,10.639999389648438,5.489999771118164,6.809999942779541,9.609999656677246,8.639777605188904,4.457930431945839,5.529782741736461,7.803408325418759,6.607724776072491,0.5856610622981896,-5.800000190734863,35.10000228881836,0.0,276.0,0.0,0.0,0.0,snow covered,0.277963280677795,-8.98924160003662,100.0,411.495483398438
arenacam6_1769615359953792100.png,1769615359953792100,1769615359.953792,42.29951679377526,-83.69750235481139,234.6343994140625,0.7294959488737622,0.6838856895841129,0.011122988722026966,0.003507603273090994,0.012920000000000001,0.030350000000000002,0.012680000000000002,1.6227,1.8921000000000001,-8.6197,1.889506921670961,4.22671361336264,9.869999885559082,6.239999771118164,7.419999599456787,11.429999351501465,8.014530908472919,5.0669373469458385,6.0251080871552185,9.28126485801321,7.096960300146797,0.6790729037590696,-6.400000095367432,34.775001525878906,0.0,224.0,0.0,0.0,0.0,snow covered,0.277963280677795,-8.98924160003662,100.0,411.495483398438
arenacam6_1769615359974665338.png,1769615359974665338,1769615359.9746652,42.299517137671145,-83.6975023322333,234.63539123535156,0.7294847230285314,0.6838990374725291,0.011090260622347765,0.0033393908820879372,0.011070000000000002,0.007260000000000001,-0.0015400000000000001,2.1125000000000003,-0.2932,-8.6594,1.9353376397450397,4.3292341798512695,9.279999732971191,7.230000019073486,8.09999942779541,12.819999694824219,7.535445344770146,5.870826676087847,6.5772742173645975,10.409957952594452,7.59837604770426,0.7551316773455997,-7.0,35.20000076293945,0.0,224.0,0.0,0.0,0.0,snow covered,0.277963280677795,-8.98924160003662,100.0,411.495483398438
arenacam6_1769615359995423065.png,1769615359995423065,1769615359.995423,42.299517490653386,-83.69750230167371,234.6356201171875,0.7295451255008784,0.6838368473511671,0.010988670002197993,0.003213284037713497,0.018340000000000002,-0.0016400000000000002,0.00858,1.8559,0.48150000000000004,-9.4433,1.9715313721766172,4.410197387676763,9.029999732971191,8.760000228881836,10.130000114440918,14.65999984741211,7.332443039770145,7.113200953054162,8.225653491527082,11.904055041297227,8.643838131412153,0.9599662717059517,-7.800000190734863,35.04999923706055,0.0,188.0,0.0,0.0,0.0,snow covered,0.277963280677795,-8.98924160003662,100.0,411.495483398438
arenacam6_1769615360016207550.png,1769615360016207550,1769615360.0162077,42.29951784388282,-83.69750226925973,234.6356658935547,0.7295549485857917,0.6838302302744234,0.010835481151722594,0.0028957736483772776,0.039580000000000004,0.007700000000000001,0.0022,1.5687,1.0059,-9.2974,2.001417666403731,4.477051234685162,9.019999504089355,10.969999313354492,11.579999923706055,15.309999465942383,7.324322761715985,8.907740585837518,9.403066705648614,12.431860724540291,9.516747694435603,1.125673170926945,-9.199999809265137,35.22500228881836,0.0,164.0,0.0,0.0,0.0,snow covered,0.277963280677795,-8.98924160003662,100.0,411.495483398438
arenacam6_1769615360036781802.png,1769615360036781802,1769615360.0367818,42.2995182071348,-83.69750223929503,234.63597106933594,0.7295445536822971,0.6838471817746327,0.010572255195781756,0.002450222737943078,0.04947000000000001,0.0053100000000000005,-0.00384,2.4628,-0.2931,-9.4244,2.042580833976868,4.569130770756216,9.519999504089355,12.559999465942383,12.239999771118164,15.50999927520752,7.730327371715985,10.198835369540292,9.93899266694584,12.594262413661824,10.115604455465984,1.213901278599605,-10.100000381469727,35.10000228881836,0.0,108.0,0.0,0.0,0.0,snow covered,0.277963280677795,-8.98924160003662,100.0,411.495483398438
arenacam6_1769615360057458789.png,1769615360057458789,1769615360.0574586,42.29951857932511,-83.69750220042492,234.63583374023438,0.7295536856483653,0.6838434078245036,0.010243296032807768,0.002165229373603261,0.047990000000000005,-0.006920000000000001,0.00101,1.7231,1.2936,-9.802100000000001,2.07963121626062,4.6520102529020315,11.199999809265137,13.769999504089355,13.969999313354492,16.209999084472656,9.094503109121534,11.181366556715986,11.343768245837518,13.162668712783356,11.195576656114598,1.4066104861077078,-11.100000381469727,35.10000228881836,0.0,28.0,0.0,0.0,0.0,snow covered,0.277963280677795,-8.98924160003662,100.0,411.495483398438
arenacam6_1769615360079838030.png,1769615360079838030,1769615360.079838,42.29951895349751,-83.69750216198061,234.63584899902344,0.7294719347935169,0.6839387514617705,0.00975515246233355,0.0018214274496176973,0.05825000000000001,-0.01607,-0.014180000000000002,1.3638000000000001,0.42500000000000004,-10.4768,2.1098906563701543,4.719698804860653,13.449999809265137,15.34999942779541,14.579999923706055,15.819999694824219,10.921523854121533,12.464341062364598,11.839094365648613,12.845985612594452,12.0177362236823,1.5462930412647633,-11.90000057220459,35.275001525878906,0.0,28.0,0.0,0.0,0.0,snow covered,0.277963280677795,-8.98924160003662,100.0,411.495483398438
arenacam6_1769615360120425908.png,1769615360120425908,1769615360.120426,42.29951972511433,-83.69750208376422,234.63714599609375,0.7292657291916997,0.6841692126079683,0.009059344169351079,0.0013831229562554694,0.02756,-0.026860000000000005,-0.015860000000000003,1.5146000000000002,0.6233000000000001,-10.4707,2.173203314891767,4.861325423213989,16.709999084472656,17.209999084472656,16.06999969482422,15.1899995803833,13.568673322783358,13.974677932783356,13.048987917594452,12.33441971106737,13.231689721057133,1.721827602380342,-13.199999809265137,35.150001525878906,0.0,28.0,0.0,0.0,0.0,snow covered,0.277963280677795,-8.98924160003662,100.0,411.495483398438
arenacam6_1769615360140091259.png,1769615360140091259,1769615360.1400912,42.29952011339876,-83.69750204380087,234.63780212402344,0.7291243561018397,0.6843238292800066,0.008772377693601027,0.0012709871073911675,0.02491,-0.005180000000000001,-0.023840000000000004,1.1145,-0.6615,-10.0713,2.190187094716351,4.899317119654794,18.60999870300293,18.34000015258789,16.100000381469727,14.859999656677246,15.111490531026423,14.892249218702775,13.073348751756935,12.066456730418759,13.785886307976222,1.8138383311973842,-13.5,35.17499923706055,0.0,24.0,0.0,0.0,0.0,snow covered,0.277963280677795,-8.98924160003662,100.0,411.495483398438
arenacam6_1769615360161214908.png,1769615360161214908,1769615360.161215,42.299520510115286,-83.69750200887216,234.63894653320312,0.7289065380813736,0.6845553967344258,0.008790638024393251,0.0013755824672260844,-0.014780000000000003,-0.00783,-0.01768,2.5774,-0.0891,-10.0098,2.2496117432111724,5.032246492858801,19.770000457763672,19.309999465942383,15.559999465942383,14.50999927520752,16.053422651108324,15.679897604540292,12.634863029540291,11.782253193661825,14.037609119712682,1.7895313036897698,-13.800000190734863,35.35000228881836,0.0,168.0,0.0,0.0,0.0,snow covered,0.277963280677795,-8.98924160003662,100.0,411.495483398438
arenacam6_1769615360181930584.png,1769615360181930584,1769615360.1819305,42.299520918675334,-83.69750197280557,234.63998413085938,0.728764694953822,0.6847054245143925,0.008822058015425613,0.0016347237688404855,-0.026600000000000002,-0.01157,-0.024250000000000004,1.8172000000000001,-1.0207,-9.949,2.288471688436702,5.119173858731596,19.709999084472656,20.03999900817871,14.739999771118164,14.719999313354492,16.004700982783355,16.27266396343197,11.96901571694584,11.952775160837517,14.049788955999672,1.7445422530503507,-14.100000381469727,35.07500076293945,0.0,168.0,0.0,0.0,0.0,snow covered,0.277963280677795,-8.98924160003662,100.0,411.495483398438
arenacam6_1769615360202242196.png,1769615360202242196,1769615360.2022424,42.2995213255072,-83.69750194199615,234.64100646972656,0.7286745775836311,0.6847964811295131,0.009099419741248456,0.002083260983615919,-0.057420000000000006,-0.007170000000000001,-0.008810000000000002,1.5847,-0.1776,-9.863100000000001,2.317942918427195,5.1850992319465306,18.920000076293945,20.3799991607666,13.369999885559082,14.5,15.363214504351387,16.548747222134743,10.85656317847292,11.77413369,13.635664648739763,1.6297789181598397,-14.300000190734863,35.32500076293945,0.0,176.0,0.0,0.0,0.0,snow covered,0.277963280677795,-8.98924160003662,100.0,411.495483398438
arenacam6_1769615360222887121.png,1769615360222887121,1769615360.2228873,42.29952174261731,-83.69750191313737,234.6423797607422,0.7286076290625007,0.6848617053019501,0.009418454870534818,0.002580734522994556,-0.05834000000000001,-0.017120000000000003,-0.012820000000000003,2.2644,0.0741,-9.6049,2.362189929309919,5.284077140470531,17.670000076293945,19.739999771118164,12.75999927520752,13.65999984741211,14.348202979351388,16.029061816945838,10.361237058661825,11.092045821297226,12.95763691906407,1.4522043442216348,-14.600000381469727,35.375,0.0,176.0,0.0,0.0,0.0,snow covered,0.277963280677795,-8.98924160003662,100.0,411.495483398438
arenacam6_1769615360243573453.png,1769615360243573453,1769615360.2435734,42.2995221708745,-83.69750188348539,234.6435089111328,0.7285511283047548,0.684916093784324,0.00966606679171981,0.0031249118179124346,-0.05523,-0.018850000000000002,-0.006,1.2118,-0.128,-10.0425,2.39032288428733,5.3470088727777,16.260000228881836,19.020000457763672,12.369999885559082,12.769999504089355,13.203270103054162,15.444415736108322,10.04455395847292,10.369357336715984,12.265399283587847,1.2938804807361646,-14.90000057220459,35.25,0.0,88.0,0.0,0.0,0.0,snow covered,0.277963280677795,-8.98924160003662,100.0,411.495483398438
arenacam6_1769615360264244570.png,1769615360264244570,1769615360.2642446,42.29952259755909,-83.69750185474507,234.64479064941406,0.7285391474538122,0.684922226294546,0.009999703577038164,0.0035014973035268453,-0.04774000000000001,-0.00101,-0.00262,1.9633,0.16540000000000002,-9.8271,2.4203516416148156,5.414181401193846,15.089999198913574,17.959999084472656,12.219999313354492,11.920000076293945,12.253218479310437,14.583684847783356,9.922752110837518,9.679149964351387,11.609701350570676,1.1443133301759516,-15.100000381469727,35.375,0.0,68.0,0.0,0.0,0.0,snow covered,0.277963280677795,-8.98924160003662,100.0,411.495483398438
arenacam6_1769615360285101885.png,1769615360285101885,1769615360.285102,42.29952303329241,-83.69750182782624,234.646240234375,0.7285496749023083,0.6849077372462933,0.010141121685479626,0.0037309932811414393,-0.016700000000000003,-0.0065000000000000014,0.004320000000000001,2.105,0.8639,-10.2749,2.4615260121277904,5.50628599756914,13.199999809265137,16.850000381469727,11.460000038146973,11.170000076293945,10.718521549121533,13.682355666756935,9.305625692175694,9.070143049351387,10.694161489351387,0.9421732714342368,-15.40000057220459,35.79999923706055,0.0,44.0,0.0,0.0,0.0,snow covered,0.277963280677795,-8.98924160003662,100.0,411.495483398438
arenacam6_1769615360305935105.png,1769615360305935105,1769615360.3059351,42.29952392398486,-83.69750176763071,234.64854431152344,0.7285867718879769,0.6848687994778091,0.010086665166137206,0.0037818669341804466,0.0020000000000000005,-0.0036600000000000005,0.004480000000000001,1.7108,-0.197,-10.261700000000001,2.4959806723696243,5.583359005250507,11.819999694824219,15.960000038146973,10.529999732971191,10.710000038146973,9.597948732594453,12.959667182175693,8.550456869770146,8.696618777175694,9.951172890428996,0.7822914272700469,-15.600000381469727,36.17499923706055,0.0,40.0,0.0,0.0,0.0,snow covered,0.277963280677795,-8.98924160003662,100.0,411.495483398438
arenacam6_1769615360326780976.png,1769615360326780976,1769615360.326781,42.29952437876645,-83.69750173579703,234.6502227783203,0.7286694219864824,0.6847813291203223,0.010090648554536105,0.0036855883979845325,0.010450000000000001,0.014140000000000002,0.015540000000000003,1.8571000000000002,0.6454000000000001,-9.380600000000001,2.527875471732403,5.654705757737082,10.550000190734863,15.769999504089355,10.239999771118164,10.170000076293945,8.566697425878468,12.805384996715986,8.31497422694584,8.258133829351388,9.48629761972292,0.6775934993157234,-15.600000381469727,36.0,0.0,32.0,0.0,0.0,0.0,snow covered,0.277963280677795,-8.98924160003662,100.0,411.495483398438
arenacam6_1769615360348414934.png,1769615360348414934,1769615360.348415,42.29952484528628,-83.69750170223153,234.65110778808594,0.728764592479845,0.6846834956026016,0.009983892812313053,0.0033168481122707637,0.041240000000000006,0.01856,0.012790000000000001,2.7147,0.51,-9.5967,2.576855057230114,5.764270151720332,8.519999504089355,14.710000038146973,9.800000190734863,9.649999618530273,6.918318151715985,11.944655657175694,7.957690510878468,7.8358886632430655,8.664138245753303,0.5030763683356362,-15.600000381469727,36.0,0.0,4.0,0.0,0.0,0.0,snow covered,0.277963280677795,-8.98924160003662,100.0,411.495483398438
arenacam6_1769615360368759782.png,1769615360368759782,1769615360.3687599,42.299525309815714,-83.69750166768324,234.65216064453125,0.728910664247185,0.6845322639770314,0.00981123175332595,0.002926235241738408,0.035550000000000005,0.013740000000000002,0.026410000000000006,2.0274,0.027700000000000002,-10.309000000000001,2.620352444829559,5.861571197937034,7.12999963760376,13.59000015258789,9.170000076293945,9.170000076293945,5.789625444330912,11.035205423702774,7.446124609351387,7.446124609351387,7.929270021684115,0.3527550470554383,-15.40000057220459,35.97500228881836,0.0,4.0,0.0,0.0,0.0,snow covered,0.277963280677795,-8.98924160003662,100.0,411.495483398438
arenacam6_1769615360390436533.png,1769615360390436533,1769615360.3904366,42.29952578848863,-83.69750162917268,234.6542510986328,0.7290067040095524,0.68443422717074,0.009636780677398163,0.0024792427263950045,0.05584000000000001,0.030240000000000003,0.0066500000000000005,2.2103,1.2937,-11.020100000000001,2.6544714148879587,5.93789328681947,7.829999923706055,13.34999942779541,7.919999599456787,8.059999465942383,6.358032130648613,10.840322622364598,6.431112697155218,6.544793879540292,7.54356533242718,0.2704110646737069,-15.5,36.0,0.0,16.0,0.0,0.0,0.0,snow covered,0.277963280677795,-8.98924160003662,100.0,411.495483398438
arenacam6_1769615360410352428.png,1769615360410352428,1769615360.4103525,42.299526281807445,-83.69750159396257,234.65638732910156,0.7291331929791979,0.6843067907238871,0.0092313193303879,0.001945715435029667,0.06983,-0.0033400000000000005,0.023370000000000005,4.0225,-0.6123000000000001,-10.5202,2.7268665728997714,6.099836911582415,7.659999847412109,12.920000076293945,7.46999979019165,7.230000019073486,6.219990501297226,10.491159184351387,6.065708703033686,5.870826676087847,7.161921266192537,0.17411684443455017,-15.5,36.22500228881836,0.0,16.0,0.0,0.0,0.0,snow covered,0.277963280677795,-8.98924160003662,100.0,411.495483398438
arenacam6_1769615360430054211.png,1769615360430054211,1769615360.4300542,42.299526768304716,-83.6975015484471,234.65859985351562,0.7292718204746038,0.6841631817314342,0.00888388957999399,0.0021045500013657475,-0.009240000000000002,-0.031110000000000002,0.024730000000000005,0.7446,0.0412,-11.2568,2.7568368504809824,6.166878624314929,7.899999618530273,12.9399995803833,7.569999694824219,7.549999713897705,6.414872528243065,10.507398966067372,6.146909547594452,6.130669378682298,7.299962605146797,0.18373703292364393,-15.5,36.10000228881836,0.0,0.0,0.0,0.0,0.0,snow covered,0.277963280677795,-8.98924160003662,100.0,411.495483398438
arenacam6_1769615360450531499.png,1769615360450531499,1769615360.4505315,42.29952727265786,-83.69750150984629,234.66197204589844,0.7293917119186146,0.6840362836069221,0.008826768818390871,0.002044858403305526,0.01821,0.00019000000000000004,0.014510000000000002,2.7941000000000003,1.4805000000000001,-10.082600000000001,2.7920283788759006,6.245599961842657,8.59999942779541,12.829999923706055,7.71999979019165,7.62999963760376,6.983278827364597,10.418078230648614,6.268711008033685,6.195630054330912,7.466424530094452,0.19546954267170372,-15.600000381469727,36.22500228881836,0.0,0.0,0.0,0.0,0.0,snow covered,0.277963280677795,-8.98924160003662,100.0,411.495483398438
arenacam6_1769615360471585247.png,1769615360471585247,1769615360.4715853,42.299527787837164,-83.69750147347192,234.66549682617188,0.729480226892062,0.6839457529733701,0.00834023158374159,0.0026918581546526293,-0.03736000000000001,-0.056420000000000005,0.01665,1.9334,-0.8461000000000001,-11.2592,2.8719027459999897,6.424274128637218,9.050000190734863,12.829999923706055,7.940000057220459,7.87999963760376,7.348683595878468,10.418078230648614,6.4473532532635405,6.398632359330912,7.653186859780383,0.19129207542142265,-15.5,36.04999923706055,0.0,0.0,0.0,0.0,0.0,snow covered,0.277963280677795,-8.98924160003662,100.0,411.495483398438
arenacam6_1769615360492030630.png,1769615360492030630,1769615360.4920306,42.29952830112989,-83.69750142431512,234.6685791015625,0.729580158840202,0.683840204353919,0.008092547272910684,0.003142835428615358,-0.0030700000000000002,-0.03545000000000001,0.010320000000000001,1.6353,1.5081,-9.1144,2.8964890529656127,6.479272222140898,10.369999885559082,13.00999927520752,8.09000015258789,7.899999618530273,8.42053551847292,10.564239363661825,6.569154713702774,6.414872528243065,7.992200531020146,0.23350281590412053,-15.5,36.125,0.0,0.0,0.0,0.0,0.0,snow covered,0.277963280677795,-8.98924160003662,100.0,411.495483398438
arenacam6_1769615360512734223.png,1769615360512734223,1769615360.5127342,42.29952882610367,-83.69750138457496,234.67237854003906,0.7295627194082517,0.683861881267596,0.007719178595367991,0.0034029517472332904,0.00423,-0.041510000000000005,-0.00223,2.7356000000000003,-0.6533,-8.6575,2.9455148033457803,6.58893988419631,11.199999809265137,12.329999923706055,8.260000228881836,8.319999694824219,9.094503109121534,10.012073620648613,6.707196343054161,6.7559164625944526,8.14242238385469,0.23577123588339846,-15.300000190734863,36.025001525878906,0.0,0.0,0.0,0.0,0.0,snow covered,0.277963280677795,-8.98924160003662,100.0,411.495483398438
arenacam6_1769615360533404665.png,1769615360533404665,1769615360.5334046,42.29952936340936,-83.69750134368931,234.6751708984375,0.7296575835120268,0.6837621906363887,0.0073122135572913135,0.003950824269555806,-0.013310000000000002,-0.06846000000000001,0.015920000000000004,2.0043,0.3453,-8.9928,2.9947227585545884,6.699015127521101,11.079999923706055,10.539999961853027,8.979999542236328,8.670000076293945,8.997062095648614,8.558577147824307,7.291842423891678,7.040119999351387,7.971900416678996,0.19001080978733542,-15.0,36.025001525878906,0.0,0.0,0.0,0.0,0.0,snow covered,0.277963280677795,-8.98924160003662,100.0,411.495483398438
arenacam6_1769615360553938197.png,1769615360553938197,1769615360.5539382,42.29952989832591,-83.69750129749872,234.67762756347656,0.7296912381782218,0.6837267656554813,0.0070998600020588075,0.004242503998762169,-0.0019400000000000003,-0.030770000000000002,0.0009300000000000002,1.2144000000000001,1.1981000000000002,-7.888800000000001,3.0217443443858096,6.759460793730393,10.420000076293945,8.720000267028809,9.239999771118164,9.6899995803833,8.461136134351387,7.080720615229854,7.502965006945839,7.8683690010673715,7.728297689398612,0.1433305000550998,-14.40000057220459,35.775001525878906,0.0,20.0,0.0,0.0,0.0,snow covered,0.277963280677795,-8.98924160003662,100.0,411.495483398438
arenacam6_1769615360574782042.png,1769615360574782042,1769615360.574782,42.299530443710324,-83.69750125424865,234.67996215820312,0.7296631468959818,0.683758942159188,0.006950375783047151,0.0041344111643085105,0.019770000000000003,-0.007500000000000001,-0.0023800000000000006,1.8364,-0.8413,-8.1027,3.050936236439448,6.82476130474086,9.569999694824219,8.5,9.170000076293945,10.859999656677246,7.770927987594452,6.90207837,7.446124609351387,8.81841985041876,7.73438770434115,0.13328325475184205,-14.0,35.85000228881836,0.0,36.0,0.0,0.0,0.0,snow covered,0.277963280677795,-8.98924160003662,100.0,411.495483398438
arenacam6_1769615360595775295.png,1769615360595775295,1769615360.5957751,42.29953100052763,-83.69750121215503,234.6807403564453,0.7296743331679871,0.6837465367358172,0.007023634646996647,0.004087734577330563,-0.0048600000000000015,0.006590000000000001,0.004000000000000001,2.3402000000000003,0.2649,-8.6692,3.09782028761537,6.929638114178327,8.510000228881836,8.809999465942383,9.4399995803833,11.59999942779541,6.910198648054161,7.153800794540291,7.665366696067372,9.419306487364599,7.787168156506606,0.12374817100098448,-12.90000057220459,35.775001525878906,0.0,36.0,0.0,0.0,0.0,snow covered,0.277963280677795,-8.98924160003662,100.0,411.495483398438
arenacam6_1769615360617752958.png,1769615360617752958,1769615360.6177528,42.29953155349359,-83.69750116643581,234.68133544921875,0.7296558051417434,0.6837668813942089,0.007107875234775116,0.0038387551418008893,0.021070000000000005,0.026610000000000005,-0.0048200000000000005,0.9324,0.3981,-8.6601,3.1186099429507443,6.976143325784238,8.670000076293945,8.529999732971191,9.609999656677246,12.179999351501465,7.040119999351387,6.926438429770146,7.803408325418759,9.890271773013211,7.915059631888376,0.1345895951755818,-12.5,35.92499923706055,0.0,40.0,0.0,0.0,0.0,snow covered,0.277963280677795,-8.98924160003662,100.0,411.495483398438
arenacam6_1769615360637868173.png,1769615360637868173,1769615360.6378684,42.2995321163995,-83.69750112340245,234.6820526123047,0.7296636831793867,0.6837577981641949,0.007428265607999203,0.003317192909800668,0.010050000000000002,0.07772000000000001,0.00529,1.8709,-1.3113000000000001,-8.8695,3.144721457319896,7.0345532167371685,8.920000076293945,8.899999618530273,9.550000190734863,12.769999504089355,7.243122304351388,7.226881748243065,7.754688205878468,10.369357336715984,8.148512398797227,0.15835535644390858,-12.0,35.70000076293945,0.0,48.0,0.0,0.0,0.0,snow covered,0.277963280677795,-8.98924160003662,100.0,411.495483398438
arenacam6_1769615360658977323.png,1769615360658977323,1769615360.6589773,42.29953269231101,-83.6975010882414,234.6815185546875,0.7297174823302838,0.683695780368081,0.00792966407131316,0.00309779214102096,-0.02553,0.03797000000000001,0.012740000000000001,2.6196,-0.5458000000000001,-8.471,3.2014567047990297,7.161466561233142,8.979999542236328,9.050000190734863,9.550000190734863,13.279999732971191,7.291842423891678,7.348683595878468,7.754688205878468,10.783482224770147,8.29467411260469,0.15823679991831457,-11.5,35.70000076293945,0.0,72.0,0.0,0.0,0.0,snow covered,0.277963280677795,-8.98924160003662,100.0,411.495483398438
arenacam6_1769615360679377601.png,1769615360679377601,1769615360.6793776,42.2995332634507,-83.69750104945261,234.68116760253906,0.7298074950300112,0.6835937363044757,0.008514249162726927,0.0028515687790617965,-0.019370000000000002,0.07058,0.013740000000000002,1.3912,-0.49970000000000003,-9.1843,3.230729512945029,7.226948076687253,9.699999809265137,9.75,9.479999542236328,13.679999351501465,7.876489279121533,7.917089895,7.697847033891678,11.108285603013211,8.649927952756606,0.19689914206795156,-11.199999809265137,35.45000076293945,0.0,72.0,0.0,0.0,0.0,snow covered,0.277963280677795,-8.98924160003662,100.0,411.495483398438
arenacam6_1769615360699893201.png,1769615360699893201,1769615360.6998932,42.29953385091805,-83.69750101688705,234.68081665039062,0.7299031244283802,0.68348143741299,0.009370421727634654,0.002597856464042194,-0.050800000000000005,0.0666,0.016430000000000004,3.5315000000000003,-1.0444,-9.4384,3.288616580365561,7.356437973282939,10.369999885559082,10.149999618530273,9.359999656677246,13.380000114440918,8.42053551847292,8.241893273243065,7.600406020418759,10.86468345652708,8.781879567165456,0.19376790765577384,-11.100000381469727,35.20000076293945,0.0,80.0,0.0,0.0,0.0,snow covered,0.277963280677795,-8.98924160003662,100.0,411.495483398438
arenacam6_1769615360719669634.png,1769615360719669634,1769615360.7196698,42.29953445263114,-83.69750098779612,234.6799774169922,0.7300775591773179,0.6832863506785051,0.009991709099288388,0.002585790288479772,-0.032720000000000006,0.047270000000000006,0.02655,2.5088,0.1373,-10.3826,3.34249950140282,7.476970834668024,11.319999694824219,11.719999313354492,9.34999942779541,12.739999771118164,9.191944122594451,9.516747500837518,7.592285742364598,10.34499727694584,9.1614936606856,0.22529482370147147,-11.100000381469727,35.04999923706055,0.0,80.0,0.0,0.0,0.0,snow covered,0.277963280677795,-8.98924160003662,100.0,411.495483398438
arenacam6_1769615360741219292.png,1769615360741219292,1769615360.7412193,42.299535053009244,-83.69750096330459,234.6792755126953,0.7303528701425707,0.6829817666870148,0.010692946160838147,0.0025004699547978254,-0.013620000000000002,0.03742,0.0342,2.1076,1.1131,-11.4411,3.39797242645991,7.601060439645231,12.199999809265137,12.739999771118164,9.449999809265137,11.90999984741211,9.906512329121533,10.34499727694584,7.673486974121532,9.671029686297226,9.399006566621532,0.2365388541839062,-11.100000381469727,34.625,0.0,88.0,0.0,0.0,0.0,snow covered,0.277963280677795,-8.98924160003662,100.0,411.495483398438
arenacam6_1769615360761031014.png,1769615360761031014,1769615360.761031,42.29953566604473,-83.697500931081,234.6797332763672,0.7305136819738847,0.6828085717568041,0.010796739003915451,0.002375965334920654,-0.0026400000000000004,0.0007000000000000001,0.021880000000000004,3.6335,-0.17850000000000002,-12.4228,3.4665672554748648,7.754502956461945,13.179999351501465,13.469999313354492,9.559999465942383,10.559999465942383,10.702280993013211,10.937763635837516,7.762807709540291,8.57481692954029,9.494417316982826,0.22437471109234466,-11.100000381469727,34.67499923706055,0.0,64.0,0.0,0.0,0.0,snow covered,0.277963280677795,-8.98924160003662,100.0,411.495483398438
arenacam6_1769615360781846547.png,1769615360781846547,1769615360.7818465,42.29953629354449,-83.69750089606939,234.68115234375,0.7307655482018137,0.6825439642571951,0.010491631473440595,0.00231863891129102,0.04612000000000001,-0.010000000000000002,0.03869000000000001,2.0488,1.2407000000000001,-11.869200000000001,3.5075094483453695,7.846088185381691,14.380000114440918,13.989999771118164,9.84999942779541,9.519999504089355,11.67669267652708,11.36000880194584,7.998290352364598,7.730327371715985,9.691329800638377,0.23517982103420867,-11.100000381469727,34.97500228881836,0.0,64.0,0.0,0.0,0.0,snow covered,0.277963280677795,-8.98924160003662,100.0,411.495483398438
arenacam6_1769615360804548624.png,1769615360804548624,1769615360.8045485,42.29953691912062,-83.69750086225483,234.68251037597656,0.7308724118777268,0.6824349558717276,0.010153509934277369,0.0022259371963369583,0.012480000000000002,-0.010790000000000003,0.01674,3.2589,-0.2831,-12.0692,3.5573581870099376,7.95759682285001,14.65999984741211,14.4399995803833,9.969999313354492,9.75,11.904055041297227,11.725412796067372,8.095731365837517,7.917089895,9.910572274550528,0.24542276960961448,-11.100000381469727,35.29999923706055,0.0,32.0,0.0,0.0,0.0,snow covered,0.277963280677795,-8.98924160003662,100.0,411.495483398438
arenacam6_1769615360823202766.png,1769615360823202766,1769615360.8232028,42.29953755815001,-83.69750081836177,234.6855010986328,0.7310891910154963,0.6822126460529911,0.009481497603206277,0.0021451221140047594,0.07479000000000001,-0.031120000000000002,0.02919,2.9687,1.834,-10.3538,3.611407396347039,8.078501661184546,14.059999465942383,14.199999809265137,10.179999351501465,9.84999942779541,11.416849199540291,11.530530769121533,8.26625333301321,7.998290352364598,9.802980913509908,0.21346523460050904,-11.0,35.150001525878906,0.0,32.0,0.0,0.0,0.0,snow covered,0.277963280677795,-8.98924160003662,100.0,411.495483398438
arenacam6_1769615360843815410.png,1769615360843815410,1769615360.8438153,42.29953821409335,-83.69750077598219,234.6891632080078,0.7311471022154014,0.6821598601938492,0.008757175146536378,0.0022697898102149484,0.021740000000000002,-0.058690000000000006,0.01024,1.5030000000000001,-0.9331,-9.6005,3.661849860524645,8.191338427002,13.039999961853027,13.15999984741211,10.300000190734863,10.039999961853027,10.588600197824306,10.686041211297226,8.363695120878468,8.152572537824307,9.447727266956077,0.1533801650548958,-11.0,34.82500076293945,0.0,24.0,0.0,0.0,0.0,snow covered,0.277963280677795,-8.98924160003662,100.0,411.495483398438
arenacam6_1769615360864385248.png,1769615360864385248,1769615360.8643854,42.29953886635586,-83.69750073627124,234.692626953125,0.7313205694693548,0.6819756076797555,0.008539883775590226,0.00256233993573832,-0.011230000000000002,-0.04785000000000001,0.02441,2.9382,0.2291,-8.772400000000001,3.7120977544742186,8.30373995089356,12.569999694824219,11.699999809265137,10.6899995803833,10.219999313354492,10.206955647594452,9.500507719121533,8.680378221067372,8.298733670837517,9.17164381465522,0.10451963439296592,-10.90000057220459,34.5,0.0,16.0,0.0,0.0,0.0,snow covered,0.277963280677795,-8.98924160003662,100.0,411.495483398438
arenacam6_1769615360885039966.png,1769615360885039966,1769615360.8850398,42.29953953280227,-83.69750069208408,234.6960906982422,0.7313462725579749,0.6819464653982505,0.008519530599680723,0.003010904307710249,-0.04002000000000001,-0.029690000000000005,0.0032700000000000003,2.7585,-0.3987,-9.5458,3.762985413026863,8.417572589816311,11.859999656677246,10.239999771118164,10.59999942779541,10.369999885559082,9.630429070418758,8.31497422694584,8.607297267364597,8.42053551847292,8.74330902080053,0.03869719298628898,-10.699999809265137,34.85000228881836,0.0,12.0,0.0,0.0,0.0,snow covered,0.277963280677795,-8.98924160003662,100.0,411.495483398438
arenacam6_1769615360905970974.png,1769615360905970974,1769615360.905971,42.29954089383559,-83.69750061110621,234.7020721435547,0.7314096774478187,0.6818717305940465,0.008780025802423312,0.0037064672218314865,-0.07437,-0.021820000000000003,0.014500000000000002,2.0498000000000003,-0.1819,-10.7186,3.800369455623452,8.501198450062326,10.630000114440918,10.529999732971191,10.639999389648438,10.469999313354492,8.631658101527082,8.550456869770146,8.639777605188904,8.501735975837518,8.580907138080912,0.009376170723082207,-10.600000381469727,34.92499923706055,0.0,4.0,0.0,0.0,0.0,snow covered,0.277963280677795,-8.98924160003662,100.0,411.495483398438
arenacam6_1769615360927919979.png,1769615360927919979,1769615360.9279199,42.299541582895536,-83.69750057090349,234.70553588867188,0.7314562100079456,0.6818113021764599,0.00922337929123063,0.004482224860759288,-0.09358000000000001,-0.019600000000000003,0.004030000000000001,2.0421,-0.6299,-10.118400000000001,3.840817327573182,8.591677912741554,10.59999942779541,10.729999542236328,10.489999771118164,10.429999351501465,8.607297267364597,8.712858558891678,8.51797653194584,8.46925563801321,8.576846999053831,0.0017261952599187062,-10.40000057220459,34.79999923706055,0.0,0.0,0.0,0.0,0.0,snow covered,0.277963280677795,-8.98924160003662,100.0,411.495483398438
arenacam6_1769615360948586842.png,1769615360948586842,1769615360.9485867,42.29954228425128,-83.69750053311519,234.70909118652344,0.7314699860271221,0.6817853601195186,0.009666003708520854,0.00519140062863244,-0.07379000000000002,-0.009710000000000002,0.017120000000000003,1.6768,0.886,-10.3405,3.870512214547241,8.658103593209306,10.779999732971191,10.90999984741211,10.699999809265137,10.789999961853027,8.753459174770146,8.859020466297226,8.688498499121533,8.761579452824307,8.765639398253303,0.012420249294353373,-10.300000190734863,34.775001525878906,0.0,0.0,0.0,0.0,0.0,snow covered,0.277963280677795,-8.98924160003662,100.0,411.495483398438
arenacam6_1769615360970146507.png,1769615360970146507,1769615360.9701467,42.299542986005015,-83.69750049770646,234.71250915527344,0.7315375116593166,0.6817050980651463,0.00987470645143399,0.005789514641364691,-0.05716,-0.039040000000000005,0.004620000000000001,2.2416,-0.3043,-9.7573,3.919255113597259,8.767138533810252,10.979999542236328,11.59999942779541,10.899999618530273,11.179999351501465,8.915860863891679,9.419306487364599,8.850900188243065,9.07826255301321,9.066082523128138,0.03409823948429875,-10.0,34.625,0.0,0.0,0.0,0.0,0.0,snow covered,0.277963280677795,-8.98924160003662,100.0,411.495483398438
arenacam6_1769615360990517088.png,1769615360990517088,1769615360.990517,42.29954369824102,-83.69750045562571,234.71600341796875,0.7315975487134813,0.6816336953743896,0.01004974121005486,0.006287666362826077,-0.040440000000000004,-0.020780000000000003,0.015160000000000003,1.9571,0.2485,-9.2232,3.956775571154584,8.851069546138536,11.119999885559082,11.539999961853027,11.050000190734863,11.4399995803833,9.029542433472919,9.370586367824306,8.972702035878468,9.289385136067372,9.165553993310766,0.03553067180558202,-9.800000190734863,34.70000076293945,0.0,0.0,0.0,0.0,0.0,snow covered,0.277963280677795,-8.98924160003662,100.0,411.495483398438
arenacam6_1769615361010227667.png,1769615361010227667,1769615361.0102277,42.29954442296542,-83.69750041176044,234.7186737060547,0.7317137759427043,0.6815088566228669,0.009951347300756372,0.0064497385344292,0.010700000000000001,-0.03645000000000001,0.01708,2.6807000000000003,1.2683,-8.4853,4.011167584826594,8.972741217202001,11.010000228881836,11.75999927520752,11.1899995803833,11.429999351501465,8.940221698054161,9.549227838661823,9.086382831067372,9.28126485801321,9.214274306449141,0.026918539541081064,-9.5,35.10000228881836,0.0,0.0,0.0,0.0,0.0,snow covered,0.277963280677795,-8.98924160003662,100.0,411.495483398438
arenacam6_1769615361029845133.png,1769615361029845133,1769615361.0298452,42.29954514621464,-83.69750037019044,234.7214813232422,0.7318063686566432,0.6814172191586246,0.009550163918576287,0.006229494107267787,0.045970000000000004,-0.014890000000000002,0.018290000000000004,1.3531,0.0741,-8.8764,4.041305903428995,9.040158827616457,11.170000076293945,12.59999942779541,11.34999942779541,11.75,9.070143049351387,10.231315707364598,9.216304182364599,9.541108335,9.514717818520147,0.052494541296550734,-9.100000381469727,34.900001525878906,0.0,0.0,0.0,0.0,0.0,snow covered,0.277963280677795,-8.98924160003662,100.0,411.495483398438
arenacam6_1769615361050549203.png,1769615361050549203,1769615361.0505493,42.299545880099515,-83.69750031845417,234.7237091064453,0.731958099810475,0.6812658930792628,0.009082788225135075,0.005623700455278422,0.09113000000000002,0.007600000000000001,0.0204,2.4563,1.5713000000000001,-8.8041,4.075800216188297,9.11732053560025,11.729999542236328,12.929999351501465,11.469999313354492,11.989999771118164,9.524867778891679,10.499278688013211,9.313745195837516,9.73599036194584,9.768470506172061,0.0714190060587732,-8.699999809265137,34.900001525878906,0.0,0.0,0.0,0.0,0.0,snow covered,0.277963280677795,-8.98924160003662,100.0,411.495483398438
arenacam6_1769615361071599093.png,1769615361071599093,1769615361.071599,42.299546626384355,-83.69750026063679,234.7252655029297,0.7321833952300633,0.681048380360622,0.007884030717253541,0.004292017847121058,0.11900000000000001,-0.0034300000000000003,0.0318,2.2054,0.2927,-9.2613,4.149998222556371,9.283297023965249,11.769999504089355,12.739999771118164,11.800000190734863,11.449999809265137,9.557348116715985,10.34499727694584,9.581708950878468,9.297505414121533,9.695389939665457,0.0443907929086371,-8.199999809265137,34.875,0.0,0.0,0.0,0.0,0.0,snow covered,0.277963280677795,-8.98924160003662,100.0,411.495483398438
arenacam6_1769615361092170876.png,1769615361092170876,1769615361.0921707,42.299547371263465,-83.69750020467262,234.7267608642578,0.7323624509754239,0.6808666356370235,0.007307560650328799,0.0035305006631407626,0.08093000000000002,0.015460000000000002,0.022390000000000004,1.9484000000000001,-0.6741,-9.3857,4.184015922254913,9.359392577128906,12.059999465942383,12.479999542236328,11.929999351501465,11.809999465942383,9.79283075954029,10.133874693891677,9.687269468013211,9.58982845454029,9.800950843996366,0.04717809016222642,-7.599999904632568,34.60000228881836,0.0,4.0,0.0,0.0,0.0,snow covered,0.277963280677795,-8.98924160003662,100.0,411.495483398438
arenacam6_1769615361114521719.png,1769615361114521719,1769615361.1145215,42.299548127491356,-83.6975001456892,234.72764587402344,0.7325532993876808,0.6806658305362494,0.0071544316860654225,0.002916299687996888,0.05748000000000001,0.03672,0.026780000000000005,2.8795,1.1375,-7.4739,4.23349479615441,9.470073849309648,12.960000038146973,11.649999618530273,11.90999984741211,12.199999809265137,10.523639522175694,9.459907103243065,9.671029686297226,9.906512329121533,9.89027216020938,0.04437117572534702,-7.0,34.42499923706055,0.0,4.0,0.0,0.0,0.0,snow covered,0.277963280677795,-8.98924160003662,100.0,411.495483398438
arenacam6_1769615361133308247.png,1769615361133308247,1769615361.1333082,42.299548897191656,-83.69750008954536,234.7277069091797,0.7326305704523568,0.6805842903456804,0.00707256762447153,0.002729424942812954,-0.0021100000000000003,-0.00124,0.013770000000000003,1.588,-1.0526,-8.6251,4.278750629229657,9.57130843254899,13.179999351501465,12.09999942779541,12.139999389648438,11.649999618530273,10.702280993013211,9.825311097364597,9.857791435188904,9.459907103243065,9.961322657202444,0.04074826627957563,-6.700000286102295,34.54999923706055,0.0,0.0,0.0,0.0,0.0,snow covered,0.277963280677795,-8.98924160003662,100.0,411.495483398438
arenacam6_1769615361154126588.png,1769615361154126588,1769615361.1541266,42.299549664840804,-83.697500035015,234.72821044921875,0.7327197044445485,0.6804799696293788,0.007784037386552696,0.002873049574560892,-0.08346000000000002,0.05007000000000001,0.016390000000000002,2.0883000000000003,-1.5747,-10.655700000000001,4.305246790379833,9.630578755272264,12.50999927520752,12.300000190734863,12.059999465942383,11.920000076293945,10.158234753661825,9.987713560878468,9.79283075954029,9.679149964351387,9.904482259607992,0.02844102221642485,-6.700000286102295,34.0,0.0,0.0,0.0,0.0,0.0,snow covered,0.277963280677795,-8.98924160003662,100.0,411.495483398438
arenacam6_1769615361174846408.png,1769615361174846408,1769615361.1748464,42.29955044364574,-83.69749997892224,234.72848510742188,0.732860527247297,0.6803168159363692,0.008531998956483442,0.0034179746664932385,-0.07500000000000001,0.00642,0.018690000000000002,2.3107,2.1187,-10.4929,4.359525994449178,9.751998078023144,12.139999389648438,12.679999351501465,12.0,12.199999809265137,9.857791435188904,10.29627638301321,9.74411064,9.906512329121533,9.951172696830913,0.02042398052319387,-6.800000190734863,34.125,0.0,0.0,0.0,0.0,0.0,snow covered,0.277963280677795,-8.98924160003662,100.0,411.495483398438
arenacam6_1769615361195743956.png,1769615361195743956,1769615361.195744,42.29955123403614,-83.69749992503922,234.72982788085938,0.7328699014409849,0.6802962049114072,0.009135019044555015,0.003915682836161156,-0.08661000000000002,0.00423,0.0034300000000000003,1.6620000000000001,-0.3962,-12.3567,4.393186168024768,9.827293866701327,12.420000076293945,13.989999771118164,12.079999923706055,12.380000114440918,10.085154574351387,11.36000880194584,9.809071315648612,10.05267423652708,10.32672723211823,0.05082104719684603,-7.0,34.07500076293945,0.0,0.0,0.0,0.0,0.0,snow covered,0.277963280677795,-8.98924160003662,100.0,411.495483398438
arenacam6_1769615361237868763.png,1769615361237868763,1769615361.2378688,42.29955282893359,-83.69749980025637,234.7335662841797,0.7330287372661748,0.6801246796258728,0.008985833298033302,0.004306426093780909,0.034460000000000005,-0.028120000000000003,0.008180000000000002,2.5698000000000003,0.636,-11.454,4.496690132858244,10.05882602579592,12.179999351501465,15.769999504089355,12.559999465942383,12.460000038146973,9.890271773013211,12.805384996715986,10.198835369540292,10.117634912175694,10.753031762861296,0.06901458831130802,-6.900000095367432,34.57500076293945,0.0,0.0,0.0,0.0,0.0,snow covered,0.277963280677795,-8.98924160003662,100.0,411.495483398438
arenacam6_1769615361258497469.png,1769615361258497469,1769615361.2584975,42.29955364283671,-83.69749972679372,234.73660278320312,0.733110520481905,0.6800481544116188,0.00818215294608119,0.004065072357099049,0.08726,-0.027070000000000004,0.011850000000000001,1.7019000000000002,1.4464000000000001,-9.3116,4.530035180667205,10.133416897041696,12.639999389648438,15.15999984741211,12.679999351501465,12.579999923706055,10.263796045188904,12.310059651297227,10.29627638301321,10.215075925648613,10.771302001286989,0.06294866881787065,-6.599999904632568,34.375,0.0,0.0,0.0,0.0,0.0,snow covered,0.277963280677795,-8.98924160003662,100.0,411.495483398438
arenacam6_1769615361280006233.png,1769615361280006233,1769615361.2800062,42.299554460535475,-83.69749966154434,234.73960876464844,0.7331229537937659,0.6800448806184218,0.007541549245502882,0.003580502807935078,0.06223000000000001,-0.00786,0.0076700000000000015,2.3276,-1.2533,-8.1447,4.571890873955802,10.227045571586691,12.880000114440918,14.309999465942383,12.84999942779541,12.729999542236328,10.458678846527082,11.619851504540291,10.434318012364598,10.336876998891679,10.712431340580913,0.047460996002867725,-6.400000095367432,34.650001525878906,0.0,0.0,0.0,0.0,0.0,snow covered,0.277963280677795,-8.98924160003662,100.0,411.495483398438
arenacam6_1769615361300018979.png,1769615361300018979,1769615361.300019,42.29955528604467,-83.69749958884213,234.7418212890625,0.733282121405158,0.6798799492608774,0.007053964944380758,0.0032903797867824686,0.06229000000000001,-0.01606,0.021060000000000002,2.7556000000000003,0.9991000000000001,-8.411,4.625508947692098,10.346985985450363,12.699999809265137,12.969999313354492,13.019999504089355,12.769999504089355,10.312516939121533,10.531759025837516,10.572359641715984,10.369357336715984,10.446498235847754,0.009617510890352218,-5.900000095367432,34.67499923706055,0.0,0.0,0.0,0.0,0.0,snow covered,0.277963280677795,-8.98924160003662,100.0,411.495483398438
arenacam6_1769615361320684035.png,1769615361320684035,1769615361.320684,42.29955612327411,-83.6974995213829,234.74371337890625,0.733382380108128,0.6797762771678739,0.0067153048460186415,0.0030663051948806655,-0.005890000000000001,0.008260000000000002,0.00909,0.4313,-1.9919,-10.879000000000001,4.660721493993114,10.425754338772956,13.00999927520752,12.929999351501465,13.069999694824219,12.969999313354492,10.564239363661825,10.499278688013211,10.612960257594452,10.531759025837516,10.55205933377675,0.012114710446808735,-5.5,34.525001525878906,0.0,0.0,0.0,0.0,0.0,snow covered,0.277963280677795,-8.98924160003662,100.0,411.495483398438
arenacam6_1769615361340221353.png,1769615361340221353,1769615361.3402214,42.299556956753044,-83.69749945554094,234.7454833984375,0.7334610560259177,0.679689245149939,0.006913965664221139,0.0030994192433381677,-0.03187,0.023870000000000006,0.026090000000000002,0.8653000000000001,-0.8154,-10.5218,4.668544047430443,10.443252921459056,13.289999961853027,13.4399995803833,13.139999389648438,13.049999237060547,10.791602502824306,10.91340357606737,10.669800655188904,10.59671970148613,10.742881608891677,0.028691126192772445,-5.300000190734863,34.35000228881836,0.0,0.0,0.0,0.0,0.0,snow covered,0.277963280677795,-8.98924160003662,100.0,411.495483398438
arenacam6_1769615361360946031.png,1769615361360946031,1769615361.360946,42.29955780471378,-83.69749939198414,234.74778747558594,0.7336189989370747,0.6795115073717604,0.007388436794444965,0.0035618463831165207,-0.030310000000000004,-0.0239,0.00884,3.1099,0.9937,-11.0943,4.771031490140603,10.67251118155512,13.239999771118164,13.289999961853027,13.1899995803833,13.09999942779541,10.751001886945838,10.791602502824306,10.710401271067372,10.637320317364598,10.722581494550528,0.004691521249651491,-5.200000286102295,34.17499923706055,0.0,0.0,0.0,0.0,0.0,snow covered,0.277963280677795,-8.98924160003662,100.0,411.495483398438
arenacam6_1769615361381590116.png,1769615361381590116,1769615361.3815901,42.29955866304022,-83.69749933154066,234.75088500976562,0.7337288185754839,0.6793873858650328,0.007522443416011571,0.004267735272331511,-0.08234000000000001,-0.029760000000000005,0.021230000000000002,0.6099,-3.1904000000000003,-12.201500000000001,4.793701701366206,10.723223083854123,13.269999504089355,13.420000076293945,13.399999618530273,13.179999351501465,10.775361946715984,10.897163794351389,10.880923238243065,10.702280993013211,10.813932493080912,0.008459155285444933,-5.200000286102295,33.54999923706055,0.0,0.0,0.0,0.0,0.0,snow covered,0.277963280677795,-8.98924160003662,100.0,411.495483398438
arenacam6_1769615361402339653.png,1769615361402339653,1769615361.4023397,42.2995595186223,-83.69749927798836,234.7539825439453,0.7339054463033992,0.6791825839818152,0.008190130607614688,0.005170615304112805,-0.11224,-0.0056700000000000006,0.028260000000000004,3.3589,0.43310000000000004,-10.5707,4.8352510252451175,10.816166428411814,13.449999809265137,13.65999984741211,13.359999656677246,13.389999389648438,10.921523854121533,11.092045821297226,10.848442900418759,10.872802960188904,10.933703884006606,0.010866831272681435,-5.200000286102295,32.25,0.0,0.0,0.0,0.0,0.0,snow covered,0.277963280677795,-8.98924160003662,100.0,411.495483398438
arenacam6_1769615361423075523.png,1769615361423075523,1769615361.4230757,42.29956039108833,-83.69749922320369,234.75784301757812,0.7340182459169271,0.6790510157428288,0.008313603990280583,0.00614952586485679,-0.0684,-0.05912000000000001,0.017090000000000004,1.965,0.2376,-9.5344,4.893176862603197,10.945743051031597,13.559999465942383,13.59999942779541,13.529999732971191,13.619999885559082,11.01084458954029,11.043324927364598,10.986484529770147,11.059565483472921,11.02505488253699,0.007245906571680235,-5.200000286102295,31.05000114440918,0.0,0.0,0.0,0.0,0.0,snow covered,0.277963280677795,-8.98924160003662,100.0,411.495483398438
arenacam6_1769615361443692682.png,1769615361443692682,1769615361.4436927,42.29956127029586,-83.69749917101646,234.76187133789062,0.7341604119658149,0.6788866458316717,0.008537249781290338,0.006966130904559605,-0.07824000000000002,-0.02619,0.020690000000000004,0.8687,-0.6622,-10.008700000000001,4.908327153879639,10.97963334359952,13.639999389648438,13.6899995803833,13.639999389648438,13.779999732971191,11.075805265188903,11.11640588106737,11.075805265188903,11.189486834770145,11.11437581155383,0.012272037119787442,-5.200000286102295,30.899999618530273,0.0,0.0,0.0,0.0,0.0,snow covered,0.277963280677795,-8.98924160003662,100.0,411.495483398438
arenacam6_1769615361464405424.png,1769615361464405424,1769615361.4644055,42.299562152005805,-83.69749911768746,234.76608276367188,0.7342630241851034,0.6787651689524253,0.008788756075163284,0.007642937797920074,-0.053880000000000004,-0.03780000000000001,0.012990000000000002,2.9569,1.9682000000000002,-9.4228,4.960763990101757,11.096931400018224,13.619999885559082,13.529999732971191,13.670000076293945,14.09000015258789,11.059565483472921,10.986484529770147,11.100166099351387,11.441210033702776,11.146856536574308,0.004499003801717813,-5.099999904632568,31.05000114440918,0.0,0.0,0.0,0.0,0.0,snow covered,0.277963280677795,-8.98924160003662,100.0,411.495483398438
arenacam6_1769615361485335282.png,1769615361485335282,1769615361.4853354,42.29956304283683,-83.69749906095451,234.7700653076172,0.7343221645610284,0.6787001253727352,0.008529404092738032,0.008021703015069534,-0.0018700000000000004,-0.04043000000000001,0.00841,1.1285,0.3876,-9.068,4.992242490387887,11.167346916448281,13.569999694824219,13.829999923706055,14.0,14.299999237060547,11.018964867594454,11.230087450648613,11.368129080000001,11.61173122648613,11.3072281561823,0.012525915132804603,-5.0,31.42500114440918,0.0,0.0,0.0,0.0,0.0,snow covered,0.277963280677795,-8.98924160003662,100.0,411.495483398438
arenacam6_1769615361505852087.png,1769615361505852087,1769615361.5058522,42.29956393956081,-83.69749900035886,234.77362060546875,0.7343805514802736,0.6786361871606801,0.008502810781210745,0.008113771771647444,-0.006820000000000001,0.005040000000000001,0.007470000000000001,1.2751000000000001,0.7806000000000001,-8.398100000000001,5.011175643949279,11.209699244975901,13.929999351501465,14.139999389648438,13.920000076293945,14.399999618530273,11.311287908013211,11.481809875188905,11.303168404351387,11.692932458243066,11.447299661449142,0.021195967106765242,-4.599999904632568,31.350000381469727,0.0,0.0,0.0,0.0,0.0,snow covered,0.277963280677795,-8.98924160003662,100.0,411.495483398438
arenacam6_1769615361526681685.png,1769615361526681685,1769615361.5266817,42.29956574828429,-83.69749886488421,234.7798309326172,0.7343998274237765,0.678620597387237,0.00830879156226633,0.007870340811639386,0.04920000000000001,-0.0009500000000000001,0.0022400000000000007,2.5856000000000003,2.3142,-7.973400000000001,5.059212080336863,11.317153870988744,14.039999961853027,13.960000038146973,14.149999618530273,14.40999984741211,11.400609417824308,11.335648742175692,11.489930153243066,11.701052736297227,11.481810262385073,0.014549275663594381,-4.200000286102295,31.375,0.0,0.0,0.0,0.0,0.0,snow covered,0.277963280677795,-8.98924160003662,100.0,411.495483398438
arenacam6_1769615361548355291.png,1769615361548355291,1769615361.5483553,42.299566662305566,-83.69749879239835,234.7822723388672,0.7343801721196328,0.6786522437034831,0.00784005790750167,0.007445025572402384,0.06051000000000001,0.00116,0.0010500000000000002,1.0262,-0.30060000000000003,-9.798300000000001,5.0868590936656854,11.378998580984518,14.279999732971191,14.210000038146973,14.309999465942383,14.119999885559082,11.595491444770145,11.538651047175694,11.619851504540291,11.46557009347292,11.554891022489763,0.01545763805605693,-3.6000001430511475,31.100000381469727,0.0,0.0,0.0,0.0,0.0,snow covered,0.277963280677795,-8.98924160003662,100.0,411.495483398438
arenacam6_1769615361569839905.png,1769615361569839905,1769615361.56984,42.299567578666895,-83.6974987134963,234.78439331054688,0.734455683794331,0.6785758746735792,0.007711394886002655,0.007082742555015159,0.027350000000000003,0.01912,0.009140000000000002,1.8531000000000002,0.1579,-10.5106,5.115744556102952,11.44361362732894,14.380000114440918,14.309999465942383,14.420000076293945,14.34000015258789,11.67669267652708,11.619851504540291,11.709173014351387,11.644212338702776,11.662482383530385,0.01912584287875257,-2.9000000953674316,30.80000114440918,0.0,0.0,0.0,0.0,0.0,snow covered,0.277963280677795,-8.98924160003662,100.0,411.495483398438
arenacam6_1769615361589882477.png,1769615361589882477,1769615361.5898824,42.29956850404013,-83.6974986369299,234.7869415283203,0.7345208237042523,0.6785103769116414,0.0075264952737024785,0.006795574806000773,0.043340000000000004,-0.00010000000000000002,0.01088,1.6917,2.0597000000000003,-9.221300000000001,5.15542520283978,11.532376853240418,14.559999465942383,14.589999198913574,14.589999198913574,14.4399995803833,11.822853809540293,11.847213869310437,11.847213869310437,11.725412796067372,11.810673586057135,0.02413177581328516,-2.1000001430511475,31.17500114440918,0.0,0.0,0.0,0.0,0.0,snow covered,0.277963280677795,-8.98924160003662,100.0,411.495483398438
arenacam6_1769615361610444165.png,1769615361610444165,1769615361.6104443,42.29956943662441,-83.69749856026328,234.78915405273438,0.7345263689058508,0.678508310881511,0.007414991319355335,0.006519459367063798,0.013880000000000002,0.00576,0.00032,1.7653,-1.1484,-9.2996,5.192600222363477,11.615535141413757,14.549999237060547,14.859999656677246,14.539999961853027,14.609999656677246,11.81473353148613,12.066456730418759,11.806614027824308,11.863454425418759,11.88781467878699,0.023440980898284582,-1.100000023841858,31.075000762939453,0.0,0.0,0.0,0.0,0.0,snow covered,0.277963280677795,-8.98924160003662,100.0,411.495483398438
arenacam6_1769615361629959776.png,1769615361629959776,1769615361.6299596,42.29957037065961,-83.69749847072941,234.79150390625,0.7346352670174849,0.678388142181742,0.007553557791191903,0.006595207809312447,-0.011870000000000002,0.0014900000000000002,0.016080000000000004,2.2545,1.9262000000000001,-9.6347,5.233836266064054,11.707777697009325,14.6899995803833,14.299999237060547,14.769999504089355,14.75,11.928415101067372,11.61173122648613,11.993375776715984,11.977135995,11.877664524817371,0.014510595623236216,-0.20000000298023224,30.774999618530273,0.0,0.0,0.0,0.0,0.0,snow covered,0.277963280677795,-8.98924160003662,100.0,411.495483398438
arenacam6_1769615361650868657.png,1769615361650868657,1769615361.6508687,42.299571316552296,-83.69749838811724,234.79397583007812,0.7346409168978041,0.678388903419329,0.007071536591933649,0.006419681246198818,0.030920000000000003,-0.028360000000000003,0.005070000000000001,1.153,-0.7071000000000001,-9.936200000000001,5.288969838347098,11.83110819019216,14.710000038146973,14.969999313354492,14.4399995803833,14.920000076293945,11.944655657175694,12.155777465837517,11.725412796067372,12.115177624351388,11.985255885857994,0.013029015810507152,0.20000000298023224,31.0,0.0,0.0,0.0,0.0,0.0,snow covered,0.277963280677795,-8.98924160003662,100.0,411.495483398438
arenacam6_1769615361671570693.png,1769615361671570693,1769615361.6715708,42.29957226823689,-83.69749829993663,234.7960968017578,0.7346947138136123,0.6783316668165389,0.007029313134942287,0.006357361487389363,0.00455,-0.00689,0.00417,1.9528,1.2578,-9.2262,5.3197091457454135,11.899870176483747,14.84999942779541,14.9399995803833,14.769999504089355,14.929999351501465,12.058336452364598,12.131417406067373,11.993375776715984,12.123297128013212,12.076606690790292,0.014851969953067933,1.0,31.024999618530273,0.0,0.0,0.0,0.0,0.0,snow covered,0.277963280677795,-8.98924160003662,100.0,411.495483398438
arenacam6_1769615361692160299.png,1769615361692160299,1769615361.6921604,42.29957322257027,-83.69749820358616,234.79824829101562,0.7346284520890166,0.6784125540872481,0.006506124354453407,0.005925722234154232,0.09154000000000001,-0.028870000000000003,-0.00966,2.3075,2.1246,-9.918700000000001,5.364974575271097,12.001126226406928,14.84999942779541,14.630000114440918,14.989999771118164,14.979999542236328,12.058336452364598,11.879694981527082,12.172018021945838,12.16389774389168,12.0684867999323,0.005612854348382213,1.2000000476837158,31.450000762939453,0.0,0.0,0.0,0.0,0.0,snow covered,0.277963280677795,-8.98924160003662,100.0,411.495483398438
arenacam6_1769615361712844180.png,1769615361712844180,1769615361.7128444,42.2995741856119,-83.69749811269583,234.80050659179688,0.7345816431582434,0.6784735217368187,0.005818025082295411,0.005444301710562449,0.06446,-0.012340000000000002,-0.004090000000000001,0.5382,-2.1393,-9.9783,5.383812400940869,12.043265312160667,15.039999961853027,15.0,14.880000114440918,15.039999961853027,12.212618637824306,12.180138300000001,12.082697286527083,12.212618637824306,12.172018215543925,0.010690863320369632,1.3000000715255737,30.80000114440918,0.0,0.0,0.0,0.0,0.0,snow covered,0.277963280677795,-8.98924160003662,100.0,411.495483398438
arenacam6_1769615361733582488.png,1769615361733582488,1769615361.7335825,42.29957515473525,-83.69749802492937,234.80227661132812,0.734563013776527,0.6784958321930596,0.005831040187007328,0.005155914907249993,0.012990000000000002,0.01832,0.0024600000000000004,2.3509,-0.09720000000000001,-8.6454,5.414992840437719,12.113014084488752,15.029999732971191,15.25999927520752,15.15999984741211,15.00999927520752,12.204498359770147,12.391260108661823,12.310059651297227,12.188257803661823,12.273518980847754,0.013250615845030358,1.5,30.899999618530273,0.0,0.0,0.0,0.0,0.0,snow covered,0.277963280677795,-8.98924160003662,100.0,411.495483398438
arenacam6_1769615361754036073.png,1769615361754036073,1769615361.754036,42.29957612804273,-83.69749793299916,234.8044891357422,0.734512961943039,0.6785515084295135,0.005584985472534548,0.005231355748500225,0.009020000000000002,-0.04683000000000001,-0.003790000000000001,1.7723,0.1353,-10.5984,5.4685582120453535,12.232836606852734,15.039999961853027,15.130000114440918,15.149999618530273,15.00999927520752,12.212618637824306,12.28569959152708,12.301939373243066,12.188257803661823,12.24712885156407,0.0011683508225173484,1.5,31.149999618530273,0.0,0.0,0.0,0.0,0.0,snow covered,0.277963280677795,-8.98924160003662,100.0,411.495483398438
arenacam6_1769615361774886837.png,1769615361774886837,1769615361.7748868,42.29957710832075,-83.69749784625911,234.80673217773438,0.734512657038514,0.6785522397294339,0.0055856759325325165,0.005178304043600107,-0.00025000000000000006,0.013450000000000002,-0.0015600000000000002,0.1769,-0.9770000000000001,-10.4025,5.469433621158336,12.234794844513928,15.339999198913574,15.1899995803833,15.329999923706055,15.559999465942383,12.456220784310437,12.33441971106737,12.448101280648613,12.634863029540291,12.468401201391679,0.01909360637808319,1.5,31.450000762939453,0.0,0.0,0.0,0.0,0.0,snow covered,0.277963280677795,-8.98924160003662,100.0,411.495483398438
arenacam6_1769615361795703154.png,1769615361795703154,1769615361.795703,42.29957809483153,-83.6974977607113,234.80860900878906,0.7345269750725439,0.6785364333854813,0.005721153965612239,0.00506950259792371,0.0030100000000000005,0.0054,0.009380000000000001,2.1772,0.9994000000000001,-8.1285,5.509408357499264,12.324215931224403,15.319999694824219,15.479999542236328,15.309999465942383,15.9399995803833,12.439981002594452,12.56990235389168,12.431860724540291,12.943426626067373,12.596292676773448,0.022076596764238475,1.600000023841858,31.350000381469727,0.0,0.0,0.0,0.0,0.0,snow covered,0.277963280677795,-8.98924160003662,100.0,411.495483398438
arenacam6_1769615361816319286.png,1769615361816319286,1769615361.8163192,42.29957907957482,-83.69749767205215,234.8103790283203,0.7344985008868008,0.6785705136876464,0.005734441724141077,0.00459633841640917,0.03841000000000001,0.037700000000000004,-0.00871,1.6113000000000002,-0.30260000000000004,-7.306100000000001,5.538813282267014,12.389992983634375,15.529999732971191,15.519999504089355,15.539999961853027,15.59999942779541,12.610502969770145,12.602382691715986,12.618623247824306,12.667343367364598,12.62471306916876,0.018944327558895316,2.200000047683716,31.450000762939453,0.0,0.0,0.0,0.0,0.0,snow covered,0.277963280677795,-8.98924160003662,100.0,411.495483398438
arenacam6_1769615361837047030.png,1769615361837047030,1769615361.837047,42.29958007615912,-83.69749757914734,234.81170654296875,0.7344594807961181,0.6786178445329618,0.005521809460407028,0.004074527017542342,0.06349,0.015490000000000002,-0.00029,1.2211,1.7153,-10.1319,5.567308039669966,12.453734046259333,15.539999961853027,15.539999961853027,15.489999771118164,15.75,12.618623247824306,12.618623247824306,12.578022631945839,12.789145215000001,12.651103585648613,0.015848221798871878,2.700000047683716,31.225000381469727,0.0,0.0,0.0,0.0,0.0,snow covered,0.277963280677795,-8.98924160003662,100.0,411.495483398438
arenacam6_1769615361858845557.png,1769615361858845557,1769615361.8588455,42.29958107679326,-83.6974974782765,234.8131561279297,0.7344113291846177,0.6786787333168197,0.005067694812241045,0.003081392225980555,0.11498000000000003,0.044500000000000005,-0.008830000000000003,0.8868,1.1820000000000002,-10.7934,5.587188122705677,12.498204599205238,15.630000114440918,15.719999313354492,15.769999504089355,15.609999656677246,12.691704201527081,12.764784380837519,12.805384996715986,12.675463645418759,12.734334306124836,0.018893090207101743,3.9000000953674316,31.399999618530273,0.0,0.0,0.0,0.0,0.0,snow covered,0.277963280677795,-8.98924160003662,100.0,411.495483398438
arenacam6_1769615361879955940.png,1769615361879955940,1769615361.879956,42.299582080553364,-83.69749738513107,234.8140869140625,0.7343117227129381,0.6787936798591162,0.004613061143430429,0.002038071775937436,0.10166000000000001,0.023690000000000003,-0.015030000000000003,1.4432,-1.1165,-10.0807,5.617302180391248,12.5655679394044,16.44999885559082,15.869999885559082,15.75,15.670000076293945,13.357550739729195,12.88658622847292,12.789145215000001,12.724184539351388,12.939366680638376,0.02974785883428156,5.300000190734863,31.450000762939453,0.0,0.0,0.0,0.0,0.0,snow covered,0.277963280677795,-8.98924160003662,100.0,411.495483398438
arenacam6_1769615361900602799.png,1769615361900602799,1769615361.9006028,42.299583091744644,-83.69749728524795,234.8164520263672,0.7342479718107175,0.6788670269364564,0.004242479302367486,0.0012153187538356692,0.08475,0.01649,-0.006150000000000001,1.7303000000000002,0.9091,-12.1736,5.650644197544262,12.640152031254662,16.059999465942383,15.75999927520752,16.1299991607666,15.799999237060547,13.040867639540291,12.797264718661824,13.097708037134742,12.82974505648613,12.941396362955748,0.023832334528589145,6.599999904632568,31.375,0.0,0.0,0.0,0.0,0.0,snow covered,0.277963280677795,-8.98924160003662,100.0,411.495483398438
arenacam6_1769615361921038045.png,1769615361921038045,1769615361.9210382,42.29958411364192,-83.69749718597147,234.81996154785156,0.7341256824273976,0.6790048131127359,0.0034440758393410676,0.00029070923478095287,0.05790000000000001,-0.011760000000000001,-0.011500000000000002,1.1043,-1.6311,-10.2714,5.714918191848831,12.783929100074324,15.889999389648438,16.010000228881836,16.10999870300293,15.979999542236328,12.902826010188903,13.00026779805416,13.08146748102642,12.975906963891678,12.990117063290292,0.01612868481997202,8.100000381469727,30.875,0.0,0.0,0.0,0.0,0.0,snow covered,0.277963280677795,-8.98924160003662,100.0,411.495483398438
arenacam6_1769615361941390125.png,1769615361941390125,1769615361.94139,42.299585131009636,-83.69749709300949,234.82278442382812,0.7340081934900339,0.6791312183824902,0.0035654250027725163,0.00021875182458544652,-0.022650000000000003,0.007750000000000001,-0.015250000000000001,1.6947,-1.1594,-8.631,5.7387381133567255,12.837212835292194,16.279998779296875,16.170000076293945,16.119998931884766,15.969999313354492,13.219509110377807,13.130189149351388,13.089587759080583,12.967786685837519,13.101768176161825,0.02060847196848779,9.600000381469727,31.17500114440918,0.0,0.0,0.0,0.0,0.0,snow covered,0.277963280677795,-8.98924160003662,100.0,411.495483398438
arenacam6_1769615361961070869.png,1769615361961070869,1769615361.9610708,42.29958616313945,-83.69749700156726,234.82606506347656,0.7338362087772362,0.6793156692005686,0.0037909252697386183,0.0005187982608152961,-0.03724,-0.011050000000000003,-0.030020000000000005,2.5599000000000003,-0.5804,-9.819600000000001,5.785578093208609,12.941991059822067,16.049999237060547,16.19999885559082,16.219999313354492,16.1299991607666,13.03274736148613,13.154548434729195,13.170788990837517,13.097708037134742,13.113948206046896,0.013286761320571702,10.40000057220459,30.850000381469727,0.0,0.0,0.0,0.0,0.0,snow covered,0.277963280677795,-8.98924160003662,100.0,411.495483398438
arenacam6_1769615361981778501.png,1769615361981778501,1769615361.9817784,42.29958720420031,-83.69749691816203,234.82931518554688,0.7336614800095871,0.6795018869370936,0.00405869516285639,0.0012431382251908874,-0.07922000000000001,-0.032330000000000005,-0.026010000000000005,0.5247,-1.0103,-10.9625,5.809481205264289,12.9954608873039,16.10999870300293,16.15999984741211,16.190000534057617,16.239999771118164,13.08146748102642,13.122068871297225,13.14642970545971,13.18702954694584,13.1342489011823,0.010679730028966614,11.5,31.05000114440918,0.0,0.0,0.0,0.0,0.0,snow covered,0.277963280677795,-8.98924160003662,100.0,411.495483398438
arenacam6_1769615362023137781.png,1769615362023137781,1769615362.0231378,42.29958929034787,-83.69749675660725,234.83584594726562,0.733194911428656,0.6799975330944031,0.0048625552558846895,0.0022209000506550657,-0.054360000000000006,-0.025580000000000002,-0.03545000000000001,2.2395,-1.0104,-9.1042,5.872922009902282,13.137374160830811,16.489999771118164,16.369998931884766,16.28999900817871,16.25,13.39003185194584,13.292590064080583,13.22762938843197,13.195149825,13.276350282364598,0.010578683367955331,12.100000381469727,30.67500114440918,0.0,0.0,0.0,0.0,0.0,snow covered,0.277963280677795,-8.98924160003662,100.0,411.495483398438
arenacam6_1769615362043862029.png,1769615362043862029,1769615362.043862,42.299590345959395,-83.69749668390133,234.83912658691406,0.7329495465261313,0.6802586408305448,0.005091054163618556,0.0026879341549991874,-0.04544000000000001,-0.00436,-0.03375,0.29710000000000003,-0.3317,-10.7179,5.883958831806266,13.16206286922071,16.420000076293945,16.469999313354492,16.420000076293945,16.69999885559082,13.333191454351388,13.373791295837517,13.333191454351388,13.560553044729195,13.400181812317372,0.018091308745645015,12.100000381469727,30.899999618530273,0.0,0.0,0.0,0.0,0.0,snow covered,0.277963280677795,-8.98924160003662,100.0,411.495483398438
arenacam6_1769615362064545206.png,1769615362064545206,1769615362.0645454,42.29959139972821,-83.69749660740976,234.84268188476562,0.7327571377268087,0.6804643080338374,0.0052233512034141946,0.0028318200244738657,-0.008150000000000001,-0.010540000000000002,-0.026690000000000002,2.0132,0.7872,-9.5845,5.919772252623687,13.242175342784032,16.420000076293945,16.40999984741211,16.369998931884766,16.459999084472656,13.333191454351388,13.325071176297227,13.292590064080583,13.365671017783358,13.329130928128139,0.006566563505858665,12.100000381469727,30.600000381469727,0.0,0.0,0.0,0.0,0.0,snow covered,0.277963280677795,-8.98924160003662,100.0,411.495483398438
arenacam6_1769615362085043867.png,1769615362085043867,1769615362.085044,42.29959246326781,-83.69749653355511,234.84613037109375,0.7324636124096282,0.6807816662818741,0.0050582673664894325,0.0027916449563083557,0.015540000000000003,-0.0027300000000000007,-0.043140000000000005,0.893,-1.2695,-9.2972,5.94331019483258,13.294828307228792,16.729999542236328,16.729999542236328,16.579999923706055,16.690000534057617,13.58491387889168,13.58491387889168,13.463112805648613,13.55243431545971,13.54634371972292,0.01891828962976309,12.0,30.899999618530273,0.0,4.0,0.0,0.0,0.0,snow covered,0.277963280677795,-8.98924160003662,100.0,411.495483398438
arenacam6_1769615362106422709.png,1769615362106422709,1769615362.106423,42.29959460452889,-83.69749638929021,234.8535614013672,0.7322375201342617,0.6810233309138022,0.0052075505407046035,0.0028841421710222234,-0.025610000000000004,-0.0029200000000000007,-0.027070000000000004,2.1056,-0.8038000000000001,-10.0809,5.9769798701321815,13.370145350693482,16.739999771118164,16.709999084472656,16.559999465942383,16.75,13.593034156945839,13.568673322783358,13.446872249540291,13.601154435,13.552433541067371,0.013633972226370297,12.0,30.725000381469727,0.0,0.0,0.0,0.0,0.0,snow covered,0.277963280677795,-8.98924160003662,100.0,411.495483398438
arenacam6_1769615362126556184.png,1769615362126556184,1769615362.1265562,42.29959568409284,-83.6974963230583,234.8570098876953,0.7320148025212538,0.6812617246846455,0.0051927062993895315,0.0031348318551554857,-0.007090000000000001,-0.013250000000000001,-0.03497,1.2636,0.7662,-10.3069,6.006006562233734,13.43507631932313,16.829999923706055,16.68000030517578,16.729999542236328,16.989999771118164,13.666115110648613,13.544314037405549,13.58491387889168,13.796036461945839,13.64784487222292,0.015836795254655457,12.0,30.725000381469727,0.0,0.0,0.0,0.0,0.0,snow covered,0.277963280677795,-8.98924160003662,100.0,411.495483398438
arenacam6_1769615362148264693.png,1769615362148264693,1769615362.1482646,42.29959677080931,-83.69749625767432,234.8600616455078,0.7317877143929891,0.6815045693599384,0.005259798627554138,0.0032553837573381364,-0.024020000000000003,-0.006020000000000001,-0.02704,1.6978,-0.9790000000000001,-8.6021,6.036538380028736,13.503374163821482,16.84000015258789,16.869998931884766,16.779998779296875,17.079999923706055,13.674235388702774,13.698594674080582,13.625513720377807,13.869117415648613,13.716865299702445,0.01581020664101515,12.0,30.80000114440918,0.0,0.0,0.0,0.0,0.0,snow covered,0.277963280677795,-8.98924160003662,100.0,411.495483398438
arenacam6_1769615362168968746.png,1769615362168968746,1769615362.1689687,42.29959785633865,-83.69749619048439,234.86329650878906,0.7315899401436915,0.6817126909560627,0.005542141844991063,0.0036402106757168428,-0.05036,-0.00613,-0.03097,1.3299,-0.42360000000000003,-7.7536000000000005,6.065984708709274,13.569243834300124,16.94999885559082,16.90999984741211,16.959999084472656,16.889999389648438,13.763555349729195,13.731075786297227,13.771675627783356,13.714835230188905,13.74528549849967,0.012973579541297003,12.0,30.875,0.0,0.0,0.0,0.0,0.0,snow covered,0.277963280677795,-8.98924160003662,100.0,411.495483398438
arenacam6_1769615362190037633.png,1769615362190037633,1769615362.1900377,42.29959894979384,-83.6974961238988,234.86566162109375,0.7313355784893183,0.6819791393698059,0.005996261140831844,0.0040951132394298866,-0.06985000000000001,0.01012,-0.03289,0.3516,0.14500000000000002,-9.5972,6.075066381743853,13.589558991978096,17.139999389648438,17.059999465942383,16.84000015258789,17.219999313354492,13.917837535188903,13.852876859540292,13.674235388702774,13.982798210837517,13.856936998567372,0.01967525265147373,12.0,31.075000762939453,0.0,0.0,0.0,0.0,0.0,snow covered,0.277963280677795,-8.98924160003662,100.0,411.495483398438
arenacam6_1769615362210269590.png,1769615362210269590,1769615362.2102697,42.2996000488242,-83.69749605065657,234.8678436279297,0.7311493010180412,0.6821741310681367,0.006430609686698974,0.004219215723289243,-0.0171,0.024490000000000005,-0.02807,1.7359,2.5418000000000003,-9.1408,6.102774369387589,13.651540097857875,17.389999389648438,17.260000228881836,17.079999923706055,17.03999900817871,14.120839840188903,14.01527932305416,13.869117415648613,13.83663630343197,13.960468220580914,0.022629543663832772,11.800000190734863,31.30000114440918,0.0,0.0,0.0,0.0,0.0,snow covered,0.277963280677795,-8.98924160003662,100.0,411.495483398438
arenacam6_1769615362230088288.png,1769615362230088288,1769615362.2300882,42.2996011462541,-83.69749599202301,234.87008666992188,0.730831198347025,0.6825148838981993,0.006540064044524948,0.00405220216333585,-0.00286,0.015190000000000002,-0.046790000000000005,1.3596000000000001,-2.0812,-9.1935,6.136064923646851,13.726009070302588,17.239999771118164,17.219999313354492,17.170000076293945,17.279998779296875,13.999038766945839,13.982798210837517,13.942198369351386,14.031518330377809,13.988888419378137,0.01915191427669322,11.699999809265137,31.05000114440918,0.0,0.0,0.0,0.0,0.0,snow covered,0.277963280677795,-8.98924160003662,100.0,411.495483398438
arenacam6_1769615362250809817.png,1769615362250809817,1769615362.25081,42.29960225446912,-83.69749592060877,234.87222290039062,0.7305702254559554,0.6827855233076786,0.00720885408976292,0.00437118535488318,-0.034890000000000004,0.013670000000000002,-0.016190000000000003,1.8104,2.9107000000000003,-10.786000000000001,6.1771728527742935,13.817965041284928,17.260000228881836,17.270000457763672,17.25,17.369998931884766,14.01527932305416,14.023399601108322,14.007159045000002,14.104599284080582,14.037609313310767,0.0158955585261355,11.40000057220459,30.950000762939453,0.0,0.0,0.0,0.0,0.0,snow covered,0.277963280677795,-8.98924160003662,100.0,411.495483398438
arenacam6_1769615362271537668.png,1769615362271537668,1769615362.2715378,42.299603369721304,-83.69749584913166,234.87486267089844,0.7302786814797761,0.6830981343353953,0.007213696314744177,0.004236605851435373,0.013430000000000003,0.015580000000000002,-0.046180000000000006,1.7375,-0.9254,-10.066600000000001,6.2118913250670795,13.895628180695553,17.40999984741211,17.510000228881836,17.219999313354492,17.35999870300293,14.137080396297227,14.21828162805416,13.982798210837517,14.09647900602642,14.10865981030383,0.015330838364272788,10.90000057220459,30.875,0.0,0.0,0.0,0.0,0.0,snow covered,0.277963280677795,-8.98924160003662,100.0,411.495483398438
arenacam6_1769615362292249292.png,1769615362292249292,1769615362.2922494,42.29960448357098,-83.69749578517865,234.87742614746094,0.7300723480387501,0.6833161657304933,0.0073798815779019394,0.004349899821781513,-0.026480000000000004,0.011990000000000002,-0.023230000000000004,0.7624000000000001,-0.3387,-9.879800000000001,6.2296988698831575,13.935462589996432,17.28999900817871,17.420000076293945,17.3799991607666,17.559999465942383,14.03963860843197,14.145200674351388,14.112719562134744,14.258881469540292,14.139110078614598,0.014613615249798368,10.40000057220459,31.075000762939453,0.0,0.0,0.0,0.0,0.0,snow covered,0.277963280677795,-8.98924160003662,100.0,411.495483398438
arenacam6_1769615362312868047.png,1769615362312868047,1769615362.312868,42.29960560613606,-83.69749570813345,234.88023376464844,0.7298892302691077,0.683513218030644,0.007282304564092995,0.0042848984583683265,0.03447,-0.010460000000000002,-0.03128000000000001,1.2493,4.133500000000001,-11.1372,6.254456785011602,13.990844560663854,17.739999771118164,17.549999237060547,17.25,17.600000381469727,14.405043376945839,14.25076119148613,14.007159045000002,14.291362581756935,14.238581548797226,0.017707078872843778,9.800000190734863,31.75,0.0,0.0,0.0,0.0,0.0,snow covered,0.277963280677795,-8.98924160003662,100.0,411.495483398438
arenacam6_1769615362333369628.png,1769615362333369628,1769615362.3333695,42.29960673162492,-83.69749561133845,234.8836669921875,0.7296498904090184,0.6837807949759092,0.006591561432646288,0.0033783377718892608,0.12688000000000002,0.013980000000000001,-0.03703,1.7374,0.367,-10.2173,6.284051020342887,14.057045089445818,17.60999870300293,17.709999084472656,17.440000534057617,17.6299991607666,14.29948131102642,14.380682542783356,14.161441230459708,14.315721867134743,14.289331737851057,0.016524571624205887,8.90000057220459,32.54999923706055,0.0,0.0,0.0,0.0,0.0,snow covered,0.277963280677795,-8.98924160003662,100.0,411.495483398438
arenacam6_1769615362354316851.png,1769615362354316851,1769615362.3543167,42.29960785910503,-83.69749552446535,234.88694763183594,0.7293816758996087,0.6840757569559757,0.005927611834030117,0.0027555443985276267,0.07107000000000001,-0.016980000000000002,-0.04021000000000001,2.1738,-0.9307000000000001,-10.902800000000001,6.324179353529076,14.146809763083333,17.510000228881836,17.559999465942383,17.369998931884766,17.75,14.21828162805416,14.258881469540292,14.104599284080582,14.413163655,14.248731509168758,0.007204574585529117,8.600000381469727,32.47500228881836,0.0,0.0,0.0,0.0,0.0,snow covered,0.277963280677795,-8.98924160003662,100.0,411.495483398438
arenacam6_1769615362374769444.png,1769615362374769444,1769615362.3747694,42.299608995089436,-83.69749542944466,234.8909912109375,0.7291854374509446,0.6842932310916832,0.005085680482259328,0.002346816058228135,0.10878000000000002,-0.023980000000000005,-0.028480000000000002,0.8481000000000001,4.0336,-12.3093,6.343060304746174,14.18904531809891,17.719999313354492,17.68000030517578,17.559999465942383,17.770000457763672,14.388802820837519,14.356323257405549,14.258881469540292,14.429404211108324,14.35835293972292,0.01193227717780629,8.0,32.400001525878906,0.0,0.0,0.0,0.0,0.0,snow covered,0.277963280677795,-8.98924160003662,100.0,411.495483398438
arenacam6_1769615362395814742.png,1769615362395814742,1769615362.3958147,42.29961013701439,-83.69749532531921,234.8960418701172,0.7288660636168064,0.684643406966644,0.003936886965558809,0.0014722519716434807,0.13415000000000002,-0.020710000000000006,-0.05671000000000001,1.7612,-1.9176000000000002,-10.648800000000001,6.376035527017045,14.262808911805509,17.81999969482422,17.75,17.959999084472656,17.78999900817871,14.470004052594453,14.413163655,14.583684847783356,14.445643218431968,14.478123943452445,0.015096257194381754,7.5,32.32500076293945,0.0,0.0,0.0,0.0,0.0,snow covered,0.277963280677795,-8.98924160003662,100.0,411.495483398438
arenacam6_1769615362416481160.png,1769615362416481160,1769615362.4164813,42.2996112790024,-83.69749522524806,234.90066528320312,0.7286166239699732,0.6849128811379165,0.0032655837936813683,0.0012233104444092007,0.045880000000000004,-0.03097,-0.030440000000000005,1.5851000000000002,-1.3474000000000002,-8.7272,6.405497388178613,14.328713327512268,17.739999771118164,17.869998931884766,17.959999084472656,17.85999870300293,14.405043376945839,14.510603894080583,14.583684847783356,14.50248361602642,14.50045393370905,0.01198576608180344,7.099999904632568,32.25,0.0,0.0,0.0,0.0,0.0,snow covered,0.277963280677795,-8.98924160003662,100.0,411.495483398438
arenacam6_1769615362436966378.png,1769615362436966378,1769615362.4369664,42.299612432712195,-83.69749513596433,234.90521240234375,0.7283461127015485,0.6852023378723695,0.002784736362255046,0.0013933880203144257,0.01759,-0.052570000000000006,-0.04444000000000001,1.7106000000000001,0.4302,-9.6486,6.439009761938252,14.403678496870153,17.93000030517578,17.85999870300293,18.139999389648438,17.85999870300293,14.559325562405549,14.50248361602642,14.729846755188905,14.50248361602642,14.573534887411824,0.011792570250618977,6.800000190734863,32.5,0.0,0.0,0.0,0.0,0.0,snow covered,0.277963280677795,-8.98924160003662,100.0,411.495483398438
