image_filename,timestamp_ns,timestamp_sec,latitude,longitude,altitude,orientation_x,orientation_y,orientation_z,orientation_w,angular_velocity_x,angular_velocity_y,angular_velocity_z,linear_acceleration_x,linear_acceleration_y,linear_acceleration_z,vehicle_speed_mps,vehicle_speed_mph,wheel_speed_fl_rads,wheel_speed_fr_rads,wheel_speed_rl_rads,wheel_speed_rr_rads,wheel_speed_fl_mph,wheel_speed_fr_mph,wheel_speed_rl_mph,wheel_speed_rr_mph,avg_wheel_speed_mph,wheel_slip,steering_angle_deg,throttle_pedal,brake_pedal,brake_torque_actual,abs_active,esc_active,trac_active,marwis_road_condition,marwis_friction,marwis_surface_temp_c,marwis_ice_percent,marwis_water_film_height
frame_00000.png,1769615294509068553,1769615294.5090685,42.29950756973861,-83.69750196665855,234.6089324951172,0.7314796017870097,0.6818380060615801,0.002258565476131534,0.005424439277607479,0.0003800000000000001,0.00116,0.00030000000000000003,0.0298,0.0584,-9.8452,-0.0019064313499026957,0.004264572543851337,0.0,0.0,0.0,0.0,0.0,0.0,0.0,0.0,0.0,0.0,3.1000001430511475,0.0,0.0,460.0,0.0,0.0,0.0,snow covered,0.276535391807556,-8.84885883331299,100.0,416.336975097656
frame_00001.png,1769615294528784966,1769615294.528785,42.29950756970293,-83.69750196766857,234.60888671875,0.7314822525519227,0.6818351085058759,0.0022507637271443996,0.005434434008281183,0.00017,-0.00075,-0.00042000000000000007,-0.1713,0.0528,-9.8123,-0.0030744414832402154,0.006877341131519368,0.0,0.0,0.0,0.0,0.0,0.0,0.0,0.0,0.0,0.0,3.1000001430511475,0.0,0.0,316.0,0.0,0.0,0.0,snow covered,0.276535391807556,-8.84885883331299,100.0,416.336975097656
frame_00002.png,1769615294548920180,1769615294.5489202,42.2995075696681,-83.69750196882826,234.60874938964844,0.731499842579207,0.6818160713415823,0.0022567020890166115,0.005452748170138747,-0.0010400000000000001,-0.00014000000000000004,0.0027500000000000003,-0.0713,0.021,-9.864,-0.004204788994163202,0.009405860692603435,0.0,0.0,0.0,0.0,0.0,0.0,0.0,0.0,0.0,0.0,3.1000001430511475,0.0,0.0,164.0,0.0,0.0,0.0,snow covered,0.276535391807556,-8.84885883331299,100.0,416.336975097656
frame_00003.png,1769615294569304603,1769615294.5693045,42.299507568663714,-83.6975019698262,234.60888671875,0.7315089463069524,0.6818062386595599,0.0022448495047580315,0.005465807213613201,0.0012900000000000001,-0.0026800000000000005,0.0013800000000000002,-0.14830000000000002,0.1637,-9.8178,-0.005566924070551528,0.012452875130379536,0.0,0.0,0.0,0.0,0.0,0.0,0.0,0.0,0.0,0.0,3.1000001430511475,0.0,0.0,164.0,0.0,0.0,0.0,snow covered,0.276535391807556,-8.84885883331299,100.0,416.336975097656
frame_00004.png,1769615294590026625,1769615294.5900269,42.299507567447854,-83.69750197138927,234.60882568359375,0.7315178195465449,0.6817967784525887,0.0022303291160541564,0.0054642666089987765,0.0010600000000000002,-0.0017100000000000001,0.0015600000000000002,-0.14100000000000001,0.0472,-9.8804,-0.007553051405877904,0.01689572281186452,0.0,0.0,0.0,0.0,0.0,0.0,0.0,0.0,0.0,0.0,3.1000001430511475,0.0,0.0,112.0,0.0,0.0,0.0,snow covered,0.276535391807556,-8.84885883331299,100.0,416.336975097656
frame_00005.png,1769615294610791718,1769615294.6107917,42.29950756628943,-83.69750197256865,234.60874938964844,0.7315303568393324,0.6817833118772443,0.0022111406295822924,0.005473894895923738,0.00135,-0.00035000000000000005,0.00012,-0.12660000000000002,0.1709,-9.786200000000001,-0.010035387048583528,0.022448558704458436,0.0,0.0,0.0,0.0,0.0,0.0,0.0,0.0,0.0,0.0,3.1000001430511475,7.349999904632568,0.0,64.0,0.0,0.0,0.0,snow covered,0.276535391807556,-8.84885883331299,100.0,416.336975097656
frame_00006.png,1769615294632617510,1769615294.6326175,42.29950756448318,-83.6975019734467,234.6089324951172,0.7315323550026651,0.6817811573161069,0.002199593619994785,0.005479863216492908,-0.0003800000000000001,-0.0011200000000000003,-6e-05,-0.1269,0.12660000000000002,-9.8282,-0.011235600663597025,0.02513336454842673,0.0,0.0,0.0,0.0,0.0,0.0,0.0,0.0,0.0,0.0,3.1000001430511475,13.449999809265137,0.0,0.0,0.0,0.0,0.0,snow covered,0.276535391807556,-8.84885883331299,100.0,416.336975097656
frame_00007.png,1769615294653306104,1769615294.653306,42.299507562544484,-83.69750197439598,234.60888671875,0.7315486214788641,0.681763637154704,0.002189120594547383,0.00549228704503298,-0.00039000000000000005,-0.0029800000000000004,0.0012000000000000001,-0.0857,0.1655,-9.780100000000001,-0.012353443845165717,0.027633912675005,0.0,0.0,0.0,0.0,0.0,0.0,0.0,0.0,0.0,0.0,3.1000001430511475,17.475000381469727,0.0,0.0,0.0,0.0,0.0,snow covered,0.276535391807556,-8.84885883331299,100.0,416.336975097656
frame_00008.png,1769615294674100176,1769615294.6741002,42.29950756053332,-83.6975019754137,234.60885620117188,0.7315391205472597,0.6817738938859529,0.0021844499597979627,0.005486428975255538,0.0008500000000000001,-0.0008400000000000001,-0.0018100000000000002,-0.1017,0.12290000000000001,-9.829,-0.013600915738598255,0.030424432452299983,0.0,0.0,0.0,0.0,0.0,0.0,0.0,0.0,0.0,0.0,3.1000001430511475,19.825000762939453,0.0,0.0,0.0,0.0,0.0,snow covered,0.276535391807556,-8.84885883331299,100.0,416.336975097656
frame_00009.png,1769615294694817752,1769615294.6948178,42.29950755792021,-83.6975019756581,234.60902404785156,0.7315309090215827,0.6817826602811626,0.002188265601453009,0.005490426181543639,9e-05,0.00058,-0.0014100000000000002,-0.1373,0.1564,-9.7669,-0.015552875293470313,0.03479084885897549,0.0,0.0,0.0,0.0,0.0,0.0,0.0,0.0,0.0,0.0,3.1000001430511475,20.0,0.0,0.0,0.0,0.0,0.0,snow covered,0.276535391807556,-8.84885883331299,100.0,416.336975097656
frame_00010.png,1769615294715476973,1769615294.715477,42.29950755516208,-83.69750197608424,234.60897827148438,0.7315330000041164,0.6817804557383453,0.002190933973274963,0.00548451333454458,0.00068,0.00037000000000000005,0.0008400000000000001,-0.1009,0.1466,-9.769,-0.016590777091266343,0.037112572906537335,0.0,0.0,0.0,0.0,0.0,0.0,0.0,0.0,0.0,0.0,3.1000001430511475,20.975000381469727,0.0,0.0,0.0,0.0,0.0,snow covered,0.276535391807556,-8.84885883331299,100.0,416.336975097656
frame_00011.png,1769615294736154019,1769615294.736154,42.29950755232149,-83.69750197662859,234.6089324951172,0.7315251902193137,0.681788896986232,0.0021823005508355905,0.0054802906127180365,0.00079,0.0002800000000000001,-0.0019700000000000004,-0.0898,0.1009,-9.756300000000001,-0.017784878465409954,0.03978370603441415,0.0,0.0,0.0,0.0,0.0,0.0,0.0,0.0,0.0,0.0,3.1000001430511475,22.024999618530273,0.0,0.0,0.0,0.0,0.0,snow covered,0.276535391807556,-8.84885883331299,100.0,416.336975097656
frame_00012.png,1769615294757028541,1769615294.7570286,42.29950754941019,-83.69750197665851,234.60903930664062,0.7315216607927539,0.6817929054772541,0.0021854704516448085,0.005451380632481056,0.0021600000000000005,0.00289,-0.00042000000000000007,0.0726,0.10690000000000001,-9.6461,-0.016100167931728734,0.036015109653201274,0.0,0.0,0.0,0.0,0.0,0.0,0.0,0.0,0.0,0.0,3.1000001430511475,23.899999618530273,0.0,0.0,0.0,0.0,0.0,snow covered,0.276535391807556,-8.84885883331299,100.0,416.336975097656
frame_00013.png,1769615294777691920,1769615294.7776918,42.29950754712774,-83.69750197722692,234.60890197753906,0.7315160575568663,0.6817990952046276,0.00219277196310838,0.005426146489787181,0.00144,0.0022600000000000003,-0.0015500000000000002,0.0402,0.061900000000000004,-9.6978,-0.013923082223519966,0.031145099549080756,0.0,0.0,0.0,0.0,0.0,0.0,0.0,0.0,0.0,0.0,3.1000001430511475,26.30000114440918,0.0,0.0,0.0,0.0,0.0,snow covered,0.276535391807556,-8.84885883331299,100.0,416.336975097656
frame_00014.png,1769615294798829268,1769615294.7988293,42.2995075448311,-83.69750197777599,234.60877990722656,0.731519455003752,0.6817957018974553,0.0022208018335672063,0.0053829234051728375,0.00158,0.006200000000000001,0.0012200000000000002,0.1782,0.0877,-9.729000000000001,-0.01095149790025569,0.024497843712997965,0.0,0.0,0.0,0.0,0.0,0.0,0.0,0.0,0.0,0.0,3.1000001430511475,28.024999618530273,0.0,0.0,0.0,0.0,0.0,snow covered,0.276535391807556,-8.84885883331299,100.0,416.336975097656
frame_00015.png,1769615294819097888,1769615294.8190978,42.29950754361327,-83.69750197817545,234.60874938964844,0.731523955013549,0.6817911708500773,0.002259822034448803,0.0053287706451418835,0.0016700000000000003,0.005370000000000001,-0.0008600000000000002,0.36150000000000004,0.0024000000000000002,-9.6616,-0.003315350800167645,0.007416240818927012,0.0,0.0,0.0,0.0,0.0,0.0,0.0,0.0,0.0,0.0,3.1000001430511475,29.350000381469727,0.0,0.0,0.0,0.0,0.0,snow covered,0.276535391807556,-8.84885883331299,100.0,416.336975097656
frame_00016.png,1769615294839969274,1769615294.8399694,42.29950754402124,-83.6975019790995,234.60842895507812,0.7315234045264746,0.6817921220515528,0.0022992057841856907,0.005265414627387247,0.0018900000000000002,0.00868,0.0005000000000000001,0.2316,0.1223,-9.7712,0.00229016443051684,0.00512296042120034,0.0,0.0,0.0,0.0,0.0,0.0,0.0,0.0,0.0,0.0,3.1000001430511475,29.649999618530273,0.0,0.0,0.0,0.0,0.0,snow covered,0.276535391807556,-8.84885883331299,100.0,416.336975097656
frame_00017.png,1769615294860338753,1769615294.8603387,42.29950754515496,-83.69750198009885,234.60809326171875,0.7315389884268721,0.6817760711430173,0.002384913438503338,0.005139009249900772,0.0015900000000000003,0.00922,0.0009400000000000002,0.5275000000000001,0.0755,-9.7268,0.01786383491959905,0.03996032688504791,0.0,0.0,0.0,0.0,0.0,0.0,0.0,0.0,0.0,0.0,3.1000001430511475,29.450000762939453,0.0,0.0,0.0,0.0,0.0,snow covered,0.276535391807556,-8.84885883331299,100.0,416.336975097656
frame_00018.png,1769615294880941338,1769615294.8809414,42.299507548001884,-83.69750198038224,234.6079864501953,0.7315513451021738,0.6817630163631939,0.002451637084917268,0.005080204145827255,0.0006300000000000001,0.009200000000000002,0.0010000000000000002,0.4349,0.12100000000000001,-9.8123,0.027104158102703512,0.060630375426261596,0.0,0.0,0.0,0.0,0.0,0.0,0.0,0.0,0.0,0.0,3.1000001430511475,29.600000381469727,0.0,0.0,0.0,0.0,0.0,snow covered,0.276535391807556,-8.84885883331299,100.0,416.336975097656
frame_00019.png,1769615294901599360,1769615294.9015992,42.29950755404991,-83.69750198096521,234.60763549804688,0.7315577100803687,0.6817564613617938,0.002538259954307968,0.005000144979555498,0.00012,0.01139,0.0007600000000000002,0.7796000000000001,0.0949,-9.719100000000001,0.04172577528501386,0.09333805576605891,0.0,0.0,0.0,0.0,0.0,0.0,0.0,0.0,0.0,0.0,3.1000001430511475,29.700000762939453,0.0,0.0,0.0,0.0,0.0,snow covered,0.276535391807556,-8.84885883331299,100.0,416.336975097656
frame_00020.png,1769615294922313506,1769615294.9223135,42.29950756105921,-83.69750198149308,234.6072540283203,0.73155922199903,0.6817550019392971,0.0026291507380641873,0.00493047718978585,-0.00102,0.01004,-0.0004300000000000001,0.921,0.11960000000000001,-9.7005,0.0603047375858882,0.13489807969537676,0.0,0.0,0.0,0.0,0.0,0.0,0.0,0.0,0.0,0.0,3.1000001430511475,29.55000114440918,0.0,0.0,0.0,0.0,0.0,snow covered,0.276535391807556,-8.84885883331299,100.0,416.336975097656
frame_00021.png,1769615294943069084,1769615294.9430692,42.29950757160476,-83.69750198114156,234.60707092285156,0.7315574988416765,0.6817570844158891,0.0027450637969842115,0.0048340833678099555,-0.0015900000000000003,0.014400000000000003,-0.0005300000000000001,1.0725,0.09140000000000001,-9.7012,0.08114713485756958,0.1815212718482917,0.0,0.0,0.0,0.0,0.0,0.0,0.0,0.0,0.0,0.0,3.1000001430511475,29.450000762939453,0.0,0.0,0.0,0.0,0.0,snow covered,0.276535391807556,-8.84885883331299,100.0,416.336975097656
frame_00022.png,1769615294963873621,1769615294.9638736,42.29950758840691,-83.69750198063014,234.60658264160156,0.7315466796310898,0.6817688948776015,0.002891051096018244,0.004719250116444103,-0.0013300000000000002,0.01882,-0.00116,1.4178000000000002,0.10990000000000001,-9.6601,0.10792402855076302,0.24141957642634385,0.0,0.0,0.0,0.0,0.0,0.0,0.0,0.0,0.0,0.0,3.1000001430511475,29.399999618530273,0.0,0.0,0.0,0.0,0.0,snow covered,0.276535391807556,-8.84885883331299,100.0,416.336975097656
frame_00023.png,1769615294984525438,1769615294.9845252,42.29950760630452,-83.69750197997541,234.60610961914062,0.7315271411544354,0.6817898995974656,0.0030202095833359068,0.004631727039619341,-0.0029100000000000003,0.014740000000000001,-0.0032500000000000007,1.6387,0.0589,-9.679400000000001,0.14045605684670806,0.31419177180267516,0.0,0.0,0.0,0.0,0.0,0.0,0.0,0.0,0.0,0.0,3.1000001430511475,29.350000381469727,0.0,0.0,0.0,0.0,0.0,snow covered,0.276535391807556,-8.84885883331299,100.0,416.336975097656
frame_00024.png,1769615295005157273,1769615295.0051575,42.29950766283957,-83.69750197650784,234.60531616210938,0.7315114978839115,0.6818066210977817,0.0031221451145119076,0.004572975043243679,-0.0015200000000000003,0.013360000000000002,-0.0024700000000000004,1.1041,0.16820000000000002,-9.863900000000001,0.16681194927413337,0.3731483218092799,0.0,0.0,0.0,0.0,0.0,0.0,0.0,0.0,0.0,0.0,3.1000001430511475,29.149999618530273,0.0,0.0,0.0,0.0,0.0,snow covered,0.276535391807556,-8.84885883331299,100.0,416.336975097656
frame_00025.png,1769615295025863727,1769615295.0258636,42.299507697630965,-83.69750197478533,234.6047821044922,0.7314966663684768,0.6818226419938905,0.0032897504976918445,0.004437284973817232,-0.00101,0.022260000000000002,-0.0029700000000000004,1.6158000000000001,0.0814,-9.8167,0.19519496564704855,0.4366394264545088,0.0,0.0,0.0,0.0,0.0,0.0,0.0,0.0,0.0,0.0,3.1000001430511475,29.075000762939453,0.0,0.0,0.0,0.0,0.0,snow covered,0.276535391807556,-8.84885883331299,100.0,416.336975097656
frame_00026.png,1769615295046861063,1769615295.0468612,42.29950773915759,-83.6975019718037,234.60447692871094,0.7314694832949602,0.6818519632564709,0.003423891231353516,0.0043095452586580825,0.00031,0.01692,-0.0033900000000000007,2.0761000000000003,0.0597,-9.7085,0.23560423355801072,0.5270325342152565,0.0,0.0,0.0,0.0,0.0,0.0,0.0,0.0,0.0,0.0,3.200000047683716,28.850000381469727,0.0,0.0,0.0,0.0,0.0,snow covered,0.276535391807556,-8.84885883331299,100.0,416.336975097656
frame_00027.png,1769615295067423114,1769615295.0674233,42.29950779143288,-83.69750196785819,234.6038818359375,0.7314571584350575,0.6818652744336112,0.003537764659296065,0.004202037232405618,0.00022000000000000003,0.013830000000000002,-0.0021200000000000004,1.6849,0.0403,-9.8505,0.27290569864692515,0.6104736735312528,0.0,0.0,0.0,0.0,0.0,0.0,0.0,0.0,0.0,0.0,3.200000047683716,28.649999618530273,0.0,0.0,0.0,0.0,0.0,snow covered,0.276535391807556,-8.84885883331299,100.0,416.336975097656
frame_00028.png,1769615295088029315,1769615295.0880294,42.29950784574906,-83.69750196384521,234.60328674316406,0.7314543477129944,0.6818685953910618,0.0036699144840805623,0.0040357847883173755,0.0035800000000000007,0.024200000000000003,0.00023000000000000003,1.8034000000000001,0.1605,-10.0751,0.30656118518144604,0.685758977579784,0.0,0.0,0.0,0.0,0.0,0.0,0.0,0.0,0.0,0.0,3.200000047683716,28.774999618530273,0.0,0.0,0.0,0.0,0.0,snow covered,0.276535391807556,-8.84885883331299,100.0,416.336975097656
frame_00029.png,1769615295108642225,1769615295.1086423,42.299507907341074,-83.6975019592674,234.6031494140625,0.731449117234968,0.6818746002492807,0.003775954227895643,0.0038678935790191315,0.004380000000000001,0.015820000000000004,-0.00041000000000000005,2.2376,-0.0273,-9.9719,0.35038497535718,0.7837901667754903,0.0,0.0,0.0,0.0,0.0,0.0,0.0,0.0,0.0,0.0,3.200000047683716,28.75,0.0,0.0,0.0,0.0,0.0,snow covered,0.276535391807556,-8.84885883331299,100.0,416.336975097656
frame_00030.png,1769615295129475406,1769615295.1294754,42.29950798006094,-83.697501953421,234.60293579101562,0.7314551708177229,0.6818684659454748,0.003827019398612294,0.003752619845325158,0.005410000000000001,0.011600000000000003,0.0017100000000000001,1.6468,0.23600000000000002,-10.2417,0.3853027865314013,0.861899215303553,0.0,0.0,0.0,0.0,0.0,0.0,0.0,0.0,0.0,0.0,3.1000001430511475,28.825000762939453,0.0,0.0,0.0,0.0,0.0,snow covered,0.276535391807556,-8.84885883331299,100.0,416.336975097656
frame_00031.png,1769615295149961605,1769615295.1499617,42.29950805475809,-83.69750194773054,234.60267639160156,0.7314603599360571,0.6818634321069814,0.003877236526052301,0.0036012267941127793,0.008790000000000001,0.014900000000000002,-0.00039000000000000005,1.8728,0.1563,-10.1669,0.4212382192728784,0.9422846222202726,0.0,0.22999998927116394,0.0,0.699999988079071,0.0,0.1867621118880862,0.0,0.5684064443200959,0.18879213905204553,0.0,3.1000001430511475,28.774999618530273,0.0,0.0,0.0,0.0,0.0,snow covered,0.276535391807556,-8.84885883331299,100.0,416.336975097656
frame_00032.png,1769615295170581609,1769615295.1705816,42.2995081368603,-83.69750194094239,234.6029510498047,0.7314667522344002,0.6818574351222157,0.003903938977798587,0.003404086466251604,0.00801,0.008820000000000001,0.00046000000000000007,1.9516,0.1961,-10.0799,0.4827284960867617,1.0798346820363207,0.9599999785423279,0.22999998927116394,0.7699999809265137,0.699999988079071,0.7795288337761724,0.1867621118880862,0.6252470839121532,0.5684064443200959,0.5399861184741269,0.49993630742083883,3.1000001430511475,28.875,0.0,0.0,0.0,0.0,0.0,snow covered,0.276535391807556,-8.84885883331299,100.0,416.336975097656
frame_00033.png,1769615295191287244,1769615295.1912873,42.29950823105,-83.69750193249497,234.6031036376953,0.731466650962112,0.6818581904263643,0.003900658296274619,0.003275903480206159,0.009700000000000002,0.008780000000000001,-4e-05,2.0147,0.1311,-9.9853,0.5224417184574325,1.1686707776861691,0.9599999785423279,0.22999998927116394,0.7699999809265137,0.699999988079071,0.7795288337761724,0.1867621118880862,0.6252470839121532,0.5684064443200959,0.5399861184741269,0.5379484720724891,3.1000001430511475,28.92500114440918,0.0,0.0,0.0,0.0,0.0,snow covered,0.276535391807556,-8.84885883331299,100.0,416.336975097656
frame_00034.png,1769615295212053150,1769615295.2120533,42.29950832627516,-83.69750192428037,234.603271484375,0.7314640671877772,0.6818615391816917,0.003891480851235853,0.0031648340673370704,0.00854,0.0068800000000000016,-0.0011800000000000003,1.9437,0.14750000000000002,-10.031,0.5621638474289281,1.2575267968676664,0.9599999785423279,1.1200000047683716,1.2200000286102295,1.149999976158142,0.7795288337761724,0.9094503302719618,0.9906512716317702,0.9338105836401915,0.903360254830024,0.28163737179980947,3.1000001430511475,29.024999618530273,0.0,0.0,0.0,0.0,0.0,snow covered,0.276535391807556,-8.84885883331299,100.0,416.336975097656
frame_00035.png,1769615295232876183,1769615295.2328763,42.29950843003229,-83.69750191479626,234.60382080078125,0.7314628097929134,0.6818633541463389,0.003894867407531006,0.003058458768482776,0.007470000000000001,0.0082,-0.00046000000000000007,2.0536000000000003,0.1741,-9.9398,0.6020834714815705,1.3468246006959843,1.2799999713897705,1.1200000047683716,1.2200000286102295,1.149999976158142,1.03937177836823,0.9094503302719618,0.9906512716317702,0.9338105836401915,0.9683209909780384,0.2810340778764738,3.1000001430511475,29.25,0.0,0.0,0.0,0.0,0.0,snow covered,0.276535391807556,-8.84885883331299,100.0,416.336975097656
frame_00036.png,1769615295253555976,1769615295.253556,42.29950854596456,-83.69750190387077,234.6042022705078,0.731451300232129,0.681876191768317,0.00388937770576085,0.0029541884379762234,0.007910000000000002,0.008910000000000001,-0.0019900000000000004,2.1089,0.0637,-10.0044,0.6437857316042892,1.4401100544548988,1.2799999713897705,1.4199999570846558,1.2200000286102295,1.46999990940094,1.03937177836823,1.1530530575523448,0.9906512716317702,1.1936534798327278,1.094182396846268,0.24020918160978263,3.1000001430511475,29.67500114440918,0.0,0.0,0.0,0.0,0.0,snow covered,0.276535391807556,-8.84885883331299,100.0,416.336975097656
frame_00037.png,1769615295274159286,1769615295.2741594,42.299508662259434,-83.69750189256811,234.6046142578125,0.7314397459054198,0.6818890087165533,0.0038875108844085736,0.002857474495898699,0.008260000000000002,0.008910000000000001,-0.0016000000000000003,1.9709,0.1676,-10.109300000000001,0.6825815325057467,1.526893933323405,1.5699999332427979,1.4199999570846558,1.5199999809265137,1.46999990940094,1.2748544211925366,1.1530530575523448,1.2342539989121533,1.1936534798327278,1.2139537393724407,0.20495214966885447,3.1000001430511475,30.17500114440918,0.0,0.0,0.0,0.0,0.0,snow covered,0.276535391807556,-8.84885883331299,100.0,416.336975097656
frame_00038.png,1769615295294971767,1769615295.2949717,42.299508787782315,-83.69750188048806,234.60531616210938,0.7314256390130768,0.6819047887595502,0.0038796609665193715,0.00270959256909972,0.011920000000000002,0.007240000000000001,-0.0017600000000000003,2.2322,0.052500000000000005,-9.908900000000001,0.7240690855785047,1.6196991002939805,1.5699999332427979,1.6899999380111694,1.7799999713897705,1.71999990940094,1.2748544211925366,1.3722955314644982,1.44537638836823,1.396655784832728,1.372295531464498,0.15274662360717364,3.1000001430511475,31.350000381469727,0.0,0.0,0.0,0.0,0.0,snow covered,0.276535391807556,-8.84885883331299,100.0,416.336975097656
frame_00039.png,1769615295315567259,1769615295.3155673,42.29950892579947,-83.69750186716259,234.60577392578125,0.7314023107235049,0.6819304408088731,0.003872353370130253,0.00255707761128236,0.011590000000000001,0.006070000000000001,-0.0032200000000000006,2.1105,0.12990000000000002,-9.6838,0.7672024149972946,1.7161857702040482,1.7899999618530273,1.6899999380111694,1.7799999713897705,1.71999990940094,1.4534964728243065,1.3722955314644982,1.44537638836823,1.396655784832728,1.4169560443724407,0.17435742157215892,3.1000001430511475,32.25,0.0,0.0,0.0,0.0,0.0,snow covered,0.276535391807556,-8.84885883331299,100.0,416.336975097656
frame_00040.png,1769615295336134340,1769615295.3361344,42.29950906431318,-83.69750185323164,234.60626220703125,0.7313967457350541,0.6819370982539313,0.0038614496662514575,0.002384021739781802,0.014740000000000001,0.01297,-0.00232,2.0746,0.1091,-9.8063,0.8082758296476961,1.8080645343721173,1.9900000095367432,1.909999966621399,2.0199999809265137,1.9499999284744263,1.6158983555439235,1.5509375830962684,1.6402586089121531,1.5834179209205748,1.59762811711823,0.1163876693853547,3.1000001430511475,33.275001525878906,0.0,0.0,0.0,0.0,0.0,snow covered,0.276535391807556,-8.84885883331299,100.0,416.336975097656
frame_00041.png,1769615295357048765,1769615295.3570487,42.299509212370374,-83.69750183931569,234.60702514648438,0.7313816994275116,0.681954027669798,0.003845498747697659,0.002173942696294815,0.0158,0.014560000000000002,-0.0023500000000000005,2.1429,-0.08750000000000001,-9.8505,0.850335125524089,1.9021486556898557,1.9900000095367432,2.119999885559082,2.0199999809265137,2.169999837875366,1.6158983555439235,1.7214594534729195,1.6402586089121531,1.7620598757533026,1.6849190734205746,0.11420221107298162,3.200000047683716,34.0,0.0,0.0,0.0,0.0,0.0,snow covered,0.276535391807556,-8.84885883331299,100.0,416.336975097656
frame_00042.png,1769615295377741993,1769615295.377742,42.29950937326395,-83.69750182403732,234.6075439453125,0.7313761534512663,0.6819607340067813,0.0038268816468512838,0.0019581656270073367,0.0178,0.014090000000000004,-0.0018000000000000004,2.2793,0.19340000000000002,-9.8149,0.8945898177782592,2.0011437469808993,2.2100000381469727,2.319999933242798,2.2200000286102295,2.359999895095825,1.7945404071756936,1.8838613361925365,1.8026604916317701,1.916341674016843,1.849350977254211,0.07585300653973318,3.200000047683716,34.75,0.0,0.0,0.0,0.0,0.0,snow covered,0.276535391807556,-8.84885883331299,100.0,416.336975097656
frame_00043.png,1769615295398902568,1769615295.3989024,42.29950953530234,-83.69750180939002,234.60804748535156,0.7313657745281167,0.6819728090616939,0.0037626559237716193,0.0017418294375517948,0.016940000000000004,0.008190000000000001,-0.0027400000000000002,2.4281,-0.2447,-9.7697,0.9414502923157018,2.105967816892686,2.4099998474121094,2.319999933242798,2.419999837875366,2.359999895095825,1.9569420962972262,1.8838613361925365,1.9650621807533026,1.916341674016843,1.930551821814977,0.08329471783501984,3.299999952316284,35.525001525878906,0.0,0.0,0.0,0.0,0.0,snow covered,0.276535391807556,-8.84885883331299,100.0,416.336975097656
frame_00044.png,1769615295419076059,1769615295.4190762,42.299509706570916,-83.6975017931946,234.60874938964844,0.7313829673360912,0.6819551695300182,0.0037153263759032275,0.0015159788451003498,0.022140000000000003,0.009060000000000002,0.0016500000000000002,1.8189000000000002,0.248,-9.385,0.9817893677188637,2.1962039082250353,2.5999999046325684,2.509999990463257,2.690000057220459,2.549999952316284,2.111223894560766,2.0381431344560768,2.1843048482635403,2.070623472280383,2.1010738373901914,0.043315682336494764,3.4000000953674316,35.5,0.0,0.0,0.0,0.0,0.0,snow covered,0.276535391807556,-8.84885883331299,100.0,416.336975097656
frame_00045.png,1769615295439748213,1769615295.439748,42.299509891860794,-83.69750177759077,234.60910034179688,0.7313786035938351,0.6819600836590995,0.0037591390878581573,0.0012850580235887318,0.0089,0.006560000000000001,-0.00032,2.2544,0.16770000000000002,-9.418700000000001,1.030050088196324,2.304160244289885,2.7899999618530273,2.679999828338623,2.8899998664855957,2.700000047683716,2.2655056928243065,2.1761845702093794,2.3467065373850726,2.192424932719617,2.245205433284594,0.025586246074417663,3.700000047683716,35.95000076293945,0.0,0.0,0.0,0.0,0.0,snow covered,0.276535391807556,-8.84885883331299,100.0,416.336975097656
frame_00046.png,1769615295460251289,1769615295.4602513,42.299510077131316,-83.69750176027723,234.60946655273438,0.7313780552026429,0.6819605346755411,0.003886950952168349,0.0009279683966849147,0.004220000000000001,0.025540000000000004,-0.004390000000000001,2.0075000000000003,-0.6991,-9.0982,1.0939365995096244,2.4470705369070593,2.7899999618530273,2.809999942779541,3.2799999713897705,2.9099998474121094,2.2655056928243065,2.28174586173646,2.66339021836823,2.362946706297226,2.3933971198065556,0.02193374334372214,3.9000000953674316,35.85000228881836,0.0,0.0,0.0,0.0,0.0,snow covered,0.276535391807556,-8.84885883331299,100.0,416.336975097656
frame_00047.png,1769615295481144080,1769615295.481144,42.29951027268383,-83.69750174460361,234.6097869873047,0.7313621683904008,0.6819767314218764,0.004066909916233328,0.0007594011839907881,0.00232,0.006660000000000001,-0.007090000000000001,2.3643,-0.0046,-8.461500000000001,1.1390485440069402,2.547983250030885,3.0,3.0199999809265137,3.679999828338623,3.0799999237060547,2.43602766,2.452267828912153,2.988193790209379,2.500988335648613,2.594369403692536,0.01820504654459119,4.099999904632568,35.70000076293945,0.0,0.0,0.0,0.0,0.0,snow covered,0.276535391807556,-8.84885883331299,100.0,416.336975097656
frame_00048.png,1769615295501787118,1769615295.5017872,42.29951048316648,-83.69750172749897,234.6095428466797,0.7313237748511529,0.6820170467683293,0.004244936466966699,0.000514557341719554,0.0032300000000000002,0.00019000000000000004,-0.008060000000000001,3.4136,-0.2906,-10.720500000000001,1.2035926585483063,2.6923645616130485,3.18999981880188,3.2300000190734863,3.4700000286102295,3.240000009536743,2.590309264665456,2.622789796087847,2.81767201663177,2.6309098805439235,2.665420239482249,0.010007679686088572,4.300000190734863,35.79999923706055,0.0,0.0,0.0,0.0,0.0,snow covered,0.276535391807556,-8.84885883331299,100.0,416.336975097656
frame_00049.png,1769615295522382633,1769615295.5223825,42.299510695412756,-83.6975017140234,234.609619140625,0.731313556069468,0.6820266225314486,0.0044750548409165595,0.0003778247536425506,-0.01131,0.0070100000000000015,-0.0032800000000000004,2.4355,-0.4524,-10.026100000000001,1.2536863627750898,2.8044211723461094,3.3399999141693115,3.3499999046325684,3.5299999713897705,3.369999885559082,2.7121107251046896,2.7202308095607663,2.86639252336823,2.7364709784729198,2.7588012591266513,0.0162671404956245,4.400000095367432,35.54999923706055,0.0,0.0,0.0,0.0,0.0,snow covered,0.276535391807556,-8.84885883331299,100.0,416.336975097656
frame_00050.png,1769615295543161123,1769615295.5431612,42.29951091818781,-83.69750169694906,234.60972595214844,0.731255544571068,0.6820867348907592,0.004793877684738757,0.00018263865336519912,0.00030000000000000003,0.03853,-0.013320000000000002,2.8128,0.8789,-10.0652,1.2961259290339673,2.899355935693243,4.690000057220459,3.5299999713897705,3.6599998474121094,3.5299999713897705,3.8083232882635407,2.86639252336823,2.971953621297226,2.86639252336823,3.1282654890743067,0.07895186326142847,4.700000286102295,35.57500076293945,0.0,0.0,0.0,0.0,0.0,snow covered,0.276535391807556,-8.84885883331299,100.0,416.336975097656
frame_00051.png,1769615295563820484,1769615295.5638206,42.299511157839206,-83.69750167990603,234.60983276367188,0.7311562553156093,0.6821920336684655,0.00495207509405287,0.00019095654379646767,-0.017320000000000002,0.003910000000000001,-0.012190000000000003,3.4163,-1.4142000000000001,-10.2463,1.3652929494245505,3.0540784102857543,6.12999963760376,3.6399998664855957,3.6499998569488525,3.68999981880188,4.977616224330911,2.955713452385073,2.9638335368411495,2.9963138746654563,3.473369272055648,0.13728883330492583,4.700000286102295,35.5,0.0,0.0,0.0,0.0,0.0,snow covered,0.276535391807556,-8.84885883331299,100.0,416.336975097656
frame_00052.png,1769615295584430128,1769615295.58443,42.299511397457934,-83.69750166844665,234.60992431640625,0.7311209685275366,0.682227148719419,0.005292401782365284,0.00048725034903700335,-0.05189000000000001,0.01683,-0.00483,2.1258,-0.313,-9.4381,1.40984661237375,3.153742281083337,7.170000076293945,3.759999990463257,3.809999942779541,3.759999990463257,5.822106169351388,3.0531546594560766,3.0937550817364596,3.0531546594560766,3.7555426425,0.1908210334834144,4.700000286102295,35.22500228881836,0.0,0.0,0.0,0.0,0.0,snow covered,0.276535391807556,-8.84885883331299,100.0,416.336975097656
frame_00053.png,1769615295605209859,1769615295.6052098,42.29951165008025,-83.69750165353538,234.6103057861328,0.7310399380034921,0.6823111778497131,0.005623426249739308,0.0006653588517725811,-0.025880000000000004,0.024960000000000003,-0.017150000000000002,2.7928,-0.1627,-9.365,1.460204519790864,3.2663898985009756,8.34000015258789,3.93999981880188,3.9499998092651367,3.9499998092651367,6.772157018702774,3.199316179665456,3.2074362641215326,3.2074362641215326,4.096586431652824,0.2541633298378878,4.700000286102295,35.67499923706055,0.0,0.0,0.0,0.0,0.0,snow covered,0.276535391807556,-8.84885883331299,100.0,416.336975097656
frame_00054.png,1769615295625937940,1769615295.625938,42.29951218686363,-83.69750163340217,234.61093139648438,0.7309565908072353,0.6823975219284598,0.005913610939066668,0.0010552852802125855,-0.055880000000000006,-0.004190000000000001,-0.007500000000000001,2.4666,-1.3269,-10.176300000000001,1.51922468074745,3.398414457351201,9.75,4.049999713897705,4.190000057220459,4.089999675750732,7.917089895,3.2886371086822987,3.4023186782635406,3.321117446506605,4.482290782113111,0.3189358856502473,4.700000286102295,35.525001525878906,0.0,0.0,0.0,0.0,0.0,snow covered,0.276535391807556,-8.84885883331299,100.0,416.336975097656
frame_00055.png,1769615295646820641,1769615295.6468205,42.29951246878924,-83.69750162564554,234.61129760742188,0.7309385650385772,0.6824126444069218,0.006308063113218276,0.0014160623777116504,-0.05288,0.005860000000000001,-0.00693,3.0426,-0.26630000000000004,-10.1056,1.5688643212206055,3.5094553547112213,10.819999694824219,4.130000114440918,4.309999942779541,4.170000076293945,8.785939512594451,3.3535981715270804,3.4997596917364597,3.386078509351387,4.7563439713023445,0.3552940529410794,4.700000286102295,35.47500228881836,0.0,0.0,0.0,0.0,0.0,snow covered,0.276535391807556,-8.84885883331299,100.0,416.336975097656
frame_00056.png,1769615295667381815,1769615295.6673818,42.29951276406705,-83.69750162289297,234.6112518310547,0.7308953129464144,0.6824555917986321,0.006598237173503944,0.0016941080084107065,-0.0332,0.006660000000000001,-0.006790000000000001,2.3152,-0.7145,-9.4533,1.6151969807715305,3.6130987341670675,11.75999927520752,4.429999828338623,4.549999713897705,4.460000038146973,9.549227838661823,3.5972007052093797,3.694641718682299,3.621561152175694,5.115657853682299,0.41586439509841355,4.599999904632568,35.25,0.0,0.0,0.0,0.0,0.0,snow covered,0.276535391807556,-8.84885883331299,100.0,416.336975097656
frame_00057.png,1769615295688106603,1769615295.6881065,42.29951306251793,-83.69750161535565,234.61119079589844,0.7308927810860479,0.682451751321956,0.007168189187670314,0.0019916670573294254,-0.07006000000000001,0.020760000000000004,0.005280000000000001,3.2600000000000002,-0.5284,-9.1189,1.668342920431699,3.731983012430485,13.779999732971191,4.630000114440918,4.920000076293945,4.71999979019165,11.189486834770145,3.7596027815270805,3.995085424351387,3.832683348033686,5.694214597170575,0.5257879197746321,4.5,35.72500228881836,0.0,0.0,0.0,0.0,0.0,snow covered,0.276535391807556,-8.84885883331299,100.0,416.336975097656
frame_00058.png,1769615295729525539,1769615295.7295256,42.29951369420251,-83.6975016119354,234.61050415039062,0.7309096900360165,0.682421409056047,0.008129020413539214,0.0024422326937289644,-0.03986000000000001,0.038060000000000004,-0.00019000000000000004,1.1280000000000001,-0.7489,-8.977500000000001,1.7543334934861199,3.9243387649188413,15.219999313354492,4.75,6.309999942779541,4.909999847412109,12.358779770837517,3.8570437950000005,5.12377813173646,3.986965146297226,6.3316417109678005,0.6134289342114797,3.700000047683716,35.275001525878906,0.0,28.0,0.0,0.0,0.0,snow covered,0.276535391807556,-8.84885883331299,100.0,416.336975097656
frame_00059.png,1769615295749973159,1769615295.7499733,42.29951401749611,-83.69750160480707,234.6099395751953,0.7309625851990093,0.6823513613723782,0.009123063321077051,0.0026624026898818065,-0.04769,0.059280000000000006,0.0012200000000000002,2.1236,0.6693,-9.3137,1.8279324903168839,4.08897530488945,15.429999351501465,5.130000114440918,6.889999866485596,5.099999904632568,12.529301738013212,4.165607391527081,5.5947434173850725,4.141246944560766,6.6077248728715325,0.6159855171955311,3.0,35.29999923706055,0.0,124.0,0.0,0.0,0.0,snow covered,0.276535391807556,-8.84885883331299,100.0,416.336975097656
frame_00060.png,1769615295770633291,1769615295.7706332,42.29951435230742,-83.69750159870583,234.60946655273438,0.7309750848861809,0.6823308508693717,0.009616293939024774,0.0027499306169507065,-0.028700000000000003,0.03463,0.00203,2.1902,1.3142,-9.4901,1.8863844018093496,4.2197287237834065,15.15999984741211,5.339999675750732,7.319999694824219,5.21999979019165,12.310059651297227,4.336128971506605,5.943907242594452,4.238687958033686,6.707195955857993,0.5894851055364349,1.899999976158142,35.42499923706055,0.0,232.0,0.0,0.0,0.0,snow covered,0.276535391807556,-8.84885883331299,100.0,416.336975097656
frame_00061.png,1769615295791376835,1769615295.7913768,42.299514702167684,-83.69750159169946,234.60911560058594,0.7309508653039823,0.6823506898465717,0.01002518819994955,0.002804314323051253,-0.040850000000000004,0.010960000000000001,4e-05,2.5852,-0.1716,-10.6259,1.9400048723049277,4.339674499053785,14.789999961853027,5.509999752044678,7.359999656677246,5.730000019073486,12.009616332824306,4.474170600857992,5.976387580418758,4.652812846087847,6.778246840047226,0.561925172389114,0.800000011920929,35.47500228881836,0.0,164.0,0.0,0.0,0.0,snow covered,0.276535391807556,-8.84885883331299,100.0,416.336975097656
frame_00062.png,1769615295812197344,1769615295.8121974,42.29951505259542,-83.69750157984187,234.6083221435547,0.7309979774653602,0.6822959215430378,0.010352317591436894,0.0026574250273346894,-0.00102,0.030910000000000003,0.005600000000000001,2.9359,-0.3856,-11.1636,1.9855899515735438,4.441645586272923,13.90999984741211,5.809999942779541,7.239999771118164,7.329999923706055,11.295048126297226,4.7177735217364605,5.878946566945839,5.952027520648613,6.9609489339070345,0.5672004437769902,-0.6000000238418579,35.67499923706055,0.0,228.0,0.0,0.0,0.0,snow covered,0.276535391807556,-8.84885883331299,100.0,416.336975097656
frame_00063.png,1769615295832837310,1769615295.8328373,42.29951541337495,-83.6975015728376,234.6084747314453,0.7310122808307623,0.6822768993633965,0.010598891203192375,0.0026346489214678043,-0.01983,0.021020000000000004,0.006970000000000001,2.6153,-0.3771,-10.8267,2.034385435065272,4.550798155114911,13.00999927520752,6.009999752044678,7.170000076293945,10.609999656677246,10.564239363661825,4.880175210857993,5.822106169351388,8.615417545418758,7.470484572322491,0.6415767778946584,-1.7000000476837158,35.525001525878906,0.0,252.0,0.0,0.0,0.0,snow covered,0.276535391807556,-8.84885883331299,100.0,416.336975097656
frame_00064.png,1769615295853580277,1769615295.8535802,42.29951578819074,-83.69750156410228,234.6087188720703,0.7311492797044892,0.6821293383657293,0.010692444802206767,0.002442980247670743,0.01847,0.03694,0.01818,2.21,0.5027,-10.116,2.072487815502921,4.636030894011104,12.1899995803833,5.839999675750732,7.739999771118164,11.539999961853027,9.898392051067372,4.7421335815066055,6.28495117694584,9.370586367824306,7.574015794336031,0.6337284991176959,-3.200000047683716,35.67499923706055,0.0,240.0,0.0,0.0,0.0,snow covered,0.276535391807556,-8.84885883331299,100.0,416.336975097656
frame_00065.png,1769615295874258923,1769615295.874259,42.29951616727954,-83.69750156383313,234.6090850830078,0.7312312451752037,0.6820400594970034,0.010794161038099414,0.002389436822540242,-0.0119,0.00863,0.017670000000000005,2.1912000000000003,-0.458,-10.0465,2.123334557940418,4.749772006039239,11.710000038146973,6.150000095367432,7.889999866485596,12.179999351501465,9.508627997175694,4.993856780439234,6.406752637385073,9.890271773013211,7.699877297003303,0.6211046103293092,-4.0,35.275001525878906,0.0,208.0,0.0,0.0,0.0,snow covered,0.276535391807556,-8.84885883331299,100.0,416.336975097656
frame_00066.png,1769615295893792125,1769615295.893792,42.29951655495054,-83.69750155840931,234.61009216308594,0.7314104981044288,0.6818463877595489,0.010879458532037253,0.002413326321886723,-0.00708,-0.005600000000000001,0.022190000000000005,3.0444,-0.059800000000000006,-10.284,2.1795514162732115,4.875525745118198,11.279999732971191,6.349999904632568,9.869999885559082,13.130000114440918,9.159463784770146,5.1562584695607665,8.014530908472919,10.661681151527082,8.247983578582728,0.6917116245035377,-4.400000095367432,35.57500076293945,0.0,176.0,0.0,0.0,0.0,snow covered,0.276535391807556,-8.84885883331299,100.0,416.336975097656
frame_00067.png,1769615295914212235,1769615295.9142125,42.29951695561022,-83.69750155336112,234.610595703125,0.7315533823201947,0.6816898619096418,0.01106361475960264,0.0024854403930951964,-0.021340000000000005,0.009170000000000001,0.026050000000000004,1.675,0.23570000000000002,-9.078800000000001,2.2150678163240256,4.954973801047866,10.670000076293945,6.549999713897705,11.949999809265137,13.579999923706055,8.664138439351387,5.318660158682299,9.703510024121533,11.027085145648613,8.678348441950957,0.7514418421578094,-4.599999904632568,35.72500228881836,0.0,152.0,0.0,0.0,0.0,snow covered,0.276535391807556,-8.84885883331299,100.0,416.336975097656
frame_00068.png,1769615295935027918,1769615295.935028,42.2995173576477,-83.69750154683715,234.6112823486328,0.7317156368672314,0.6815120303677491,0.011297124338539629,0.0024401249331622177,-0.010130000000000002,0.02162,0.018140000000000003,2.2868,0.37820000000000004,-9.7448,2.25050301958601,5.034240224632729,10.130000114440918,8.34000015258789,12.899999618530273,13.019999504089355,8.225653491527082,6.772157018702774,10.474918628243065,10.572359641715984,9.011272195047226,0.7899964628137387,-4.800000190734863,35.72500228881836,0.0,160.0,0.0,0.0,0.0,snow covered,0.276535391807556,-8.84885883331299,100.0,416.336975097656
frame_00069.png,1769615295955997440,1769615295.9559975,42.29951776704625,-83.69750153813249,234.6122589111328,0.7318698203538174,0.6813447302816179,0.011391377978195227,0.0024821523923322358,-0.005030000000000001,0.0018000000000000004,0.026390000000000004,2.3320000000000003,0.8708,-10.638,2.299570330288879,5.144000854636405,9.579999923706055,10.889999389648438,13.989999771118164,13.049999237060547,7.779048265648614,8.842779910188904,11.36000880194584,10.59671970148613,9.644639169817372,0.8749295426583064,-4.900000095367432,35.47500228881836,0.0,160.0,0.0,0.0,0.0,snow covered,0.276535391807556,-8.84885883331299,100.0,416.336975097656
frame_00070.png,1769615295976632311,1769615295.9766324,42.29951819001991,-83.69750152455457,234.61329650878906,0.7320435093126615,0.6811599783544056,0.011272262196886512,0.002514053776987021,0.005490000000000001,-0.01999,0.021410000000000002,1.9932,0.8581000000000001,-10.5128,2.3418056095412405,5.238478640207183,9.569999694824219,12.559999465942383,14.210000038146973,13.719999313354492,7.770927987594452,10.198835369540292,11.538651047175694,11.140765940837518,10.162295086286989,0.9399325232115612,-4.900000095367432,35.67499923706055,0.0,68.0,0.0,0.0,0.0,snow covered,0.276535391807556,-8.84885883331299,100.0,416.336975097656
frame_00071.png,1769615295998012562,1769615295.9980128,42.29951861211249,-83.69750151069466,234.61424255371094,0.7321576931094571,0.681039825375355,0.011143551729596142,0.0023853570369208156,0.024350000000000004,-0.0005900000000000001,0.017670000000000005,1.8396000000000001,0.6184000000000001,-10.2486,2.370252670970257,5.302113009800207,9.920000076293945,14.880000114440918,13.889999389648438,15.15999984741211,8.055131524351388,12.082697286527083,11.278807570188903,12.310059651297227,10.93167400809115,1.0617580175838377,-4.900000095367432,35.54999923706055,0.0,88.0,0.0,0.0,0.0,snow covered,0.276535391807556,-8.84885883331299,100.0,416.336975097656
frame_00072.png,1769615296019132135,1769615296.0191321,42.29951904282956,-83.6975014918847,234.61607360839844,0.7322889261885254,0.6809037287782584,0.010832530020017123,0.002386841193992722,0.019920000000000004,-0.029620000000000004,0.01794,2.3577,0.9914000000000001,-11.056000000000001,2.417166002651733,5.407055317971768,10.719999313354492,15.569999694824219,14.739999771118164,15.239999771118164,8.704738280837518,12.642983307594454,11.96901571694584,12.375020326945839,11.422939408080913,1.1125989538360694,-4.800000190734863,35.60000228881836,0.0,224.0,0.0,0.0,0.0,snow covered,0.276535391807556,-8.84885883331299,100.0,416.336975097656
frame_00073.png,1769615296038439021,1769615296.0384388,42.29951948351447,-83.69750146475563,234.6179962158203,0.7323765657632642,0.6808160445896293,0.010435525458880839,0.0022757764687757406,0.04030000000000001,-0.014680000000000002,0.007510000000000001,1.4206,1.2869000000000002,-10.0676,2.44468195873092,5.468606860763545,11.969999313354492,15.989999771118164,14.979999542236328,14.84999942779541,9.719749805837518,12.98402724194584,12.16389774389168,12.058336452364598,11.731502811009909,1.1452452351588347,-4.700000286102295,35.72500228881836,0.0,132.0,0.0,0.0,0.0,snow covered,0.276535391807556,-8.84885883331299,100.0,416.336975097656
frame_00074.png,1769615296059086736,1769615296.0590868,42.29951992813402,-83.69750144350773,234.619873046875,0.7323936995554068,0.680803367161514,0.010078074640332713,0.0021625273715613373,0.025750000000000006,-0.01837,0.00177,1.6872,-0.26080000000000003,-9.9685,2.4752034552240865,5.5368816171289685,13.699999809265137,16.549999237060547,15.479999542236328,14.809999465942383,11.124526159121533,13.43875197148613,12.56990235389168,12.025856114540291,12.289759149759908,1.2196174669402629,-4.599999904632568,36.17499923706055,0.0,0.0,0.0,0.0,0.0,snow covered,0.276535391807556,-8.84885883331299,100.0,416.336975097656
frame_00075.png,1769615296079778122,1769615296.079778,42.29952037576494,-83.6975014123078,234.62228393554688,0.7324233120398999,0.6807742937820347,0.009880791963944171,0.002196100234617012,0.013250000000000001,-0.01784,0.005940000000000001,1.8725,1.6837,-10.0091,2.510941766984673,5.616826076238695,14.84999942779541,17.190000534057617,15.5,15.539999961853027,12.058336452364598,13.95843892545971,12.586142910000001,12.618623247824306,12.805385383912153,1.2798258678658025,-4.599999904632568,36.75,0.0,16.0,0.0,0.0,0.0,snow covered,0.276535391807556,-8.84885883331299,100.0,416.336975097656
frame_00076.png,1769615296100501180,1769615296.1005013,42.29952083691156,-83.69750137715417,234.62445068359375,0.7323377258949484,0.6808717943714445,0.009503155339763784,0.002178278910854494,0.007390000000000002,-0.013890000000000003,-0.013420000000000001,1.5932000000000002,0.11370000000000001,-9.4281,2.566915253417544,5.742035406979841,16.3799991607666,17.420000076293945,15.229999542236328,16.420000076293945,13.300710342134742,14.145200674351388,12.36690004889168,13.333191454351388,13.286500629932299,1.3139008536557677,-4.200000286102295,36.900001525878906,0.0,0.0,0.0,0.0,0.0,snow covered,0.276535391807556,-8.84885883331299,100.0,416.336975097656
frame_00077.png,1769615296121098168,1769615296.1210983,42.29952129735598,-83.69750134488402,234.6265869140625,0.7322369931087056,0.6809808625343844,0.009421587971961312,0.002298796453370025,-0.00623,-0.017900000000000003,-0.01683,2.3583000000000003,0.6109,-9.555,2.607389069283318,5.8325729046426265,18.68000030517578,17.90999984741211,15.630000114440918,16.43000030517578,15.16833247740555,14.543085006297225,12.691704201527081,13.341311732405547,13.936108354408852,1.389358621358329,-4.0,36.72500228881836,0.0,0.0,0.0,0.0,0.0,snow covered,0.276535391807556,-8.84885883331299,100.0,416.336975097656
frame_00078.png,1769615296141786286,1769615296.1417863,42.29952176475403,-83.69750130660687,234.62887573242188,0.7320744609371995,0.6811574248522787,0.009243608900306767,0.0024702037606890302,-0.0018600000000000003,-0.018160000000000003,-0.024960000000000003,1.2665,0.0308,-8.9661,2.6369002149028176,5.898587566724709,20.0,18.959999084472656,16.15999984741211,16.279998779296875,16.2401844,15.395694067783356,13.122068871297225,13.219509110377807,14.494364112364597,1.4572601403988037,-3.6000001430511475,37.025001525878906,0.0,0.0,0.0,0.0,0.0,snow covered,0.276535391807556,-8.84885883331299,100.0,416.336975097656
frame_00079.png,1769615296162725062,1769615296.1627252,42.29952224296931,-83.69750126759428,234.63038635253906,0.731950576695619,0.6812907363087481,0.009207495628470752,0.0025510623445971297,-0.00136,-0.006430000000000001,-0.019000000000000003,1.4966000000000002,0.7826000000000001,-8.449,2.662196761019169,5.95517442259422,19.719999313354492,19.670000076293945,16.8799991607666,16.059999465942383,16.01282126083752,15.972221419351389,13.706714952134744,13.040867639540291,14.683156317965985,1.465613141784291,-3.200000047683716,36.650001525878906,0.0,168.0,0.0,0.0,0.0,snow covered,0.276535391807556,-8.84885883331299,100.0,416.336975097656
frame_00080.png,1769615296183219978,1769615296.18322,42.29952272332875,-83.6975012265578,234.6319122314453,0.7317335910287164,0.6815242467012034,0.009145706576341858,0.002647445900567186,-0.00693,-0.010670000000000002,-0.03375,1.3173000000000001,-0.5626,-9.340900000000001,2.689135729940992,6.015435279734203,19.020000457763672,19.809999465942383,16.3799991607666,16.239999771118164,15.444415736108322,16.08590221454029,13.300710342134742,13.18702954694584,14.504514459932299,1.4112161107937635,-2.799999952316284,36.95000076293945,0.0,76.0,0.0,0.0,0.0,snow covered,0.276535391807556,-8.84885883331299,100.0,416.336975097656
frame_00081.png,1769615296205395285,1769615296.2053952,42.299523700471894,-83.69750114352792,234.63421630859375,0.7315636031051389,0.6817056812236816,0.009201426520545595,0.0027189242670604278,-0.005000000000000001,-0.0033100000000000004,-0.023250000000000003,2.0545,0.7160000000000001,-9.7513,2.722467309600029,6.089996023536689,19.100000381469727,19.649999618530273,16.06999969482422,16.639999389648438,15.509376411756936,15.955980863243067,13.048987917594452,13.511832925188905,14.50654452944584,1.382028571674066,-2.299999952316284,37.10000228881836,0.0,96.0,0.0,0.0,0.0,snow covered,0.276535391807556,-8.84885883331299,100.0,416.336975097656
frame_00082.png,1769615296226028245,1769615296.2260282,42.299524193350656,-83.69750110492521,234.63494873046875,0.7313251033316245,0.6819634354536288,0.009068958645933153,0.0026869928081828223,0.013380000000000003,-0.00384,-0.03561,1.3713,0.0386,-9.2219,2.753710572291223,6.159885327581129,19.149999618530273,19.06999969482422,15.899999618530273,16.489999771118164,15.549976253243067,15.485015577594451,12.910946288243066,13.39003185194584,14.333992492756607,1.3269901516795437,-2.200000047683716,36.82500076293945,0.0,100.0,0.0,0.0,0.0,snow covered,0.276535391807556,-8.84885883331299,100.0,416.336975097656
frame_00083.png,1769615296247041246,1769615296.2470412,42.2995246936503,-83.6975010594831,234.6361083984375,0.7311180300199904,0.6821859930326347,0.00908246678846859,0.0024911617375286705,0.016610000000000003,0.020610000000000003,-0.028690000000000007,1.6300000000000001,0.2514,-9.7903,2.778039670491551,6.21430806050937,18.219999313354492,18.149999618530273,15.899999618530273,15.670000076293945,14.794807430837517,14.737967033243065,12.910946288243066,12.724184539351388,13.79197632291876,1.2193905079414857,-2.1000001430511475,37.0,0.0,80.0,0.0,0.0,0.0,snow covered,0.276535391807556,-8.84885883331299,100.0,416.336975097656
frame_00084.png,1769615296267396882,1769615296.267397,42.29952520387435,-83.6975010121163,234.6373291015625,0.7309305798028919,0.6823918201134469,0.008770510711474567,0.0022292359958482606,0.052770000000000004,-0.00885,-0.028800000000000006,1.6957,1.1701000000000001,-10.767800000000001,2.817972404643949,6.303635190844236,17.440000534057617,17.649999618530273,14.809999465942383,14.789999961853027,14.161441230459708,14.331962423243066,12.025856114540291,12.009616332824306,13.132219025266844,1.0832771294158705,-2.1000001430511475,36.85000228881836,0.0,88.0,0.0,0.0,0.0,snow covered,0.276535391807556,-8.84885883331299,100.0,416.336975097656
frame_00085.png,1769615296288684806,1769615296.2886848,42.29952571582755,-83.69750096967633,234.6383514404297,0.7307061864650085,0.6826376504164049,0.008432354289594214,0.0017896080210681516,0.048830000000000005,0.006810000000000001,-0.03357000000000001,1.6427,-0.9534,-10.2364,2.8448687684840497,6.36380074297271,17.18000030517578,16.84000015258789,13.859999656677246,13.90999984741211,13.950318647405549,13.674235388702774,11.254447510418759,11.295048126297226,12.543512418206076,0.9710724651549426,-2.1000001430511475,36.97500228881836,0.0,72.0,0.0,0.0,0.0,snow covered,0.276535391807556,-8.84885883331299,100.0,416.336975097656
frame_00086.png,1769615296309092344,1769615296.3090923,42.2995262322747,-83.69750092443303,234.64022827148438,0.7305438547031332,0.6828142462480844,0.008241363392001938,0.0015688867355106333,0.025700000000000004,0.0014700000000000002,-0.021970000000000003,1.8884,-0.08170000000000001,-10.8298,2.879631567806398,6.4415630392888445,17.10999870300293,16.19999885559082,13.5,13.049999237060547,13.89347670102642,13.154548434729195,10.962124470000001,10.59671970148613,12.151717326810436,0.8864547707899166,-2.200000047683716,37.025001525878906,0.0,56.0,0.0,0.0,0.0,snow covered,0.276535391807556,-8.84885883331299,100.0,416.336975097656
frame_00087.png,1769615296329480567,1769615296.3294804,42.299526761327286,-83.69750088437137,234.6425323486328,0.7303671137404046,0.6830044651224184,0.008154916835484926,0.0015090131730179257,0.00423,-0.0010700000000000002,-0.027920000000000004,1.8386,-0.6901,-10.8948,2.9140351733245127,6.518521840616536,16.690000534057617,15.869999885559082,12.269999504089355,12.1899995803833,13.55243431545971,12.88658622847292,9.963352726715986,9.898392051067372,11.575191330428996,0.7757386741123796,-2.299999952316284,37.10000228881836,0.0,36.0,0.0,0.0,0.0,snow covered,0.276535391807556,-8.84885883331299,100.0,416.336975097656
frame_00088.png,1769615296350102247,1769615296.3501022,42.29952729209261,-83.69750084380411,234.6448516845703,0.7302330483566083,0.6831455259056536,0.008294813990806001,0.001755444035399618,-0.03899000000000001,-0.010640000000000002,-0.016540000000000003,2.2207,-0.8392000000000001,-10.827,2.9535041212768456,6.606811509049027,16.35999870300293,16.079999923706055,11.619999885559082,11.619999885559082,13.28446978602642,13.057108195648613,9.435547043472921,9.435547043472921,11.303168017155219,0.7108355523195752,-2.5,36.92499923706055,0.0,32.0,0.0,0.0,0.0,snow covered,0.276535391807556,-8.84885883331299,100.0,416.336975097656
frame_00089.png,1769615296370701699,1769615296.3707018,42.29952782918456,-83.69750080689458,234.64776611328125,0.7300430825298797,0.6833372109337665,0.008922010813741343,0.002784156348300911,-0.08849000000000001,-0.011420000000000001,-0.017470000000000003,2.0288,0.27390000000000003,-10.3909,3.014566234052131,6.743403791600574,16.469999313354492,16.06999969482422,11.139999389648438,10.960000038146973,13.373791295837517,13.048987917594452,9.045782215188904,8.899621082175694,11.092045627699141,0.644873415635459,-2.5,36.67499923706055,0.0,28.0,0.0,0.0,0.0,snow covered,0.276535391807556,-8.84885883331299,100.0,416.336975097656
frame_00090.png,1769615296391388413,1769615296.3913884,42.29952838234279,-83.69750076907758,234.6509246826172,0.7298998022951453,0.6834826544452818,0.00922938857484517,0.0035437365130177975,-0.07108000000000002,-0.033280000000000004,-0.022680000000000002,2.7705,0.5647,-10.0782,3.0663036391490297,6.859137262558031,16.3799991607666,15.529999732971191,10.139999389648438,10.489999771118164,13.300710342134742,12.610502969770145,8.233772995188904,8.51797653194584,10.665740709759907,0.5549682564279593,-2.6000001430511475,36.85000228881836,0.0,0.0,0.0,0.0,0.0,snow covered,0.276535391807556,-8.84885883331299,100.0,416.336975097656
frame_00091.png,1769615296412173631,1769615296.4121735,42.29952893482797,-83.69750073585406,234.65414428710938,0.7297648830107101,0.6836215872096847,0.009305702325960301,0.004259686549132112,-0.05577000000000001,-0.03765,-0.017750000000000002,1.8171000000000002,-0.7892,-9.7767,3.1067734210351645,6.9496657364504015,15.609999656677246,15.109999656677246,9.889999389648438,9.920000076293945,12.675463645418759,12.269459035418759,8.030770690188904,8.055131524351388,10.257706223844453,0.4759999419891035,-2.6000001430511475,36.79999923706055,0.0,0.0,0.0,0.0,0.0,snow covered,0.276535391807556,-8.84885883331299,100.0,416.336975097656
frame_00092.png,1769615296432927066,1769615296.432927,42.29952949619482,-83.69750069543699,234.65740966796875,0.7296824813117019,0.6837049057125928,0.009367949072156906,0.0048290683898340354,-0.032810000000000006,-0.03128000000000001,-0.006830000000000001,2.1796,1.9628,-9.3286,3.1461291582515503,7.037702159259223,14.679999351501465,14.699999809265137,9.609999656677246,8.889999389648438,11.92029482301321,11.936535379121532,7.803408325418759,7.2187614701889045,9.719749999435601,0.3810970938359071,-2.5,36.29999923706055,0.0,0.0,0.0,0.0,0.0,snow covered,0.276535391807556,-8.84885883331299,100.0,416.336975097656
frame_00093.png,1769615296453486272,1769615296.4534864,42.29953007329468,-83.69750065523363,234.66038513183594,0.7295667442430482,0.6838325737773135,0.00898028235058455,0.004973053850263925,0.017390000000000003,-0.04435,-0.021730000000000003,2.6868000000000003,-1.0410000000000001,-9.8279,3.199924001418164,7.158037995732348,13.799999237060547,13.649999618530273,8.6899995803833,9.25,11.20572661648613,11.083925543243065,7.056359781067372,7.511085285,9.214274306449141,0.287262558810491,-2.4000000953674316,36.275001525878906,0.0,0.0,0.0,0.0,0.0,snow covered,0.276535391807556,-8.84885883331299,100.0,416.336975097656
frame_00094.png,1769615296473144769,1769615296.4731448,42.29953064687375,-83.69750061376375,234.66326904296875,0.7295076904593201,0.6838997393907126,0.0086607904983321,0.004966561181378669,0.03556000000000001,-0.00521,-0.004710000000000001,1.5533000000000001,0.9149,-8.9794,3.228135123065047,7.221144582189127,12.75,12.630000114440918,8.760000228881836,9.539999961853027,10.353117554999999,10.255676541527082,7.113200953054162,7.746567927824307,8.867140744351387,0.22794117240389994,-2.200000047683716,36.650001525878906,0.0,0.0,0.0,0.0,0.0,snow covered,0.276535391807556,-8.84885883331299,100.0,416.336975097656
frame_00095.png,1769615296493782483,1769615296.4937825,42.299531230421906,-83.69750056811195,234.66622924804688,0.7294468351966498,0.6839751220377894,0.007974860571691266,0.0046635452013436,0.08361000000000002,-0.03271,-0.011800000000000001,1.8130000000000002,1.5822,-10.503400000000001,3.2686200963395344,7.311707038305759,11.539999961853027,11.59999942779541,8.859999656677246,8.960000038146973,9.370586367824306,9.419306487364599,7.1944014104187595,7.275602642175694,8.31497422694584,0.13721381113657882,-2.1000001430511475,36.72500228881836,0.0,0.0,0.0,0.0,0.0,snow covered,0.276535391807556,-8.84885883331299,100.0,416.336975097656
frame_00096.png,1769615296515553398,1769615296.5155532,42.299531824466364,-83.69750052381767,234.6691436767578,0.7293098748820463,0.684131716971789,0.007412830302962265,0.0039937676028377585,0.07660000000000002,0.024500000000000004,-0.019310000000000004,2.0573,-1.5518,-9.9235,3.2954979068478876,7.371831087744314,9.949999809265137,10.050000190734863,9.210000038146973,9.210000038146973,8.079491584121532,8.160692815878468,7.478604947175694,7.478604947175694,7.799348573587847,0.05799339143218857,-2.1000001430511475,36.775001525878906,0.0,0.0,0.0,0.0,0.0,snow covered,0.276535391807556,-8.84885883331299,100.0,416.336975097656
frame_00097.png,1769615296536453672,1769615296.5364537,42.299532421691424,-83.69750047160841,234.6715087890625,0.7292902627456316,0.6841591244906178,0.0069903578978842565,0.0036249051158180365,0.05516000000000001,-0.00888,0.0021300000000000004,1.6694,0.657,-8.8399,3.3364644640438654,7.463470818198285,8.9399995803833,9.029999732971191,9.6899995803833,9.25,7.259362086067371,7.332443039770145,7.8683690010673715,7.511085285,7.492814852976222,0.0039316874806272495,-2.1000001430511475,36.75,0.0,0.0,0.0,0.0,0.0,snow covered,0.276535391807556,-8.84885883331299,100.0,416.336975097656
frame_00098.png,1769615296556997268,1769615296.5569973,42.29953302100513,-83.69750043053543,234.67396545410156,0.72918282515988,0.6842773531602783,0.0068424176719132125,0.0031769111134843163,0.027690000000000003,0.04234000000000001,-0.019790000000000002,1.0435,-1.9951,-9.5448,3.348542978972715,7.490489731383225,9.220000267028809,9.429999351501465,10.639999389648438,9.479999542236328,7.486725225229855,7.6572464180132105,8.639777605188904,7.697847033891678,7.870399070580913,0.05071889193118641,-2.1000001430511475,36.60000228881836,0.0,0.0,0.0,0.0,0.0,snow covered,0.276535391807556,-8.84885883331299,100.0,416.336975097656
frame_00099.png,1769615296577668400,1769615296.5776684,42.29953363111157,-83.6975003979593,234.6753387451172,0.7291504375393238,0.6843055251926268,0.0074740090886253295,0.0031187842501607635,-0.052340000000000005,0.06515000000000001,0.0022600000000000003,1.7306000000000001,-1.1618000000000002,-7.2789,3.3779730073742202,7.556322939115689,9.59000015258789,9.559999465942383,12.069999694824219,9.789999961853027,7.787168543702775,7.762807709540291,9.800951037594453,7.949570232824307,8.325124380915456,0.10174279844764543,-2.299999952316284,36.72500228881836,0.0,0.0,0.0,0.0,0.0,snow covered,0.276535391807556,-8.84885883331299,100.0,416.336975097656
frame_00100.png,1769615296598736134,1769615296.598736,42.299534244071396,-83.69750036127043,234.67633056640625,0.7291648680472228,0.6842776761439517,0.008441673451672072,0.00337569045443794,-0.09797,0.042170000000000006,0.004020000000000001,2.298,-0.7080000000000001,-6.1566,3.42844666120503,7.66922947431598,10.0,10.229999542236328,13.489999771118164,9.929999351501465,8.1200922,8.306853948891678,10.954004191945838,8.06325102801321,8.861050342212682,0.15540294783042735,-2.9000000953674316,36.525001525878906,0.0,0.0,0.0,0.0,0.0,snow covered,0.276535391807556,-8.84885883331299,100.0,416.336975097656
frame_00101.png,1769615296619378040,1769615296.6193779,42.299534863642705,-83.69750033201676,234.67605590820312,0.7291976347750759,0.6842243650774494,0.009677738329026074,0.003764180339867579,-0.11458000000000002,0.05435000000000001,0.008420000000000002,2.1768,-0.26990000000000003,-7.479900000000001,3.4682421639742267,7.758249626280507,9.929999351501465,11.109999656677246,13.469999313354492,9.699999809265137,8.06325102801321,9.021422155418758,10.937763635837516,7.876489279121533,8.974731524597754,0.15679849926412565,-3.700000047683716,35.85000228881836,0.0,0.0,0.0,0.0,0.0,snow covered,0.276535391807556,-8.84885883331299,100.0,416.336975097656
frame_00102.png,1769615296639884678,1769615296.6398847,42.2995354979473,-83.69750030490714,234.67515563964844,0.7292310944006475,0.6841712276375916,0.010713958604308347,0.004117441332907805,-0.08669000000000002,0.045930000000000006,0.005000000000000001,2.2328,0.17900000000000002,-11.948400000000001,3.5103619223791616,7.852468998646843,10.069999694824219,11.880000114440918,11.880000114440918,10.1899995803833,8.176932597594453,9.64666962652708,9.64666962652708,8.274373611067372,8.936161365428998,0.13800657690834559,-4.599999904632568,35.20000076293945,0.0,0.0,0.0,0.0,0.0,snow covered,0.276535391807556,-8.84885883331299,100.0,416.336975097656
frame_00103.png,1769615296660607712,1769615296.6606078,42.29953613275346,-83.69750027577876,234.67430114746094,0.7293674651038968,0.684008491546734,0.01185600689580958,0.0038625691403306084,-0.005330000000000001,0.06505000000000001,0.01048,3.6262000000000003,1.3162,-9.7654,3.5884124217771847,8.027063282770255,10.34999942779541,12.869999885559082,9.929999351501465,10.649999618530273,8.404294962364597,10.45055856847292,8.06325102801321,8.647897883243065,8.891500610523448,0.10769035913902282,-5.5,34.42499923706055,0.0,0.0,0.0,0.0,0.0,snow covered,0.276535391807556,-8.84885883331299,100.0,416.336975097656
frame_00104.png,1769615296681824815,1769615296.6818247,42.299536778411735,-83.69750024211821,234.67431640625,0.7294804373015432,0.6838920322493014,0.011764901273989678,0.0034010172424276453,0.05973000000000001,0.021220000000000006,0.016730000000000002,2.3585000000000003,1.3379,-10.7093,3.6466565374393154,8.157351874859502,10.300000190734863,13.75999927520752,10.380000114440918,11.34999942779541,8.363695120878468,11.173246278661823,8.428655796527082,9.216304182364599,9.295475344607993,0.13952119354519,-6.400000095367432,34.22500228881836,0.0,0.0,0.0,0.0,0.0,snow covered,0.276535391807556,-8.84885883331299,100.0,416.336975097656
frame_00105.png,1769615296702695436,1769615296.7026954,42.29953744196091,-83.69750020537572,234.67538452148438,0.7295471402628156,0.6838267154040645,0.011534498904748492,0.002991449323111324,0.030630000000000004,-0.0032700000000000003,0.007820000000000002,2.3345000000000002,-0.439,-12.4803,3.698644757115746,8.273646402982497,10.399999618530273,14.670000076293945,10.260000228881836,10.819999694824219,8.444895578243065,11.912175319351388,8.331214783054161,8.785939512594451,9.368556298310766,0.1323370424597279,-7.0,33.17499923706055,0.0,0.0,0.0,0.0,0.0,snow covered,0.276535391807556,-8.84885883331299,100.0,416.336975097656
frame_00106.png,1769615296723091878,1769615296.723092,42.29953810581829,-83.69750016342142,234.6765899658203,0.7297427938485839,0.6836292233575786,0.010987435678558054,0.002411649806019625,0.10440000000000002,-0.0014600000000000004,0.022050000000000004,2.8986,1.7664000000000002,-11.5053,3.7457497683738437,8.379017486866186,10.429999351501465,15.229999542236328,10.460000038146973,10.239999771118164,8.46925563801321,12.36690004889168,8.493616472175693,8.31497422694584,9.411186596506607,0.12318498096683883,-7.599999904632568,33.07500076293945,0.0,0.0,0.0,0.0,0.0,snow covered,0.276535391807556,-8.84885883331299,100.0,416.336975097656
frame_00107.png,1769615296743681971,1769615296.7436821,42.29953877999462,-83.69750012524906,234.6787872314453,0.7297884851567135,0.6835918729267414,0.010303319860640692,0.0021816968232202722,0.04000000000000001,-0.04055,0.010600000000000002,3.2464,-0.8976000000000001,-11.3077,3.8083766608095693,8.519110087631358,10.519999504089355,15.339999198913574,10.510000228881836,10.510000228881836,8.542336591715985,12.456220784310437,8.534217088054161,8.534217088054161,9.516747888033686,0.11710587023059711,-7.800000190734863,33.25,0.0,0.0,0.0,0.0,0.0,snow covered,0.276535391807556,-8.84885883331299,100.0,416.336975097656
frame_00108.png,1769615296764692294,1769615296.7646923,42.29953946882567,-83.69750008017441,234.68165588378906,0.7299745142351691,0.6834011445622301,0.009755127978728264,0.0022184806246133477,0.04105,-0.027010000000000003,0.022650000000000003,2.5222,1.1607,-10.9182,3.844668418029032,8.600292571025863,10.710000038146973,15.00999927520752,10.679999351501465,10.40999984741211,8.696618777175694,12.188257803661823,8.67225794301321,8.453015856297226,9.502537595036989,0.10490864311416144,-7.800000190734863,33.54999923706055,0.0,0.0,0.0,0.0,0.0,snow covered,0.276535391807556,-8.84885883331299,100.0,416.336975097656
frame_00109.png,1769615296785420169,1769615296.7854202,42.29954085916244,-83.69749998422786,234.68817138671875,0.7299684389027209,0.6834117399373301,0.009399776307549306,0.002473080492788975,-0.01675,-0.03325,0.00075,2.8094,-0.9387000000000001,-10.6811,3.8970810267905858,8.717536432068934,10.699999809265137,13.719999313354492,10.760000228881836,10.639999389648438,8.688498499121533,11.140765940837518,8.737219393054161,8.639777605188904,9.30156535955053,0.06699472173504732,-7.599999904632568,33.60000228881836,0.0,0.0,0.0,0.0,0.0,snow covered,0.276535391807556,-8.84885883331299,100.0,416.336975097656
frame_00110.png,1769615296805813627,1769615296.8058136,42.29954157535756,-83.69749993765801,234.6920166015625,0.730051200307673,0.6833230631554492,0.00924656476379132,0.003055704378481688,-0.03046,-0.045520000000000005,0.013940000000000003,2.2753,0.9611000000000001,-10.299100000000001,3.9447393906436217,8.824145332506344,10.889999389648438,12.319999694824219,10.929999351501465,10.789999961853027,8.842779910188904,10.003953342594452,8.87526024801321,8.761579452824307,9.120893238405218,0.03362908187897988,-7.400000095367432,33.60000228881836,0.0,0.0,0.0,0.0,0.0,snow covered,0.276535391807556,-8.84885883331299,100.0,416.336975097656
frame_00111.png,1769615296825885657,1769615296.8258858,42.29954229002149,-83.69749989116295,234.69557189941406,0.7300302486452193,0.6833415872257683,0.00926528237081985,0.0037770058718504668,-0.06369000000000001,-0.05090000000000001,-0.0012700000000000003,1.9972,-0.7867000000000001,-9.8405,3.992404270250549,8.930768808294264,10.920000076293945,11.34999942779541,11.010000228881836,10.929999351501465,8.867140744351389,9.216304182364599,8.940221698054161,8.87526024801321,8.97473171819584,0.004922634416507029,-7.099999904632568,33.54999923706055,0.0,0.0,0.0,0.0,0.0,snow covered,0.276535391807556,-8.84885883331299,100.0,416.336975097656
frame_00112.png,1769615296846858927,1769615296.846859,42.299543013771626,-83.69749984693782,234.69960021972656,0.7300929398114957,0.6832670134297539,0.009447175282622856,0.004608522037642667,-0.07131,-0.057440000000000005,0.00833,2.1524,-0.2594,-10.4139,4.0330316959383605,9.021649921912356,10.9399995803833,10.899999618530273,11.179999351501465,11.09000015258789,8.883380526067372,8.850900188243065,9.07826255301321,9.005182373702773,8.954431410256605,0.007450800267973878,-7.099999904632568,33.5,0.0,0.0,0.0,0.0,0.0,snow covered,0.276535391807556,-8.84885883331299,100.0,416.336975097656
frame_00113.png,1769615296867350017,1769615296.86735,42.299543750130454,-83.69749980115408,234.7034912109375,0.7301486681444367,0.6831990579334727,0.009677463678616938,0.005321310221157039,-0.06885000000000001,-0.028590000000000004,0.006560000000000001,2.442,-0.6758000000000001,-9.9764,4.072204164275271,9.109276383233926,11.170000076293945,11.359999656677246,11.09000015258789,11.279999732971191,9.070143049351387,9.224424460418758,9.005182373702773,9.159463784770146,9.114803417060767,0.0006067478462958376,-6.800000190734863,33.20000076293945,0.0,0.0,0.0,0.0,0.0,snow covered,0.276535391807556,-8.84885883331299,100.0,416.336975097656
frame_00114.png,1769615296888765586,1769615296.8887658,42.29954448707022,-83.69749975149921,234.70736694335938,0.730224190565771,0.6831135783588456,0.009697977849160062,0.005866839010498983,-0.022980000000000004,-0.03287,0.013000000000000003,2.0594,1.8313000000000001,-9.6067,4.111274592453924,9.196674586843882,11.279999732971191,11.34999942779541,11.429999351501465,11.489999771118164,9.159463784770146,9.216304182364599,9.28126485801321,9.329985751945838,9.246754644273448,0.005445452805431145,-6.800000190734863,33.60000228881836,0.0,0.0,0.0,0.0,0.0,snow covered,0.276535391807556,-8.84885883331299,100.0,416.336975097656
frame_00115.png,1769615296909182184,1769615296.9091823,42.2995452309943,-83.6974997027845,234.71119689941406,0.7302875762843768,0.6830486346854417,0.009372515131105827,0.00606420144468337,0.01058,-0.039420000000000004,0.008050000000000002,1.2607000000000002,0.22440000000000002,-8.8797,4.149600730755669,9.282407858656587,11.559999465942383,11.729999542236328,11.550000190734863,11.619999885559082,9.38682614954029,9.524867778891679,9.378706645878468,9.435547043472921,9.43148690444584,0.0160603851995391,-6.599999904632568,33.25,0.0,0.0,0.0,0.0,0.0,snow covered,0.276535391807556,-8.84885883331299,100.0,416.336975097656
frame_00116.png,1769615296929473041,1769615296.929473,42.29954598822587,-83.69749964593906,234.7144012451172,0.7303811970379451,0.6829556153753054,0.008981197945747425,0.005854274012698292,0.05251000000000001,-0.019600000000000003,0.013390000000000003,2.2508,0.8687,-8.9544,4.185230081779034,9.362108579134793,11.800000190734863,12.039999961853027,11.729999542236328,11.729999542236328,9.581708950878468,9.776590977824307,9.524867778891679,9.524867778891679,9.602008871621534,0.025624600532982884,-6.0,33.5,0.0,0.0,0.0,0.0,0.0,snow covered,0.276535391807556,-8.84885883331299,100.0,416.336975097656
frame_00117.png,1769615296949999681,1769615296.9499996,42.299546745848275,-83.69749959227147,234.71762084960938,0.7305299094204812,0.6828177577173413,0.007799003068828471,0.0050136552631977315,0.11010000000000002,-0.023720000000000005,0.012620000000000003,1.9645000000000001,0.17830000000000001,-9.133600000000001,4.234748049193607,9.472877301163148,11.979999542236328,12.15999984741211,11.929999351501465,11.729999542236328,9.727870083891679,9.874031991297226,9.687269468013211,9.524867778891679,9.703509830523448,0.024346618458995644,-5.599999904632568,33.875,0.0,0.0,0.0,0.0,0.0,snow covered,0.276535391807556,-8.84885883331299,100.0,416.336975097656
frame_00118.png,1769615296970682415,1769615296.9706824,42.29954751301489,-83.69749953829843,234.7206573486328,0.7306702127261296,0.6826784321729893,0.007177373161033509,0.004436642321488786,0.06954,-0.005860000000000001,0.02213,2.0738000000000003,-0.8896000000000001,-9.295200000000001,4.290411359384769,9.597392786262166,11.899999618530273,12.269999504089355,12.179999351501465,11.989999771118164,9.662909408243065,9.963352726715986,9.890271773013211,9.73599036194584,9.813131067479524,0.022478842537961907,-5.099999904632568,33.79999923706055,0.0,0.0,0.0,0.0,0.0,snow covered,0.276535391807556,-8.84885883331299,100.0,416.336975097656
frame_00119.png,1769615296991419112,1769615296.991419,42.29954829386153,-83.69749948024658,234.72268676757812,0.7308079676025762,0.6825363189773266,0.006892698447944412,0.00404703268811873,0.04564000000000001,0.007710000000000002,0.01912,2.9944,0.7090000000000001,-8.1087,4.34062574792592,9.709719360565407,12.199999809265137,12.039999961853027,12.279999732971191,12.139999389648438,9.906512329121533,9.776590977824307,9.971473004770145,9.857791435188904,9.878091936726221,0.017340622309295076,-4.400000095367432,33.54999923706055,0.0,0.0,0.0,0.0,0.0,snow covered,0.276535391807556,-8.84885883331299,100.0,416.336975097656
frame_00120.png,1769615297012265466,1769615297.0122654,42.299549073924766,-83.69749942644027,234.72462463378906,0.7309250379906298,0.6824145793449697,0.006677022492719064,0.003787889446096059,0.025840000000000002,0.009150000000000002,0.017790000000000004,1.3197,-0.8933000000000001,-7.5053,4.377790358257028,9.792854363999476,12.139999389648438,12.1899995803833,12.319999694824219,12.559999465942383,9.857791435188904,9.898392051067372,10.003953342594452,10.198835369540292,9.989743049597754,0.020105341944232413,-4.0,33.625,0.0,0.0,0.0,0.0,0.0,snow covered,0.276535391807556,-8.84885883331299,100.0,416.336975097656
frame_00121.png,1769615297032896515,1769615297.0328965,42.2995498638634,-83.69749937461809,234.7257080078125,0.731040035657343,0.6822870408624054,0.007116750003481519,0.0037698815260965696,-0.046270000000000006,0.03309,0.01857,1.828,-0.7022,-7.3498,4.409453646124489,9.863683239161714,12.369999885559082,12.469999313354492,12.25999927520752,12.40999984741211,10.04455395847292,10.125754415837518,9.955232448661823,10.077034296297228,10.050643779817372,0.01895443478085041,-3.5,33.375,0.0,0.0,0.0,0.0,0.0,snow covered,0.276535391807556,-8.84885883331299,100.0,416.336975097656
frame_00122.png,1769615297053626862,1769615297.0536268,42.29955066767034,-83.69749931911424,234.72560119628906,0.7311596953798162,0.6821531871583957,0.007569632247705235,0.003902533711802315,-0.031540000000000006,0.00578,0.016890000000000002,2.7476000000000003,1.4053,-9.116100000000001,4.466651624109998,9.99163168403662,12.529999732971191,12.469999313354492,12.489999771118164,12.380000114440918,10.174475309770145,10.125754415837518,10.14199497194584,10.05267423652708,10.123724733520147,0.013220368170152779,-3.4000000953674316,33.35000228881836,0.0,0.0,0.0,0.0,0.0,snow covered,0.276535391807556,-8.84885883331299,100.0,416.336975097656
frame_00123.png,1769615297073077436,1769615297.0730774,42.29955146762631,-83.69749927197518,234.72607421875,0.7312589887456392,0.6820429524473148,0.007847857133041255,0.004014166672461922,-0.03323,0.003940000000000001,0.015570000000000002,1.4782000000000002,-0.8426,-11.635900000000001,4.503657819837863,10.07441232350811,12.5,12.719999313354492,12.460000038146973,12.529999732971191,10.15011525,10.328756720837516,10.117634912175694,10.174475309770145,10.19274554819584,0.011745918361074543,-3.4000000953674316,33.67499923706055,0.0,0.0,0.0,0.0,0.0,snow covered,0.276535391807556,-8.84885883331299,100.0,416.336975097656
frame_00124.png,1769615297093850388,1769615297.0938504,42.299552279914685,-83.69749921729638,234.726806640625,0.731381649218935,0.6819059560824472,0.00827681033500208,0.004079786238610338,-0.023420000000000003,0.031400000000000004,0.015750000000000004,2.1387,0.9649000000000001,-10.9358,4.534877195823253,10.144248194424868,12.889999389648438,12.979999542236328,12.639999389648438,12.429999351501465,10.466798350188904,10.539879303891679,10.263796045188904,10.09327407801321,10.340936944320674,0.019389189432875188,-3.4000000953674316,33.47500228881836,0.0,0.0,0.0,0.0,0.0,snow covered,0.276535391807556,-8.84885883331299,100.0,416.336975097656
frame_00125.png,1769615297114355747,1769615297.1143558,42.29955310549684,-83.69749916322617,234.72811889648438,0.7314952418988373,0.6817820403770312,0.008422421527376791,0.004125931932221171,-0.019090000000000003,-0.00248,0.019440000000000006,3.1694,-0.6592,-10.5809,4.594486437245561,10.277590490932086,12.569999694824219,13.229999542236328,12.889999389648438,12.6899995803833,10.206955647594452,10.742881608891679,10.466798350188904,10.304396661067372,10.430258066935602,0.01485441321467465,-3.5,33.35000228881836,0.0,0.0,0.0,0.0,0.0,snow covered,0.276535391807556,-8.84885883331299,100.0,416.336975097656
frame_00126.png,1769615297136371706,1769615297.1363716,42.299553925471315,-83.69749910404272,234.7296600341797,0.7316375640947292,0.6816294139517357,0.008366992015086077,0.004220223449493656,0.006590000000000001,0.005280000000000001,0.021550000000000003,0.9375,1.6603,-10.7391,4.6172684555705,10.328552499003875,12.929999351501465,14.079999923706055,12.979999542236328,13.079999923706055,10.499278688013211,11.433089755648613,10.539879303891679,10.621080535648614,10.77333207080053,0.04306310800468422,-3.4000000953674316,33.35000228881836,0.0,0.0,0.0,0.0,0.0,snow covered,0.276535391807556,-8.84885883331299,100.0,416.336975097656
frame_00127.png,1769615297157094213,1769615297.1570942,42.299554761715974,-83.69749904827435,234.73117065429688,0.7317048558323606,0.6815599182329295,0.008279208682240673,0.003941638398288649,0.02833,0.012290000000000002,0.0059900000000000005,3.148,-0.1749,-9.3744,4.6691758875494305,10.444666309894824,13.269999504089355,13.84000015258789,12.979999542236328,13.00999927520752,10.775361946715984,11.238207728702776,10.539879303891679,10.564239363661825,10.779422085743066,0.032050404092958805,-3.4000000953674316,33.54999923706055,0.0,0.0,0.0,0.0,0.0,snow covered,0.276535391807556,-8.84885883331299,100.0,416.336975097656
frame_00128.png,1769615297178118454,1769615297.1781185,42.29955560899465,-83.69749898746318,234.7324676513672,0.7318275632753679,0.6814307332881756,0.008128363404873936,0.0038082895287825133,0.017490000000000002,0.00689,0.02074,2.156,0.0426,-9.111,4.7161783983587675,10.549808106424662,13.130000114440918,13.279999732971191,13.199999809265137,13.069999694824219,10.661681151527082,10.783482224770147,10.718521549121533,10.612960257594452,10.694161295753304,0.013683015640894315,-3.200000047683716,33.775001525878906,0.0,0.0,0.0,0.0,0.0,snow covered,0.276535391807556,-8.84885883331299,100.0,416.336975097656
frame_00129.png,1769615297199026034,1769615297.1990259,42.29955645496582,-83.69749892528459,234.7342071533203,0.7318717037280046,0.6813839880127506,0.008089442996147523,0.0037724095906991498,0.0035300000000000006,0.00109,0.00010000000000000002,1.2710000000000001,0.5037,-10.4688,4.747150214262429,10.619090200292199,13.319999694824219,13.399999618530273,13.269999504089355,13.15999984741211,10.815962562594452,10.880923238243065,10.775361946715984,10.686041211297226,10.789572239712683,0.01605429808062026,-2.9000000953674316,34.275001525878906,0.0,0.0,0.0,0.0,0.0,snow covered,0.276535391807556,-8.84885883331299,100.0,416.336975097656
frame_00130.png,1769615297219056714,1769615297.2190566,42.29955731231853,-83.69749886481078,234.7359619140625,0.7319013576095101,0.6813519785133909,0.008202675782365658,0.00354967819005949,0.009320000000000002,0.026080000000000002,0.004350000000000001,2.7048,0.1081,-11.004800000000001,4.786999952089569,10.70823167282724,13.519999504089355,13.539999961853027,13.289999961853027,13.15999984741211,10.978364251715986,10.994604807824306,10.791602502824306,10.686041211297226,10.862653193415454,0.01442082365289753,-2.6000001430511475,34.125,0.0,0.0,0.0,0.0,0.0,snow covered,0.276535391807556,-8.84885883331299,100.0,416.336975097656
frame_00131.png,1769615297239739144,1769615297.2397392,42.299558184123796,-83.69749880284647,234.73861694335938,0.7318611179763904,0.6813950470878367,0.008146749101172484,0.0037046292115919146,-0.015410000000000002,-0.02644,-0.0076700000000000015,3.0651,-0.6847000000000001,-12.1936,4.8524666840003965,10.854676824107848,13.460000038146973,13.59000015258789,13.449999809265137,13.289999961853027,10.929644132175694,11.035205423702774,10.921523854121533,10.791602502824306,10.919493978206075,0.005971357337352561,-2.1000001430511475,34.35000228881836,0.0,0.0,0.0,0.0,0.0,snow covered,0.276535391807556,-8.84885883331299,100.0,416.336975097656
frame_00132.png,1769615297260724845,1769615297.2607248,42.29955904945203,-83.69749874071492,234.7414093017578,0.7318440111721741,0.6814067733829765,0.008284344560155104,0.00453013624875873,-0.06921000000000001,-0.037200000000000004,-0.005330000000000001,2.5905,-1.4583000000000002,-12.2262,4.900191021299859,10.961433303186508,13.59000015258789,13.799999237060547,13.649999618530273,13.519999504089355,11.035205423702774,11.20572661648613,11.083925543243065,10.978364251715986,11.075805458786988,0.010434051135195188,-1.7000000476837158,33.85000228881836,0.0,0.0,0.0,0.0,0.0,snow covered,0.276535391807556,-8.84885883331299,100.0,416.336975097656
frame_00133.png,1769615297281300455,1769615297.2813005,42.29955993202075,-83.6974986852091,234.74537658691406,0.731863999342311,0.6813758008544868,0.00846954911309709,0.0055110084744341235,-0.08572000000000002,-0.06309000000000001,0.00557,3.2578,-0.20650000000000002,-11.4541,4.961307503526002,11.098147206937455,13.59000015258789,13.609999656677246,13.639999389648438,13.75,11.035205423702774,11.051445205418759,11.075805265188903,11.165126775000001,11.081895667327608,0.001464347093872408,-1.2000000476837158,33.625,0.0,0.0,0.0,0.0,0.0,snow covered,0.276535391807556,-8.84885883331299,100.0,416.336975097656
frame_00134.png,1769615297301844986,1769615297.301845,42.29956082734698,-83.69749863267049,234.75033569335938,0.7318729293381028,0.6813547411436524,0.008560773967272131,0.006666721249025773,-0.08984000000000002,-0.06572000000000001,-9e-05,0.9054000000000001,-0.167,-10.057500000000001,4.988459971170898,11.15888564791103,13.699999809265137,13.779999732971191,13.729999542236328,13.929999351501465,11.124526159121533,11.189486834770145,11.148886218891679,11.311287908013211,11.193546780199142,0.0031061463825109983,-0.699999988079071,33.625,0.0,0.0,0.0,0.0,0.0,snow covered,0.276535391807556,-8.84885883331299,100.0,416.336975097656
frame_00135.png,1769615297322496443,1769615297.3224964,42.299561717220094,-83.69749857460327,234.75527954101562,0.7319107260085431,0.6813014521264521,0.008802314099408806,0.007585496063569438,-0.08345000000000001,-0.03939000000000001,0.003790000000000001,2.1166,0.0915,-9.130700000000001,5.021623329857425,11.23307009149127,13.829999923706055,13.829999923706055,13.789999961853027,14.139999389648438,11.230087450648613,11.230087450648613,11.197607112824306,11.481809875188905,11.28489797232761,0.0046138660592528755,-0.10000000149011612,33.5,0.0,0.0,0.0,0.0,0.0,snow covered,0.276535391807556,-8.84885883331299,100.0,416.336975097656
frame_00136.png,1769615297343443058,1769615297.343443,42.29956262182395,-83.69749852396384,234.76010131835938,0.7319242177815873,0.6812775209841573,0.008780189214444619,0.008413507226534311,-0.048,-0.06487000000000001,0.0013900000000000002,1.991,0.8542000000000001,-9.200000000000001,5.0677020333414635,11.336145386462855,13.799999237060547,13.889999389648438,13.949999809265137,14.539999961853027,11.20572661648613,11.278807570188903,11.327528464121533,11.806614027824308,11.40466916965522,0.0060447163349010395,0.20000000298023224,33.79999923706055,0.0,0.0,0.0,0.0,0.0,snow covered,0.276535391807556,-8.84885883331299,100.0,416.336975097656
frame_00137.png,1769615297363966937,1769615297.363967,42.29956353231392,-83.69749846174648,234.7647247314453,0.731946695129679,0.681250162207732,0.008599029834908928,0.008849218416217572,-0.012880000000000003,-0.023860000000000006,0.0005700000000000001,0.5162,0.264,-9.2757,5.0797556821281,11.363108675579634,14.059999465942383,14.359999656677246,14.09999942779541,14.699999809265137,11.416849199540291,11.66045212041876,11.449329537364598,11.936535379121532,11.615791559111296,0.022237126366194217,1.100000023841858,33.67499923706055,0.0,0.0,0.0,0.0,0.0,snow covered,0.276535391807556,-8.84885883331299,100.0,416.336975097656
frame_00138.png,1769615297384622153,1769615297.384622,42.2995644431008,-83.69749840289921,234.7692108154297,0.731949132370164,0.6812480355010049,0.008535169442589466,0.008873140998088967,0.010320000000000001,-0.0035300000000000006,0.00030000000000000003,2.2021,1.334,-7.937,5.115627990033954,11.443352876026555,14.139999389648438,14.299999237060547,14.289999961853027,14.679999351501465,11.481809875188905,11.61173122648613,11.603611722824308,11.92029482301321,11.654361911878137,0.01843944149390332,1.5,33.72500228881836,0.0,0.0,0.0,0.0,0.0,snow covered,0.276535391807556,-8.84885883331299,100.0,416.336975097656
frame_00139.png,1769615297405399949,1769615297.4054,42.2995662902893,-83.69749826708849,234.7755889892578,0.7319716665844895,0.6812351685251467,0.008027760997750577,0.008466376757682135,0.08170000000000001,-0.010780000000000001,-0.0033000000000000004,1.8699000000000001,1.4021000000000001,-7.7012,5.1574206005442536,11.536840438181462,14.359999656677246,14.269999504089355,14.420000076293945,15.059999465942383,11.66045212041876,11.587371166715984,11.709173014351387,12.228858419540291,11.796463680256604,0.02250384266526839,2.0,33.70000076293945,0.0,0.0,0.0,0.0,0.0,snow covered,0.276535391807556,-8.84885883331299,100.0,416.336975097656
frame_00140.png,1769615297425991458,1769615297.4259915,42.299567217711214,-83.69749819477812,234.77838134765625,0.731969663525825,0.6812516700641288,0.007511788935398258,0.0077554329160744815,0.08235000000000002,0.01821,0.0038700000000000006,0.8442000000000001,-0.43260000000000004,-8.726,5.176169361721151,11.578780292008512,14.630000114440918,14.519999504089355,14.559999465942383,14.880000114440918,11.879694981527082,11.790373471715984,11.822853809540293,12.082697286527083,11.893904887327611,0.027215698663579764,2.5,33.650001525878906,0.0,0.0,0.0,0.0,0.0,snow covered,0.276535391807556,-8.84885883331299,100.0,416.336975097656
frame_00141.png,1769615297447036415,1769615297.4470365,42.2995681554072,-83.69749812518128,234.78060913085938,0.7320262250277001,0.6812009540751419,0.007295870050564115,0.0070453047497213706,0.06476000000000001,0.024700000000000003,0.006050000000000001,2.8345000000000002,0.7178,-9.5143,5.22092408161487,11.678893915127567,14.619999885559082,14.50999927520752,14.75,14.630000114440918,11.87157470347292,11.782253193661825,11.977135995,11.879694981527082,11.877664718415456,0.017019659972287545,3.0,33.72500228881836,0.0,0.0,0.0,0.0,0.0,snow covered,0.276535391807556,-8.84885883331299,100.0,416.336975097656
frame_00142.png,1769615297467701973,1769615297.467702,42.299569101594166,-83.69749804414677,234.7826690673828,0.7320990585171298,0.6811321092590805,0.00698518520712533,0.006420704184917563,0.06575,0.028790000000000007,0.009420000000000001,1.8385,0.8487,-9.9854,5.257700729221456,11.761161069224645,15.029999732971191,15.130000114440918,14.829999923706055,14.679999351501465,12.204498359770147,12.28569959152708,12.042096670648615,11.92029482301321,12.113147361239761,0.029927852356019212,3.4000000953674316,33.35000228881836,0.0,0.0,0.0,0.0,0.0,snow covered,0.276535391807556,-8.84885883331299,100.0,416.336975097656
frame_00143.png,1769615297488494220,1769615297.4884944,42.299570051000934,-83.69749796463678,234.7846221923828,0.7320960086626737,0.6811412045875644,0.00688554644400915,0.00588920736189144,0.03653,0.033870000000000004,-0.0028700000000000006,2.4638,-0.17400000000000002,-9.4303,5.300867937221733,11.857723523488785,15.00999927520752,14.84999942779541,14.929999351501465,14.84999942779541,12.188257803661823,12.058336452364598,12.123297128013212,12.058336452364598,12.107056959101058,0.02102709133995008,3.799999952316284,32.92499923706055,0.0,0.0,0.0,0.0,0.0,snow covered,0.276535391807556,-8.84885883331299,100.0,416.336975097656
frame_00144.png,1769615297509123511,1769615297.5091236,42.299571009428284,-83.69749788685279,234.78660583496094,0.7321159396435204,0.6811228605978238,0.0067434896513008545,0.005694298749242899,0.023320000000000004,-0.00585,0.004200000000000001,1.7796,1.6381000000000001,-9.7553,5.345914866424229,11.958490801299016,15.119999885559082,15.039999961853027,15.0,15.089999198913574,12.27757931347292,12.212618637824306,12.180138300000001,12.253218479310437,12.230888682651916,0.022778616957526948,3.799999952316284,32.04999923706055,0.0,0.0,0.0,0.0,0.0,snow covered,0.276535391807556,-8.84885883331299,100.0,416.336975097656
frame_00145.png,1769615297529580290,1769615297.5295804,42.29957197804602,-83.69749779980008,234.78863525390625,0.7320917414750306,0.68115277665363,0.006567265006601033,0.0054265966719317296,0.028170000000000004,-0.0004000000000000001,-0.004600000000000001,1.5956000000000001,0.335,-9.741100000000001,5.377409426911531,12.02894224343548,15.069999694824219,15.329999923706055,14.889999389648438,15.149999618530273,12.236978697594452,12.448101280648613,12.090816790188905,12.301939373243066,12.269459035418759,0.019994841368079143,3.9000000953674316,31.25,0.0,0.0,0.0,0.0,0.0,snow covered,0.276535391807556,-8.84885883331299,100.0,416.336975097656
frame_00146.png,1769615297550098213,1769615297.5500982,42.29957294812265,-83.6974977064868,234.79067993164062,0.731956675075139,0.6812990014113315,0.0065498377936741075,0.005310001294411785,0.022050000000000004,0.0011,-0.015470000000000003,2.1163000000000003,2.823,-9.749500000000001,5.446819282931905,12.184207926761697,15.059999465942383,14.739999771118164,15.289999961853027,15.299999237060547,12.228858419540291,11.96901571694584,12.415620942824306,12.42374044648613,12.259308881449142,0.00616379457235714,3.9000000953674316,30.899999618530273,0.0,0.0,0.0,0.0,0.0,snow covered,0.276535391807556,-8.84885883331299,100.0,416.336975097656
frame_00147.png,1769615297570843088,1769615297.5708432,42.299573927466554,-83.69749762292295,234.79269409179688,0.7317825270747551,0.6814931542515287,0.006052112340278717,0.004978525143844417,0.05964000000000001,-0.0007700000000000001,-0.030380000000000004,0.8321000000000001,-1.4596,-9.9773,5.472447992740845,12.241537812881706,15.279999732971191,15.139999389648438,15.279999732971191,15.339999198913574,12.407500664770147,12.293819095188905,12.407500664770147,12.456220784310437,12.39126030225991,0.012230692880812093,3.6000001430511475,30.899999618530273,0.0,0.0,0.0,0.0,0.0,snow covered,0.276535391807556,-8.84885883331299,100.0,416.336975097656
frame_00148.png,1769615297591513914,1769615297.5915139,42.29957491199939,-83.69749753157922,234.79452514648438,0.7316726283350219,0.6816113396606568,0.006176831669672217,0.00479513731295857,-0.015760000000000003,0.024540000000000003,-0.014720000000000002,2.1806,-2.0671,-9.0824,5.505089820594008,12.31455562327956,15.389999389648438,15.59999942779541,15.469999313354492,15.359999656677246,12.496821400188903,12.667343367364598,12.561782075837517,12.472461340418759,12.549602045952444,0.019086878151620003,3.5,30.649999618530273,0.0,0.0,0.0,0.0,0.0,snow covered,0.276535391807556,-8.84885883331299,100.0,416.336975097656
frame_00149.png,1769615297612251883,1769615297.612252,42.299575900211835,-83.69749742729167,234.79652404785156,0.731617202327066,0.6816682818810381,0.006310394334466903,0.004980126485750175,-0.018780000000000005,-0.012550000000000002,-0.015760000000000003,3.2064000000000004,0.45980000000000004,-10.330200000000001,5.565505775791514,12.44970249009907,15.339999198913574,15.519999504089355,15.380000114440918,15.329999923706055,12.456220784310437,12.602382691715986,12.48870189652708,12.448101280648613,12.49885166330053,0.003947819093713063,3.4000000953674316,30.825000762939453,0.0,0.0,0.0,0.0,0.0,snow covered,0.276535391807556,-8.84885883331299,100.0,416.336975097656
frame_00150.png,1769615297633530757,1769615297.6335309,42.2995768977321,-83.69749735124317,234.79852294921875,0.7315306450583257,0.681759359415992,0.006349424719580432,0.005174552635402181,-0.017530000000000004,0.011230000000000002,-0.010990000000000003,-0.0454,-0.6558,-10.7979,5.5752242048885,12.471442032883283,15.529999732971191,15.619999885559082,15.65999984741211,15.619999885559082,12.610502969770145,12.68358392347292,12.716064261297227,12.68358392347292,12.673433769503305,0.016196341697089445,3.299999952316284,30.80000114440918,0.0,0.0,0.0,0.0,0.0,snow covered,0.276535391807556,-8.84885883331299,100.0,416.336975097656
frame_00151.png,1769615297652529730,1769615297.6525297,42.299577903342325,-83.69749726470093,234.80081176757812,0.7314993865634267,0.6817906082534556,0.006604996886442665,0.0051563524747083546,-0.014870000000000001,0.012150000000000001,-0.0079,3.0266,-0.324,-9.7788,5.6190931058759155,12.56957413225807,15.639999389648438,15.769999504089355,15.519999504089355,15.639999389648438,12.699823705188903,12.805384996715986,12.602382691715986,12.699823705188903,12.701853774702446,0.010523796673818737,3.200000047683716,30.825000762939453,0.0,0.0,0.0,0.0,0.0,snow covered,0.276535391807556,-8.84885883331299,100.0,416.336975097656
frame_00152.png,1769615297672939239,1769615297.6729393,42.29957890788488,-83.69749717457546,234.80308532714844,0.7314760356614923,0.6818161330200703,0.006536366785067824,0.005181304445414059,0.00941,-0.0014100000000000002,-0.007210000000000001,0.8593000000000001,0.457,-9.604800000000001,5.65140869007558,12.641862155177668,15.679999351501465,15.949999809265137,15.819999694824219,15.989999771118164,12.732304043013212,12.951546904121534,12.845985612594452,12.98402724194584,12.878465950418759,0.018715897415808053,3.299999952316284,31.05000114440918,0.0,0.0,0.0,0.0,0.0,snow covered,0.276535391807556,-8.84885883331299,100.0,416.336975097656
frame_00153.png,1769615297695105270,1769615297.6951053,42.29957992588737,-83.69749709483882,234.80526733398438,0.7314216550448552,0.6818788322770106,0.006407189056751275,0.004750637049523814,0.053860000000000005,0.015530000000000002,-0.009270000000000002,1.7903,1.6354000000000002,-9.9693,5.675984968592793,12.696837815643963,15.920000076293945,15.889999389648438,15.639999389648438,15.960000038146973,12.927186844351388,12.902826010188903,12.699823705188903,12.959667182175693,12.872375935476223,0.013825341583553667,3.4000000953674316,31.075000762939453,0.0,0.0,0.0,0.0,0.0,snow covered,0.276535391807556,-8.84885883331299,100.0,416.336975097656
frame_00154.png,1769615297715778382,1769615297.7157784,42.299580947273476,-83.69749699620027,234.80770874023438,0.7313778424723876,0.6819361738418229,0.005804539992393488,0.003976639521913864,0.10917000000000002,0.00987,-0.011600000000000003,1.3479,0.2801,-10.5058,5.7088362740752645,12.770324214929923,15.789999961853027,15.969999313354492,15.889999389648438,15.9399995803833,12.821625552824306,12.967786685837519,12.902826010188903,12.943426626067373,12.908916218729525,0.010852661331618517,3.5,31.05000114440918,0.0,0.0,0.0,0.0,0.0,snow covered,0.276535391807556,-8.84885883331299,100.0,416.336975097656
frame_00155.png,1769615297736340401,1769615297.7363405,42.29958196850035,-83.69749690364391,234.81011962890625,0.7313342616485989,0.681991245653749,0.005236805709178901,0.003273294443046511,0.08257000000000002,-0.00872,-0.00585,1.0510000000000002,-0.193,-11.0611,5.735383005551301,12.82970766043793,16.079999923706055,16.34000015258789,16.020000457763672,15.90999984741211,13.057108195648613,13.268230778702774,13.008388076108323,12.919066566297225,13.063198404189235,0.018199225573261087,3.9000000953674316,31.25,0.0,0.0,0.0,0.0,0.0,snow covered,0.276535391807556,-8.84885883331299,100.0,416.336975097656
frame_00156.png,1769615297757135677,1769615297.7571356,42.29958300229685,-83.69749681394339,234.8131561279297,0.7312824686097958,0.6820545732792512,0.004679157899006548,0.002369737153694343,0.11407000000000002,0.015380000000000001,-0.009340000000000003,2.5713,1.7021000000000002,-11.872900000000001,5.770672565561871,12.908648288807973,16.60999870300293,15.989999771118164,16.100000381469727,16.06999969482422,13.487472091026422,12.98402724194584,13.073348751756935,13.048987917594452,13.148459000580912,0.018577523099832204,4.200000286102295,31.075000762939453,0.0,0.0,0.0,0.0,0.0,snow covered,0.276535391807556,-8.84885883331299,100.0,416.336975097656
frame_00157.png,1769615297777829697,1769615297.7778296,42.299584044367414,-83.69749671340024,234.8169403076172,0.7312248981003283,0.6821247072736085,0.003741018599301365,0.0014272017720575382,0.12758000000000003,-0.019010000000000003,-0.009190000000000002,2.7372,-1.8674000000000002,-11.1592,5.823069224408094,13.025856470847444,16.31999969482422,16.350000381469727,16.420000076293945,16.209999084472656,13.251990222594452,13.276351056756935,13.333191454351388,13.162668712783356,13.256050361621533,0.017672073332703698,4.300000190734863,31.149999618530273,0.0,0.0,0.0,0.0,0.0,snow covered,0.276535391807556,-8.84885883331299,100.0,416.336975097656
frame_00158.png,1769615297799102528,1769615297.7991025,42.29958508063999,-83.69749661699797,234.82057189941406,0.7312460354642908,0.6821049206989926,0.0033246352096261535,0.0010293574213062877,0.03502000000000001,0.020070000000000005,-0.0014900000000000002,0.3372,-1.7709000000000001,-9.372300000000001,5.831629220140419,13.04500466770091,16.5,16.34000015258789,16.520000457763672,16.260000228881836,13.39815213,13.268230778702774,13.414392686108322,13.203270103054162,13.321011424466313,0.021158042008891608,4.800000190734863,30.92500114440918,0.0,0.0,0.0,0.0,0.0,snow covered,0.276535391807556,-8.84885883331299,100.0,416.336975097656
frame_00159.png,1769615297819201211,1769615297.8192012,42.29958613447398,-83.6974965354469,234.82383728027344,0.7312068617742268,0.682146287052831,0.00346626120646295,0.000976415675776115,-0.012810000000000002,-0.0036300000000000004,-0.004430000000000001,2.6368,0.23970000000000002,-7.6935,5.876428599774522,13.145218191979621,16.59000015258789,16.43000030517578,16.600000381469727,16.43000030517578,13.471233083702774,13.341311732405547,13.479353361756935,13.341311732405547,13.408302477567702,0.02001368723940982,4.700000286102295,31.0,0.0,0.0,0.0,0.0,0.0,snow covered,0.276535391807556,-8.84885883331299,100.0,416.336975097656
frame_00160.png,1769615297839835537,1769615297.8398356,42.29958719152464,-83.69749645090863,234.82656860351562,0.7311716780678028,0.6821831716108718,0.0035406842855648093,0.0012494467716571123,-0.04322,-0.013360000000000002,-0.005890000000000001,1.5835000000000001,-2.0498000000000003,-9.834100000000001,5.914074149554789,13.229429028105091,16.399999618530273,16.53999900817871,16.600000381469727,16.469999313354492,13.316950898243064,13.43063169343197,13.479353361756935,13.373791295837517,13.40018181231737,0.012907041101284551,4.700000286102295,30.850000381469727,0.0,0.0,0.0,0.0,0.0,snow covered,0.276535391807556,-8.84885883331299,100.0,416.336975097656
frame_00161.png,1769615297860750792,1769615297.860751,42.29958824577688,-83.6974963675353,234.82933044433594,0.7311538407845416,0.6821941336996094,0.004533235091055184,0.0021621358565785,-0.08952,0.016210000000000002,-0.009520000000000002,1.3734000000000002,0.4324,-9.9265,5.937442620672976,13.281702895888207,16.60999870300293,16.65999984741211,16.619998931884766,16.559999465942383,13.487472091026422,13.528073481297227,13.495592369080581,13.446872249540291,13.48950254773613,0.01564555791353036,4.700000286102295,31.05000114440918,0.0,0.0,0.0,0.0,0.0,snow covered,0.276535391807556,-8.84885883331299,100.0,416.336975097656
frame_00162.png,1769615297881256637,1769615297.8812568,42.29958931554223,-83.69749629906474,234.8321990966797,0.7311108496429588,0.6822356303632778,0.0050321515282869805,0.0024794451330989163,-0.05083000000000001,0.0066500000000000005,-0.007550000000000001,2.575,-0.8631000000000001,-9.6582,5.981894693850646,13.381139516462264,16.959999084472656,16.729999542236328,16.690000534057617,16.579999923706055,13.771675627783356,13.58491387889168,13.55243431545971,13.463112805648613,13.593034156945839,0.015835321066856034,4.599999904632568,30.825000762939453,0.0,0.0,0.0,0.0,0.0,snow covered,0.276535391807556,-8.84885883331299,100.0,416.336975097656
frame_00163.png,1769615297901933624,1769615297.9019337,42.299590388750445,-83.69749622528946,234.8348846435547,0.7310546923843851,0.6822906722036355,0.005432366025290719,0.002994121916507267,-0.07021000000000001,-0.0013300000000000002,-0.004600000000000001,0.9468000000000001,-0.646,-10.9128,6.007867112602373,13.439238258864753,16.799999237060547,16.779998779296875,16.779998779296875,16.920000076293945,13.641754276486129,13.625513720377807,13.625513720377807,13.739196064351386,13.657994445398284,0.01627742453254264,4.599999904632568,30.975000381469727,0.0,0.0,0.0,0.0,0.0,snow covered,0.276535391807556,-8.84885883331299,100.0,416.336975097656
frame_00164.png,1769615297922632152,1769615297.9226322,42.299591458246674,-83.69749614613995,234.83773803710938,0.7310726394837403,0.6822672917548694,0.005788138336584413,0.0032612657587598455,-0.031060000000000004,0.008790000000000001,-0.00436,1.5647,1.3111000000000002,-9.879800000000001,6.032537908127218,13.4944253482061,16.959999084472656,16.809999465942383,16.770000457763672,16.8799991607666,13.771675627783356,13.649874554540292,13.617394991108322,13.706714952134744,13.686415031391679,0.01422733300837454,4.599999904632568,30.774999618530273,0.0,0.0,0.0,0.0,0.0,snow covered,0.276535391807556,-8.84885883331299,100.0,416.336975097656
frame_00165.png,1769615297943375521,1769615297.9433756,42.29959254378301,-83.69749608081607,234.8407745361328,0.7309977519593192,0.6823476762866584,0.005792661091567469,0.003221858795366121,0.005350000000000001,0.009170000000000001,-0.015420000000000003,1.2294,-0.4647,-9.2713,6.061025512473839,13.558150409873232,17.06999969482422,16.85999870300293,16.8799991607666,16.989999771118164,13.860997137594453,13.690474396026422,13.706714952134744,13.796036461945839,13.763555736925365,0.015149951936110302,4.599999904632568,30.899999618530273,0.0,0.0,0.0,0.0,0.0,snow covered,0.276535391807556,-8.84885883331299,100.0,416.336975097656
frame_00166.png,1769615297963049847,1769615297.9630497,42.299593631212325,-83.69749600547495,234.84361267089844,0.7309130686003293,0.682436989035592,0.005949770875565233,0.0032314658924203258,-0.018260000000000002,0.007960000000000002,-0.009680000000000001,2.0331,0.048400000000000006,-10.116,6.096306760653301,13.637072445175795,17.170000076293945,16.969999313354492,16.920000076293945,17.06999969482422,13.942198369351386,13.779795905837517,13.739196064351386,13.860997137594453,13.830546869283687,0.014187386983951599,4.700000286102295,31.05000114440918,0.0,0.0,0.0,0.0,0.0,snow covered,0.276535391807556,-8.84885883331299,100.0,416.336975097656
frame_00167.png,1769615297983432230,1769615297.9834323,42.29959472053087,-83.69749592299185,234.84677124023438,0.7308508499039241,0.6825037489590967,0.00587601637729809,0.003337706251859853,0.00256,-0.01246,-0.013040000000000001,1.4366,0.9898,-10.956100000000001,6.127587512014239,13.707045609125133,17.260000228881836,17.020000457763672,17.139999389648438,17.34000015258789,14.01527932305416,13.820397296108322,13.917837535188903,14.080239998702774,13.95843853826354,0.018340416768661476,4.800000190734863,31.350000381469727,0.0,0.0,0.0,0.0,0.0,snow covered,0.276535391807556,-8.84885883331299,100.0,416.336975097656
frame_00168.png,1769615298005381043,1769615298.005381,42.29959692809157,-83.6974957792422,234.85260009765625,0.730767905921772,0.6825922122627436,0.005915264701767818,0.0033390232807973957,-0.01043,0.006210000000000001,-0.017190000000000004,1.868,-0.687,-8.539900000000001,6.159855081707463,13.779226226474695,17.19999885559082,17.19999885559082,17.229999542236328,17.350000381469727,13.966557654729193,13.966557654729193,13.990918488891678,14.088360276756935,14.003098518776751,0.016247087363434075,4.800000190734863,31.125,0.0,0.0,0.0,0.0,0.0,snow covered,0.276535391807556,-8.84885883331299,100.0,416.336975097656
frame_00169.png,1769615298026224897,1769615298.0262249,42.29959803330303,-83.6974957005083,234.8556365966797,0.7306657720110565,0.6826985778403761,0.006074828331147154,0.0036438835000020347,-0.035820000000000005,-0.0164,-0.013590000000000001,1.7947000000000002,-0.43720000000000003,-8.1766,6.197557477192707,13.863564223031455,17.149999618530273,17.239999771118164,17.350000381469727,17.260000228881836,13.925957813243066,13.999038766945839,14.088360276756935,14.01527932305416,14.007159045,0.010357713186771393,4.800000190734863,31.524999618530273,0.0,0.0,0.0,0.0,0.0,snow covered,0.276535391807556,-8.84885883331299,100.0,416.336975097656
frame_00170.png,1769615298046954532,1769615298.0469544,42.299599150402074,-83.69749562959444,234.85812377929688,0.73057145458052,0.6827947966515203,0.006339138794494377,0.004053484557319958,-0.05451,0.005080000000000001,-0.015450000000000002,0.5483,0.6801,-10.3343,6.208781027706855,13.888670632118572,17.35999870300293,17.31999969482422,17.329999923706055,17.639999389648438,14.09647900602642,14.06399944259445,14.072119720648613,14.323842145188904,14.139110078614598,0.018031923510149803,4.800000190734863,31.17500114440918,0.0,0.0,0.0,0.0,0.0,snow covered,0.276535391807556,-8.84885883331299,100.0,416.336975097656
frame_00171.png,1769615298067880149,1769615298.0678802,42.299600268394926,-83.69749554530334,234.86000061035156,0.7305076933247441,0.6828612582556627,0.006538291706810125,0.004032704850502103,0.011230000000000002,0.01923,-0.015690000000000003,1.9743000000000002,2.1922,-9.160400000000001,6.238210782391598,13.954503227563062,17.600000381469727,17.5,17.469999313354492,17.239999771118164,14.291362581756935,14.210161350000002,14.185800515837517,13.999038766945839,14.171590803635072,0.015556811484569057,4.700000286102295,31.450000762939453,0.0,0.0,0.0,0.0,0.0,snow covered,0.276535391807556,-8.84885883331299,100.0,416.336975097656
frame_00172.png,1769615298088708892,1769615298.0887089,42.29960138347526,-83.69749547056831,234.8621368408203,0.7303064591104848,0.6830770961962191,0.006500981642712197,0.0039866867607411954,-0.011430000000000003,0.0006600000000000001,-0.028390000000000006,1.1725,-2.2861000000000002,-9.694600000000001,6.271602827540616,14.029199229038706,17.65999984741211,17.5,17.5,17.579999923706055,14.340082701297225,14.210161350000002,14.210161350000002,14.275122025648614,14.25888185673646,0.016371756074454992,4.599999904632568,31.225000381469727,0.0,0.0,0.0,0.0,0.0,snow covered,0.276535391807556,-8.84885883331299,100.0,416.336975097656
frame_00173.png,1769615298109425746,1769615298.1094258,42.299602516054556,-83.69749539479834,234.86476135253906,0.7302655137477573,0.6831156398823865,0.0068550901700107966,0.004278985576378683,-0.043890000000000005,0.0,-0.00024,1.5731000000000002,1.4061000000000001,-10.9802,6.2964721784366935,14.084830474832177,17.459999084472656,17.600000381469727,17.639999389648438,17.579999923706055,14.177680237783356,14.291362581756935,14.323842145188904,14.275122025648614,14.267001747594453,0.01293386335659435,4.5,31.325000762939453,0.0,0.0,0.0,0.0,0.0,snow covered,0.276535391807556,-8.84885883331299,100.0,416.336975097656
frame_00174.png,1769615298129496403,1769615298.1294963,42.29960364899984,-83.69749531196531,234.8672332763672,0.7301882500871806,0.6831979158786973,0.006841892681971853,0.004349215809084062,0.004280000000000001,-0.006120000000000001,-0.02313,1.3798000000000001,0.5016,-9.9006,6.326330355876959,14.151621426275405,17.619998931884766,17.770000457763672,17.60999870300293,17.670000076293945,14.307601589080582,14.429404211108324,14.29948131102642,14.348202979351388,14.346172522641677,0.013747618771446765,4.400000095367432,31.375,0.0,0.0,0.0,0.0,0.0,snow covered,0.276535391807556,-8.84885883331299,100.0,416.336975097656
frame_00175.png,1769615298150339957,1769615298.1503398,42.29960478206957,-83.69749522859459,234.86976623535156,0.7300650844065202,0.6833281360178122,0.00696308958837331,0.00437566455602508,-0.014210000000000002,0.0035700000000000007,-0.010310000000000001,1.1201,-0.7322000000000001,-9.0609,6.351339141818021,14.207564579898404,17.670000076293945,17.60999870300293,17.68000030517578,17.90999984741211,14.348202979351388,14.29948131102642,14.356323257405549,14.543085006297225,14.386773138520146,0.012613601551056492,4.200000286102295,31.5,0.0,0.0,0.0,0.0,0.0,snow covered,0.276535391807556,-8.84885883331299,100.0,416.336975097656
frame_00176.png,1769615298171041285,1769615298.1710413,42.2996059270532,-83.6974951458388,234.8729705810547,0.7299893245031921,0.6834120496900705,0.00674782644632113,0.004245384321903757,0.05304000000000001,0.0014000000000000002,-0.013340000000000001,0.8818,3.6248,-11.4426,6.38281453339149,14.277973142324761,18.170000076293945,17.779998779296875,17.649999618530273,17.93000030517578,14.754207589351388,14.437522940377809,14.331962423243066,14.559325562405549,14.520754628844454,0.01700391814017398,4.099999904632568,31.825000762939453,0.0,0.0,0.0,0.0,0.0,snow covered,0.276535391807556,-8.84885883331299,100.0,416.336975097656
frame_00177.png,1769615298191538420,1769615298.1915383,42.299607072656556,-83.69749504644979,234.87625122070312,0.7298818717476203,0.683538728759416,0.006046056071832052,0.0032718169459983715,0.12749000000000002,0.02034,-0.020870000000000003,1.9867000000000001,-0.46280000000000004,-10.0466,6.413193428606722,14.345928908187522,17.93000030517578,17.93000030517578,17.899999618530273,18.010000228881836,14.559325562405549,14.559325562405549,14.534964728243066,14.624286238054161,14.569475522777081,0.015582582070511716,3.700000047683716,32.25,0.0,0.0,0.0,0.0,0.0,snow covered,0.276535391807556,-8.84885883331299,100.0,416.336975097656
frame_00178.png,1769615298211087944,1769615298.211088,42.29960822077872,-83.69749495148382,234.8797149658203,0.7297806010316258,0.6836550862065154,0.005299559154711184,0.002812851693000553,0.07179000000000002,-0.039020000000000006,-0.012050000000000002,1.7904,0.6146,-11.410400000000001,6.456145476884701,14.442010063062463,17.969999313354492,17.940000534057617,17.719999313354492,18.10999870300293,14.591805125837517,14.56744584045971,14.388802820837519,14.70548592102642,14.563384927040293,0.008404291608151069,3.799999952316284,32.29999923706055,0.0,0.0,0.0,0.0,0.0,snow covered,0.276535391807556,-8.84885883331299,100.0,416.336975097656
frame_00179.png,1769615298231792679,1769615298.2317927,42.29960937988002,-83.69749485100834,234.8840789794922,0.7297181525720927,0.6837317924417603,0.0042345372886799515,0.0020790635152872095,0.15382,-0.01573,-0.014770000000000002,0.7335,3.4433000000000002,-11.677900000000001,6.467962321791834,14.468443636109026,18.149999618530273,18.029998779296875,18.18000030517578,18.170000076293945,14.737967033243065,14.640525245377807,14.762327867405547,14.754207589351388,14.723756933844452,0.01764621711614088,3.6000001430511475,31.725000381469727,0.0,0.0,0.0,0.0,0.0,snow covered,0.276535391807556,-8.84885883331299,100.0,416.336975097656
frame_00180.png,1769615298252686854,1769615298.2526867,42.29961054250873,-83.69749474241173,234.88865661621094,0.7295014863006513,0.6839714484698292,0.0030734490523331185,0.0010922793356237743,0.13383000000000003,-0.030730000000000004,-0.03479000000000001,2.0923000000000003,-2.1622,-9.6735,6.5079571267446275,14.557909615100128,18.1299991607666,18.119998931884766,18.299999237060547,18.049999237060547,14.721726477134743,14.713606199080584,14.859768106486131,14.65676580148613,14.737966646046896,0.01236833004925412,3.700000047683716,31.625,0.0,0.0,0.0,0.0,0.0,snow covered,0.276535391807556,-8.84885883331299,100.0,416.336975097656
frame_00181.png,1769615298274378532,1769615298.2743785,42.299611702653706,-83.69749463017571,234.89317321777344,0.7293749383303221,0.6841093260078941,0.002425090125537847,0.0008650679435029283,0.04066,-0.030830000000000007,-0.01819,1.2643,-0.8116,-8.6842,6.533214697187157,14.61440928472584,18.53999900817871,18.270000457763672,18.350000381469727,18.28999900817871,15.05465013343197,14.835408821108322,14.900369496756936,14.85164782843197,14.9105190699323,0.020261495311749513,3.9000000953674316,31.700000762939453,0.0,0.0,0.0,0.0,0.0,snow covered,0.276535391807556,-8.84885883331299,100.0,416.336975097656
frame_00182.png,1769615298293891135,1769615298.293891,42.29961287925627,-83.69749452821266,234.8976287841797,0.7291992257824792,0.6842984485709325,0.0018755430217201824,0.0007776503209833437,0.05881000000000001,-0.04274000000000001,-0.030050000000000004,1.5551000000000001,2.1955,-9.1622,6.566634934704505,14.689168350837898,18.369998931884766,18.170000076293945,18.489999771118164,18.219999313354492,14.916608504080582,14.754207589351388,15.01405029194584,14.794807430837517,14.869918454053831,0.012304992284033766,3.9000000953674316,31.524999618530273,0.0,0.0,0.0,0.0,0.0,snow covered,0.276535391807556,-8.84885883331299,100.0,416.336975097656
frame_00183.png,1769615298314549750,1769615298.3145497,42.299614056111146,-83.69749442750681,234.9014892578125,0.7289714821616875,0.6845425211414411,0.0013154800669380746,0.000620045567429775,0.028370000000000003,-0.02059,-0.033220000000000006,0.8688,-3.3996,-9.8398,6.582258073153947,14.724116374160992,18.549999237060547,18.600000381469727,18.5,18.3799991607666,15.06277041148613,15.103371801756936,15.02217057,14.924728782134743,15.028260391344451,0.020656181291611786,3.9000000953674316,31.325000762939453,0.0,0.0,0.0,0.0,0.0,snow covered,0.276535391807556,-8.84885883331299,100.0,416.336975097656
frame_00184.png,1769615298335090933,1769615298.3350909,42.29961523560088,-83.69749432329294,234.90524291992188,0.7288373643253808,0.6846849478508192,0.0013502586339225163,0.0008918247444440308,-0.024810000000000002,-0.024040000000000002,-0.017050000000000003,2.0587,0.1438,-9.1327,6.615905221322058,14.799383025784167,18.440000534057617,18.229999542236328,18.510000228881836,18.56999969482422,14.97345045045971,14.802927708891678,15.030290848054163,15.079010967594453,14.97141999375,0.01162460405721666,3.700000047683716,31.125,0.0,0.0,0.0,0.0,0.0,snow covered,0.276535391807556,-8.84885883331299,100.0,416.336975097656
frame_00185.png,1769615298356023401,1769615298.3560233,42.29961642575629,-83.6974942324452,234.9092254638672,0.7286511880872754,0.6848835603728944,0.0008814768209240031,0.001085278104421289,0.027400000000000004,-0.05126000000000001,-0.03246,0.9362,-0.45380000000000004,-10.4284,6.643027860359295,14.860054741952123,18.350000381469727,18.56999969482422,18.60999870300293,18.53999900817871,14.900369496756936,15.079010967594453,15.111490531026423,15.05465013343197,15.036380282202446,0.011865739616189301,3.700000047683716,30.950000762939453,0.0,0.0,0.0,0.0,0.0,snow covered,0.276535391807556,-8.84885883331299,100.0,416.336975097656
frame_00186.png,1769615298376800531,1769615298.3768005,42.299617614656555,-83.69749414581453,234.91297912597656,0.7284415328289369,0.685106581589217,0.0008129618424325656,0.001115439827578413,-0.00239,0.008220000000000002,-0.030860000000000002,0.4212,-1.3223,-8.636700000000001,6.647492194028998,14.870041188511228,18.69999885559082,18.56999969482422,18.760000228881836,18.690000534057617,15.184571484729195,15.079010967594453,15.233293153054163,15.17645275545971,15.168332090209379,0.020059857125924684,3.5,31.125,0.0,0.0,0.0,0.0,0.0,snow covered,0.276535391807556,-8.84885883331299,100.0,416.336975097656
frame_00187.png,1769615298398120342,1769615298.3981204,42.29961881130788,-83.69749404995106,234.9164581298828,0.7283431435142108,0.6852112159202519,0.0007163051500847974,0.0011583522173472236,0.00808,-0.025750000000000006,-0.013310000000000002,2.6167000000000002,0.10310000000000001,-8.395,6.69757240336324,14.982067611979367,18.619998931884766,18.690000534057617,18.719999313354492,18.68000030517578,15.119610809080582,15.17645275545971,15.200812040837517,15.16833247740555,15.16630202069584,0.012296994880009886,3.5,31.100000381469727,0.0,0.0,0.0,0.0,0.0,snow covered,0.276535391807556,-8.84885883331299,100.0,416.336975097656
frame_00188.png,1769615298419394306,1769615298.4193943,42.29962001382056,-83.69749397118088,234.92002868652344,0.7281736850490481,0.6853914038704435,0.0003320842456945352,0.0012639709831081915,0.014610000000000001,-0.02441,-0.026000000000000006,-0.07740000000000001,-1.8012000000000001,-11.0517,6.708606000598937,15.006749106979788,18.869998931884766,18.81999969482422,19.059999465942383,18.760000228881836,15.322613114080582,15.282013272594453,15.476895299540292,15.233293153054163,15.328703709817372,0.021453987172201063,3.4000000953674316,31.375,0.0,0.0,0.0,0.0,0.0,snow covered,0.276535391807556,-8.84885883331299,100.0,416.336975097656
frame_00189.png,1769615298439141101,1769615298.439141,42.299621217663045,-83.69749390045021,234.92337036132812,0.7280850693285986,0.6854851469391086,0.0005973945535946005,0.0013741420544179405,-0.04327000000000001,0.028010000000000004,-0.011360000000000002,1.6157000000000001,-2.3346,-9.132200000000001,6.724176421140711,15.041579203506503,18.850000381469727,18.65999984741211,19.329999923706055,18.760000228881836,15.306374106756934,15.152091921297227,15.696138160648614,15.233293153054163,15.346974335439235,0.02030339552788036,3.1000001430511475,31.149999618530273,0.0,0.0,0.0,0.0,0.0,snow covered,0.276535391807556,-8.84885883331299,100.0,416.336975097656
frame_00190.png,1769615298459735771,1769615298.4597359,42.299622424271824,-83.69749381985284,234.9259796142578,0.7280630000962257,0.685507262336674,0.0009895405547026147,0.0017555580458074858,-0.04914,0.00817,-0.007170000000000001,1.3472000000000002,0.44060000000000005,-7.1321,6.754249248040206,15.10885031291106,19.020000457763672,18.969999313354492,19.25,18.899999618530273,15.444415736108322,15.403814345837517,15.631177485000002,15.346973948243065,15.456595378797225,0.02301598458414833,2.799999952316284,30.92500114440918,0.0,0.0,0.0,0.0,0.0,snow covered,0.276535391807556,-8.84885883331299,100.0,416.336975097656
frame_00191.png,1769615298480373022,1769615298.480373,42.29962364087713,-83.69749375892256,234.92835998535156,0.7279753379944646,0.6855964787832294,0.0018496185468064618,0.00244017686108546,-0.09598000000000001,0.02502,-0.00198,0.7649,-2.0651,-10.3035,6.782947122266207,15.17304573568217,18.989999771118164,18.959999084472656,19.059999465942383,18.989999771118164,15.42005490194584,15.395694067783356,15.476895299540292,15.42005490194584,15.428174792803832,0.01681462387750404,2.299999952316284,31.25,0.0,0.0,0.0,0.0,0.0,snow covered,0.276535391807556,-8.84885883331299,100.0,416.336975097656
frame_00192.png,1769615298500903403,1769615298.5009034,42.29962485817355,-83.6974937023439,234.93052673339844,0.728004467046812,0.6855607313725647,0.0026481704238776748,0.002994453741059568,-0.085,0.02756,0.004710000000000001,0.9453,0.9015000000000001,-10.316500000000001,6.8029496108349825,15.217790102461207,19.09000015258789,19.049999237060547,19.029998779296875,19.09000015258789,15.501256133702775,15.46877502148613,15.45253446537781,15.501256133702775,15.480955438567372,0.017293268886893344,1.7000000476837158,31.67500114440918,0.0,0.0,0.0,0.0,0.0,snow covered,0.276535391807556,-8.84885883331299,100.0,416.336975097656
frame_00193.png,1769615298521468272,1769615298.5214682,42.29962607616586,-83.69749363807182,234.93231201171875,0.7280291699892507,0.6855306662248634,0.0032868681450606623,0.0032295213043175178,-0.05815000000000001,0.033960000000000004,0.00255,0.5869,-0.6461,-10.0264,6.818776429654283,15.253193746550854,19.170000076293945,19.369998931884766,19.1299991607666,19.209999084472656,15.566216809351387,15.728617724080582,15.533735697134745,15.598696372783357,15.606816650837517,0.023183531931902875,1.0,31.200000762939453,0.0,0.0,0.0,0.0,0.0,snow covered,0.276535391807556,-8.84885883331299,100.0,416.336975097656
frame_00194.png,1769615298542365616,1769615298.5423658,42.29962730409705,-83.69749358543208,234.93467712402344,0.7280434464329069,0.6855109707177257,0.003982962878201422,0.0034036948228834316,-0.057440000000000005,0.027980000000000005,0.0041400000000000005,2.0707,0.37410000000000004,-10.230400000000001,6.854138545482546,15.332296677931728,19.270000457763672,19.139999389648438,19.28999900817871,19.219999313354492,15.647418041108322,15.541855975188904,15.663657048431968,15.606816650837517,15.614936928891677,0.018434306151064887,0.6000000238418579,31.325000762939453,0.0,0.0,0.0,0.0,0.0,snow covered,0.276535391807556,-8.84885883331299,100.0,416.336975097656
frame_00195.png,1769615298563001349,1769615298.5630014,42.299628534584336,-83.69749352543081,234.93727111816406,0.7280503452011278,0.6855018250925554,0.004294204811740554,0.003391526548445059,-0.013060000000000002,0.022840000000000003,-0.0024700000000000004,1.6418000000000001,-0.2796,-10.8337,6.882094489630609,15.394832447634297,19.309999465942383,19.149999618530273,19.279998779296875,19.28999900817871,15.679897604540292,15.549976253243067,15.65553677037781,15.663657048431968,15.637266919148285,0.01574778240287004,-0.10000000149011612,31.024999618530273,0.0,0.0,0.0,0.0,0.0,snow covered,0.276535391807556,-8.84885883331299,100.0,416.336975097656
