image_filename,timestamp_ns,timestamp_sec,latitude,longitude,altitude,orientation_x,orientation_y,orientation_z,orientation_w,angular_velocity_x,angular_velocity_y,angular_velocity_z,linear_acceleration_x,linear_acceleration_y,linear_acceleration_z,vehicle_speed_mps,vehicle_speed_mph,wheel_speed_fl_rads,wheel_speed_fr_rads,wheel_speed_rl_rads,wheel_speed_rr_rads,wheel_speed_fl_mph,wheel_speed_fr_mph,wheel_speed_rl_mph,wheel_speed_rr_mph,avg_wheel_speed_mph,wheel_slip,steering_angle_deg,throttle_pedal,brake_pedal,brake_torque_actual,abs_active,esc_active,trac_active,marwis_road_condition,marwis_friction,marwis_surface_temp_c,marwis_ice_percent,marwis_water_film_height
arenacam6_1769615414395315580.png,1769615414395315580,1769615414.3953154,42.299510381608094,-83.69750386153704,234.6204071044922,0.7286130567823139,0.6849052899747795,0.004417640151161811,0.002870837228145439,-0.0007000000000000001,-0.0003800000000000001,-0.0015,-0.0013000000000000002,0.11900000000000001,-9.8122,-0.00441577404669702,0.009877821596018433,1.4399999380111694,1.4499999284744263,1.5,1.25,1.1692932264644982,1.1774133109205749,1.21801383,1.015011525,1.1449329730962683,0.0,-3.299999952316284,23.825000762939453,0.0,0.0,0.0,0.0,0.0,snow covered,0.294896423816681,-7.76833868026733,100.0,411.207763671875
arenacam6_1769615414414828458.png,1769615414414828458,1769615414.4148285,42.29951038054272,-83.69750386311784,234.62051391601562,0.7286131153147998,0.684905243065969,0.004425188387642883,0.00285550691505251,0.0019900000000000004,0.004110000000000001,0.00012,0.062200000000000005,0.10740000000000001,-9.8164,-0.004490701425142393,0.010045429645958026,1.4399999380111694,1.4499999284744263,1.5,1.25,1.1692932264644982,1.1774133109205749,1.21801383,1.015011525,1.1449329730962683,0.0,-3.299999952316284,23.825000762939453,0.0,0.0,0.0,0.0,0.0,snow covered,0.294896423816681,-7.76833868026733,100.0,411.207763671875
arenacam6_1769615414434633457.png,1769615414434633457,1769615414.4346335,42.29951037939719,-83.69750386467607,234.62062072753906,0.7286168623797916,0.6849012520916784,0.004422535140731697,0.0028607554959965173,0.0007400000000000001,0.0015300000000000003,-0.0010700000000000002,-0.0502,0.1048,-9.834900000000001,-0.005394838949513512,0.012067931039724757,1.4399999380111694,1.4499999284744263,1.5,1.25,1.1692932264644982,1.1774133109205749,1.21801383,1.015011525,1.1449329730962683,0.0,-3.299999952316284,23.825000762939453,0.0,0.0,0.0,0.0,0.0,snow covered,0.294896423816681,-7.76833868026733,100.0,411.207763671875
arenacam6_1769615414455349440.png,1769615414455349440,1769615414.4553494,42.299510378369064,-83.6975038619231,234.6207275390625,0.7286120707363137,0.6849063951324698,0.0044158519194512896,0.002860163598770147,-2e-05,-1e-05,-0.0002800000000000001,0.027200000000000002,0.0889,-9.8284,-0.0055627745026846495,0.0124435927960354,1.4399999380111694,1.4499999284744263,1.5,1.25,1.1692932264644982,1.1774133109205749,1.21801383,1.015011525,1.1449329730962683,0.0,-3.299999952316284,23.825000762939453,0.0,0.0,0.0,0.0,0.0,snow covered,0.294896423816681,-7.76833868026733,100.0,411.207763671875
arenacam6_1769615414476124981.png,1769615414476124981,1769615414.476125,42.299510377138176,-83.69750386321753,234.62083435058594,0.728620262871199,0.6848976705751106,0.004412772009713016,0.002867196798661702,-0.00068,-0.0024400000000000003,0.00012,0.0409,0.12340000000000001,-9.855400000000001,-0.005481301315803961,0.012261342165374514,1.4399999380111694,1.4499999284744263,1.5,1.25,1.1692932264644982,1.1774133109205749,1.21801383,1.015011525,1.1449329730962683,0.0,-3.299999952316284,23.825000762939453,0.0,0.0,0.0,0.0,0.0,snow covered,0.294896423816681,-7.76833868026733,100.0,411.207763671875
arenacam6_1769615414496934363.png,1769615414496934363,1769615414.4969344,42.299510375761,-83.69750386439519,234.62095642089844,0.7286168070692784,0.6849012740941941,0.004418906750525867,0.0028751458136143915,-0.00032,-0.0021300000000000004,-0.0002800000000000001,0.0125,0.1202,-9.814300000000001,-0.005986900287519143,0.013392336729163073,1.4399999380111694,1.4499999284744263,1.5,1.25,1.1692932264644982,1.1774133109205749,1.21801383,1.015011525,1.1449329730962683,0.0,-3.299999952316284,23.825000762939453,0.0,0.0,0.0,0.0,0.0,snow covered,0.294896423816681,-7.76833868026733,100.0,411.207763671875
arenacam6_1769615414519303035.png,1769615414519303035,1769615414.5193028,42.29951037472577,-83.69750386178015,234.62107849121094,0.7286188619090744,0.6848990927438388,0.004418191370477748,0.0028751372151012786,-0.00022000000000000003,-0.0023800000000000006,0.0016300000000000002,0.09480000000000001,0.07300000000000001,-9.8366,-0.004900799810833631,0.010962795128846183,1.4399999380111694,1.4499999284744263,1.5,1.25,1.1692932264644982,1.1774133109205749,1.21801383,1.015011525,1.1449329730962683,0.0,-3.299999952316284,23.825000762939453,0.0,0.0,0.0,0.0,0.0,snow covered,0.294896423816681,-7.76833868026733,100.0,411.207763671875
arenacam6_1769615414538947062.png,1769615414538947062,1769615414.538947,42.29951037356844,-83.69750386291679,234.62118530273438,0.7286246717397351,0.6848928727679697,0.00442232001198375,0.0028781329907895787,0.00032,-0.0015900000000000003,0.00128,0.035,0.1066,-9.8239,-0.005094033547902635,0.011395047404645321,1.4399999380111694,1.4499999284744263,1.5,1.25,1.1692932264644982,1.1774133109205749,1.21801383,1.015011525,1.1449329730962683,0.0,-3.299999952316284,23.825000762939453,0.0,0.0,0.0,0.0,0.0,snow covered,0.294896423816681,-7.76833868026733,100.0,411.207763671875
arenacam6_1769615414559560917.png,1769615414559560917,1769615414.559561,42.29951037314839,-83.69750386598743,234.62130737304688,0.7286270491140772,0.6848903051372356,0.004424983907804143,0.0028831832672036204,0.0017200000000000004,0.0004500000000000001,-0.00014000000000000004,0.057600000000000005,0.1,-9.791,-0.004707100611979429,0.010529501642961264,1.4399999380111694,1.4499999284744263,1.5,1.25,1.1692932264644982,1.1774133109205749,1.21801383,1.015011525,1.1449329730962683,0.0,-3.299999952316284,23.825000762939453,0.0,0.0,0.0,0.0,0.0,snow covered,0.294896423816681,-7.76833868026733,100.0,411.207763671875
arenacam6_1769615414580528435.png,1769615414580528435,1769615414.5805285,42.29951037215408,-83.69750386330882,234.62142944335938,0.7286305049490361,0.6848867016210736,0.0044188492467258185,0.0028752341911743675,0.0012300000000000002,0.0013000000000000002,-0.00031,0.0324,0.1258,-9.813600000000001,-0.004488314030515133,0.010040089187420522,1.4399999380111694,1.4499999284744263,1.5,1.25,1.1692932264644982,1.1774133109205749,1.21801383,1.015011525,1.1449329730962683,0.0,-3.299999952316284,23.825000762939453,0.0,0.0,0.0,0.0,0.0,snow covered,0.294896423816681,-7.76833868026733,100.0,411.207763671875
arenacam6_1769615414622848952.png,1769615414622848952,1769615414.622849,42.29951037131193,-83.69750386870538,234.62167358398438,0.7286379735425488,0.6848786683672022,0.0044214839424462655,0.002891990166312162,-0.00021000000000000004,-0.0012100000000000001,-0.0014600000000000004,0.054400000000000004,0.09970000000000001,-9.793800000000001,-0.003764785960974477,0.008421600307542248,1.4399999380111694,1.4499999284744263,1.5,1.25,1.1692932264644982,1.1774133109205749,1.21801383,1.015011525,1.1449329730962683,0.0,-3.299999952316284,23.825000762939453,0.0,0.0,0.0,0.0,0.0,snow covered,0.294896423816681,-7.76833868026733,100.0,411.207763671875
arenacam6_1769615414642437720.png,1769615414642437720,1769615414.6424377,42.29951037050532,-83.69750386601667,234.62179565429688,0.7286427565201846,0.6848735637186052,0.00442208293126803,0.0028948700478091303,6e-05,0.0009100000000000001,8e-05,0.038200000000000005,0.11220000000000001,-9.7921,-0.0033777786898262782,0.007555888262419996,1.4399999380111694,1.4499999284744263,1.5,1.25,1.1692932264644982,1.1774133109205749,1.21801383,1.015011525,1.1449329730962683,0.0,-3.299999952316284,23.825000762939453,0.0,0.0,0.0,0.0,0.0,snow covered,0.294896423816681,-7.76833868026733,100.0,411.207763671875
arenacam6_1769615414663033051.png,1769615414663033051,1769615414.663033,42.299510370257615,-83.69750386850808,234.62191772460938,0.7286496198243188,0.6848663038620004,0.004417922897300561,0.0028912491334071406,0.0005200000000000001,0.0009400000000000002,0.0005400000000000001,0.0078000000000000005,0.10880000000000001,-9.802,-0.003383246384790296,0.007568119167992805,1.4399999380111694,1.4499999284744263,1.5,1.25,1.1692932264644982,1.1774133109205749,1.21801383,1.015011525,1.1449329730962683,0.0,-3.299999952316284,23.825000762939453,0.0,0.0,0.0,0.0,0.0,snow covered,0.294896423816681,-7.76833868026733,100.0,411.207763671875
arenacam6_1769615414683665914.png,1769615414683665914,1769615414.683666,42.299510369940215,-83.69750387083272,234.62203979492188,0.7286430600556737,0.6848732816975384,0.004409031706117431,0.0029050798547926283,0.00058,-0.00068,-0.0012500000000000002,-0.0001,0.10310000000000001,-9.8015,-0.0035951675119745632,0.00804217401423638,1.4399999380111694,1.4499999284744263,1.5,1.25,1.1692932264644982,1.1774133109205749,1.21801383,1.015011525,1.1449329730962683,0.0,-3.299999952316284,23.825000762939453,0.0,0.0,0.0,0.0,0.0,snow covered,0.294896423816681,-7.76833868026733,100.0,411.207763671875
arenacam6_1769615414704449694.png,1769615414704449694,1769615414.70445,42.29951036913729,-83.69750386817915,234.62216186523438,0.7286532904641039,0.6848623645395698,0.004406881932152022,0.002916046079833702,-0.0014000000000000002,-0.0021500000000000004,0.00018,-0.0112,0.0964,-9.7995,-0.004312414486563387,0.009646612461573105,1.4399999380111694,1.4499999284744263,1.5,1.25,1.1692932264644982,1.1774133109205749,1.21801383,1.015011525,1.1449329730962683,0.0,-3.299999952316284,23.825000762939453,0.0,0.0,0.0,0.0,0.0,snow covered,0.294896423816681,-7.76833868026733,100.0,411.207763671875
arenacam6_1769615414725050457.png,1769615414725050457,1769615414.7250504,42.29951036859608,-83.69750387051138,234.62228393554688,0.7286529051149488,0.6848627369404511,0.0044054839519169185,0.002926965857230182,-0.00117,-0.0015,0.0007400000000000001,-0.0105,0.09430000000000001,-9.7934,-0.005023810866842328,0.011237963480474279,1.4399999380111694,1.4499999284744263,1.5,1.25,1.1692932264644982,1.1774133109205749,1.21801383,1.015011525,1.1449329730962683,0.0,-3.299999952316284,23.825000762939453,0.0,0.0,0.0,0.0,0.0,snow covered,0.294896423816681,-7.76833868026733,100.0,411.207763671875
arenacam6_1769615414746996663.png,1769615414746996663,1769615414.7469966,42.29951036695305,-83.69750387029306,234.62252807617188,0.7286624711486576,0.6848525026725795,0.004410579367857226,0.002932492502334705,0.0005000000000000001,0.0005700000000000001,0.00051,0.0082,0.0872,-9.814,-0.005547553979898588,0.012409545399794348,1.4399999380111694,1.4499999284744263,1.5,1.25,1.1692932264644982,1.1774133109205749,1.21801383,1.015011525,1.1449329730962683,0.0,-3.299999952316284,23.825000762939453,0.0,0.0,0.0,0.0,0.0,snow covered,0.294896423816681,-7.76833868026733,100.0,411.207763671875
arenacam6_1769615414767496936.png,1769615414767496936,1769615414.767497,42.29951036612824,-83.69750387266365,234.6226348876953,0.7286658893961444,0.6848488460302663,0.004412641156157571,0.0029339937909671036,-0.00027000000000000006,0.00072,-0.0009300000000000002,0.0095,0.0845,-9.7936,-0.0060841194652692205,0.013609810196639332,1.4399999380111694,1.4499999284744263,1.5,1.25,1.1692932264644982,1.1774133109205749,1.21801383,1.015011525,1.1449329730962683,0.0,-3.299999952316284,23.825000762939453,0.0,0.0,0.0,0.0,0.0,snow covered,0.294896423816681,-7.76833868026733,100.0,411.207763671875
arenacam6_1769615414787310696.png,1769615414787310696,1769615414.7873106,42.299510365305636,-83.69750387492178,234.6227569580078,0.7286655528381561,0.684849219187041,0.004411272924724364,0.002932534253546349,-0.00017,-0.00051,4e-05,0.0166,0.09140000000000001,-9.7872,-0.006302804602474462,0.014098995727459224,1.4399999380111694,1.4499999284744263,1.5,1.25,1.1692932264644982,1.1774133109205749,1.21801383,1.015011525,1.1449329730962683,0.0,-3.299999952316284,23.825000762939453,0.0,0.0,0.0,0.0,0.0,snow covered,0.294896423816681,-7.76833868026733,100.0,411.207763671875
arenacam6_1769615414807276544.png,1769615414807276544,1769615414.8072765,42.2995103640904,-83.69750387275452,234.62286376953125,0.7286638491593354,0.6848509977846121,0.004418071068548038,0.0029302576261629426,-0.0013300000000000002,0.0006500000000000001,-0.00033000000000000005,0.027100000000000003,0.09390000000000001,-9.8035,-0.0061343621991272225,0.01372220017771565,1.4399999380111694,1.4499999284744263,1.5,1.25,1.1692932264644982,1.1774133109205749,1.21801383,1.015011525,1.1449329730962683,0.0,-3.299999952316284,23.825000762939453,0.0,0.0,0.0,0.0,0.0,snow covered,0.294896423816681,-7.76833868026733,100.0,411.207763671875
arenacam6_1769615414828030442.png,1769615414828030442,1769615414.8280303,42.29951036488621,-83.69750387565692,234.6230010986328,0.7286693209638697,0.6848451235441065,0.004425071340157904,0.00293192556944046,8e-05,0.00016,0.00072,0.0374,0.0995,-9.8023,-0.005841427060328128,0.013066921848330403,1.4399999380111694,1.4499999284744263,1.5,1.25,1.1692932264644982,1.1774133109205749,1.21801383,1.015011525,1.1449329730962683,0.0,-3.299999952316284,23.825000762939453,0.0,0.0,0.0,0.0,0.0,snow covered,0.294896423816681,-7.76833868026733,100.0,411.207763671875
arenacam6_1769615414849304308.png,1769615414849304308,1769615414.8493044,42.299510365626844,-83.6975038784567,234.6231231689453,0.7286737245945532,0.6848403796291814,0.004426093277507712,0.002944013104383084,-0.0007800000000000001,-0.00072,0.00075,0.039,0.11570000000000001,-9.7836,-0.005424304918860754,0.012133844645196377,1.4399999380111694,1.4499999284744263,1.5,1.25,1.1692932264644982,1.1774133109205749,1.21801383,1.015011525,1.1449329730962683,0.0,-3.299999952316284,23.825000762939453,0.0,0.0,0.0,0.0,0.0,snow covered,0.294896423816681,-7.76833868026733,100.0,411.207763671875
arenacam6_1769615414869986405.png,1769615414869986405,1769615414.8699863,42.299510364632994,-83.69750387624961,234.62322998046875,0.728674039788123,0.6848399528238776,0.004435789128974609,0.00295068294623271,-0.00135,-3e-05,-0.0012600000000000003,0.0475,0.1213,-9.808200000000001,-0.004819228365637823,0.010780324700229873,1.4399999380111694,1.4499999284744263,1.5,1.25,1.1692932264644982,1.1774133109205749,1.21801383,1.015011525,1.1449329730962683,0.0,-3.299999952316284,23.825000762939453,0.0,0.0,0.0,0.0,0.0,snow covered,0.294896423816681,-7.76833868026733,100.0,411.207763671875
arenacam6_1769615414891027109.png,1769615414891027109,1769615414.8910272,42.299510366085926,-83.69750387862248,234.6233367919922,0.7286740842441023,0.6848399378605419,0.0044382599908651295,0.0029394404980438264,0.00143,0.0016400000000000002,-0.0014100000000000002,0.14020000000000002,0.12390000000000001,-9.8026,-0.0033972851436675257,0.007599523029275635,1.4399999380111694,1.4499999284744263,1.5,1.25,1.1692932264644982,1.1774133109205749,1.21801383,1.015011525,1.1449329730962683,0.0,-3.299999952316284,23.825000762939453,0.0,0.0,0.0,0.0,0.0,snow covered,0.294896423816681,-7.76833868026733,100.0,411.207763671875
arenacam6_1769615414912023827.png,1769615414912023827,1769615414.9120238,42.29951036754117,-83.6975038809804,234.62342834472656,0.7286720434909114,0.6848420713180019,0.004446516973835231,0.002935791962864517,-0.0005200000000000001,-8e-05,4e-05,0.17020000000000002,0.0994,-9.6697,0.002907782883126763,0.006504535842581581,1.4399999380111694,1.4499999284744263,1.5,1.25,1.1692932264644982,1.1774133109205749,1.21801383,1.015011525,1.1449329730962683,0.0,-3.299999952316284,23.825000762939453,0.0,0.0,0.0,0.0,0.0,snow covered,0.294896423816681,-7.76833868026733,100.0,411.207763671875
arenacam6_1769615414932879148.png,1769615414932879148,1769615414.9328792,42.299510367711044,-83.6975038785547,234.6234893798828,0.7286638605969873,0.6848506914692806,0.004465941161104122,0.00292643528683937,-0.0008800000000000001,0.0028300000000000005,-0.00096,-0.0049,0.13140000000000002,-9.842500000000001,0.0026257897002628116,0.005873734012105894,1.4399999380111694,1.4499999284744263,1.5,1.25,1.1692932264644982,1.1774133109205749,1.21801383,1.015011525,1.1449329730962683,0.0,-3.299999952316284,23.825000762939453,0.0,0.0,0.0,0.0,0.0,snow covered,0.294896423816681,-7.76833868026733,100.0,411.207763671875
arenacam6_1769615414953239437.png,1769615414953239437,1769615414.9532394,42.2995103702382,-83.69750388058266,234.6235809326172,0.7286642118030676,0.6848502058660622,0.004484767207270785,0.002923837499322193,-0.00020000000000000004,0.0007700000000000001,0.00041000000000000005,0.1862,0.092,-9.8758,0.0052254104781440805,0.01168892971497962,1.4399999380111694,1.4499999284744263,1.5,1.25,1.1692932264644982,1.1774133109205749,1.21801383,1.015011525,1.1449329730962683,0.0,-3.299999952316284,23.825000762939453,0.0,0.0,0.0,0.0,0.0,snow covered,0.294896423816681,-7.76833868026733,100.0,411.207763671875
arenacam6_1769615414972956612.png,1769615414972956612,1769615414.9729567,42.29951037221398,-83.69750388255281,234.6236114501953,0.7286649114045495,0.6848495041838685,0.004480633283285463,0.0029201767566545502,0.0009700000000000002,0.00204,-0.0005400000000000001,-0.12050000000000001,0.067,-9.7623,0.004094555951896088,0.009159275991034435,1.4399999380111694,1.4499999284744263,1.5,1.25,1.1692932264644982,1.1774133109205749,1.21801383,1.015011525,1.1449329730962683,0.0,-3.299999952316284,23.825000762939453,0.0,0.0,0.0,0.0,0.0,snow covered,0.294896423816681,-7.76833868026733,100.0,411.207763671875
arenacam6_1769615414993386647.png,1769615414993386647,1769615414.9933867,42.299510372927884,-83.69750387997199,234.6236572265625,0.7286579058406131,0.6848568669216598,0.0045256728945263424,0.002871649538464396,0.0004300000000000001,0.007640000000000001,-0.00012,0.1182,0.1791,-9.76,0.0033560228840968103,0.007507221830351519,1.4399999380111694,1.4499999284744263,1.5,1.25,1.1692932264644982,1.1774133109205749,1.21801383,1.015011525,1.1449329730962683,0.0,-3.299999952316284,23.825000762939453,0.0,0.0,0.0,0.0,0.0,snow covered,0.294896423816681,-7.76833868026733,100.0,411.207763671875
arenacam6_1769615415013933407.png,1769615415013933407,1769615415.0139334,42.299510376563475,-83.697503882777,234.62364196777344,0.7286741779107253,0.6848394642537744,0.004568815733148073,0.0028242821261583594,-0.0008500000000000001,0.006450000000000001,0.00158,0.391,-0.2424,-9.549900000000001,0.011640398468636152,0.026038872950430957,1.4399999380111694,1.4499999284744263,1.5,1.25,1.1692932264644982,1.1774133109205749,1.21801383,1.015011525,1.1449329730962683,0.0,-3.299999952316284,23.825000762939453,0.0,0.0,0.0,0.0,0.0,snow covered,0.294896423816681,-7.76833868026733,100.0,411.207763671875
arenacam6_1769615415034720671.png,1769615415034720671,1769615415.0347207,42.299510379640054,-83.6975038842739,234.6235809326172,0.7286874711576105,0.6848248135589519,0.004690746395678396,0.002746089970277394,-0.0010000000000000002,0.017150000000000002,0.0019600000000000004,0.6146,0.2787,-9.3401,0.020878798189987592,0.04670461882311085,1.4399999380111694,1.4499999284744263,1.5,1.25,1.1692932264644982,1.1774133109205749,1.21801383,1.015011525,1.1449329730962683,0.0,-3.299999952316284,23.825000762939453,0.0,0.0,0.0,0.0,0.0,snow covered,0.294896423816681,-7.76833868026733,100.0,411.207763671875
arenacam6_1769615415055457704.png,1769615415055457704,1769615415.0554578,42.2995103860523,-83.69750388303208,234.6233367919922,0.7287038249708445,0.6848070532114445,0.004839340422069762,0.002572183702280752,0.0025900000000000003,0.023740000000000004,0.0014200000000000003,1.4966000000000002,-0.1625,-9.3594,0.04665516286995053,0.10436480003030714,1.4399999380111694,1.4499999284744263,1.5,1.25,1.1692932264644982,1.1774133109205749,1.21801383,1.015011525,1.1449329730962683,0.0,-3.299999952316284,23.825000762939453,0.0,0.0,0.0,0.0,0.0,snow covered,0.294896423816681,-7.76833868026733,100.0,411.207763671875
arenacam6_1769615415076176225.png,1769615415076176225,1769615415.0761762,42.2995104012884,-83.69750388687378,234.6228485107422,0.7287340200925371,0.6847740817500623,0.005021139403699455,0.0024439889970630864,-0.0037500000000000003,0.02389,0.004750000000000001,1.3030000000000002,0.0429,-9.4475,0.07295500799237631,0.16319597557846627,1.4399999380111694,1.4499999284744263,1.5,1.25,1.1692932264644982,1.1774133109205749,1.21801383,1.015011525,1.1449329730962683,0.0,-3.299999952316284,23.825000762939453,0.0,0.0,0.0,0.0,0.0,snow covered,0.294896423816681,-7.76833868026733,100.0,411.207763671875
arenacam6_1769615415096783088.png,1769615415096783088,1769615415.0967832,42.29951041669838,-83.69750388919101,234.6223602294922,0.72876236400318,0.6847427745221973,0.005268066241851017,0.002235403813924323,0.0005600000000000002,0.0361,0.00198,1.5997000000000001,0.1887,-9.489700000000001,0.10073387586864237,0.22533563628560088,1.4399999380111694,1.4499999284744263,1.5,1.25,1.1692932264644982,1.1774133109205749,1.21801383,1.015011525,1.1449329730962683,0.0,-3.299999952316284,23.825000762939453,0.0,0.0,0.0,0.0,0.0,snow covered,0.294896423816681,-7.76833868026733,100.0,411.207763671875
arenacam6_1769615415117612977.png,1769615415117612977,1769615415.117613,42.29951043798433,-83.69750388738446,234.62164306640625,0.7287722483661078,0.6847308228191686,0.005546366268423119,0.001986986162232988,-0.0018400000000000003,0.03774,0.00305,2.0796,-0.0286,-9.488900000000001,0.13964915279595855,0.31238677585539154,1.4399999380111694,1.4499999284744263,1.5,1.25,1.1692932264644982,1.1774133109205749,1.21801383,1.015011525,1.1449329730962683,0.0,-3.299999952316284,23.825000762939453,0.0,0.0,0.0,0.0,0.0,snow covered,0.294896423816681,-7.76833868026733,100.0,411.207763671875
arenacam6_1769615415138183177.png,1769615415138183177,1769615415.138183,42.299510473014564,-83.69750388939647,234.62081909179688,0.7287998124496995,0.6846995663278769,0.00585511667119543,0.0017478136247043824,-0.0028500000000000005,0.04216000000000001,0.0035500000000000006,2.3159,0.1366,-9.6259,0.18356947749576805,0.4106339069893834,1.4399999380111694,1.4499999284744263,1.5,1.25,1.1692932264644982,1.1774133109205749,1.21801383,1.015011525,1.1449329730962683,0.0,-3.299999952316284,23.825000762939453,0.0,0.0,0.0,0.0,0.0,snow covered,0.294896423816681,-7.76833868026733,100.0,411.207763671875
arenacam6_1769615415159760565.png,1769615415159760565,1769615415.1597607,42.299510508969654,-83.69750389138618,234.62001037597656,0.7288204364069484,0.6846757934747777,0.006126973271995938,0.001513110634845564,-0.0016300000000000002,0.03171,0.00222,2.3448,-0.0011,-9.8034,0.23067752278087442,0.5160117778094493,1.4399999380111694,1.4499999284744263,1.5,1.25,1.1692932264644982,1.1774133109205749,1.21801383,1.015011525,1.1449329730962683,0.0,-3.299999952316284,23.825000762939453,0.0,0.0,0.0,0.0,0.0,snow covered,0.294896423816681,-7.76833868026733,100.0,411.207763671875
arenacam6_1769615415180363776.png,1769615415180363776,1769615415.180364,42.29951055324089,-83.69750388792279,234.6191864013672,0.7288296666864431,0.6846638757398348,0.006406847940752468,0.0012831656557665732,-0.0034100000000000007,0.03279000000000001,0.0022800000000000003,2.2724,0.0167,-10.080300000000001,0.2738912860027205,0.6126783733109257,1.4399999380111694,1.4499999284744263,1.5,1.25,1.1692932264644982,1.1774133109205749,1.21801383,1.015011525,1.1449329730962683,0.0,-3.299999952316284,23.825000762939453,0.0,0.0,0.0,0.0,0.0,snow covered,0.294896423816681,-7.76833868026733,100.0,411.207763671875
arenacam6_1769615415202062784.png,1769615415202062784,1769615415.2020628,42.29951061161507,-83.6975038871482,234.6185302734375,0.7288234480425074,0.6846674787880109,0.006769403841515514,0.0010001225572446345,-0.0031800000000000005,0.03547,0.004480000000000001,3.2687,-0.306,-10.9367,0.3460196289366678,0.7740251487535897,1.4399999380111694,1.4499999284744263,1.5,1.25,1.1692932264644982,1.1774133109205749,1.21801383,1.015011525,1.1449329730962683,0.0,-3.299999952316284,23.825000762939453,0.0,0.0,0.0,0.0,0.0,snow covered,0.294896423816681,-7.76833868026733,100.0,411.207763671875
arenacam6_1769615415222086830.png,1769615415222086830,1769615415.222087,42.29951067372231,-83.69750388846909,234.6180419921875,0.7288122092742122,0.6846772970697542,0.0069987258098943165,0.0008833612712163823,-0.0067,0.030290000000000004,-0.00262,2.3181000000000003,0.09340000000000001,-10.3123,0.39307663591975167,0.8792888499543293,1.4399999380111694,1.4499999284744263,1.5,1.25,1.1692932264644982,1.1774133109205749,1.21801383,1.015011525,1.1449329730962683,0.0,-3.299999952316284,23.825000762939453,0.0,0.0,0.0,0.0,0.0,snow covered,0.294896423816681,-7.76833868026733,100.0,411.207763671875
arenacam6_1769615415242380059.png,1769615415242380059,1769615415.2423801,42.299510743080226,-83.69750388298516,234.61770629882812,0.7288166914142357,0.6846702560194287,0.007230421925662606,0.0007693094784627492,-0.00783,0.027480000000000004,-0.00016,2.6007000000000002,-0.1582,-10.172600000000001,0.4404967941494169,0.9853648987045966,1.4399999380111694,1.4499999284744263,1.5,1.25,1.1692932264644982,1.1774133109205749,1.21801383,1.015011525,1.1449329730962683,0.0,-3.299999952316284,23.825000762939453,0.0,0.0,0.0,0.0,0.0,snow covered,0.294896423816681,-7.76833868026733,100.0,411.207763671875
arenacam6_1769615415262293129.png,1769615415262293129,1769615415.2622933,42.299510829263895,-83.69750388216222,234.61769104003906,0.7288108340417913,0.684674698098966,0.0074000412911087695,0.0007519011161617492,-0.010530000000000001,0.00969,-0.0008800000000000001,2.6262000000000003,0.0683,-10.302000000000001,0.49440238202126124,1.1059484644386401,1.4399999380111694,1.4499999284744263,1.5,1.25,1.1692932264644982,1.1774133109205749,1.21801383,1.015011525,1.1449329730962683,0.03524984202353045,-3.299999952316284,23.825000762939453,0.0,0.0,0.0,0.0,0.0,snow covered,0.294896423816681,-7.76833868026733,100.0,411.207763671875
arenacam6_1769615415283015538.png,1769615415283015538,1769615415.2830155,42.29951091561983,-83.69750388024804,234.61769104003906,0.7288176147884008,0.6846655492323721,0.0075749701959748495,0.0007680462294062398,-0.014230000000000001,0.011080000000000001,8e-05,2.5306,0.0918,-10.0789,0.5439323478904277,1.2167440262900133,1.4399999380111694,1.4499999284744263,1.5,1.25,1.1692932264644982,1.1774133109205749,1.21801383,1.015011525,1.1449329730962683,0.0590190308250001,-3.299999952316284,23.825000762939453,0.0,0.0,0.0,0.0,0.0,snow covered,0.294896423816681,-7.76833868026733,100.0,411.207763671875
arenacam6_1769615415303669605.png,1769615415303669605,1769615415.3036695,42.29951101239872,-83.69750387448086,234.6178436279297,0.7288148183673492,0.6846667851679682,0.007729524670962437,0.0007799130003585211,-0.011470000000000001,0.011170000000000003,-0.0012900000000000001,2.9725,-0.155,-10.1586,0.5980198961871557,1.3377346265768961,1.4399999380111694,1.4499999284744263,1.5,1.25,1.1692932264644982,1.1774133109205749,1.21801383,1.015011525,1.1449329730962683,0.14412548621394689,-3.299999952316284,23.825000762939453,0.0,0.0,0.0,0.0,0.0,snow covered,0.294896423816681,-7.76833868026733,100.0,411.207763671875
arenacam6_1769615415324629281.png,1769615415324629281,1769615415.3246293,42.29951112702561,-83.6975038731364,234.61822509765625,0.7288280392787748,0.6846510793699863,0.007861723652959757,0.0008842962024488564,-0.016720000000000002,0.0015200000000000003,0.0037300000000000002,2.7299,0.059300000000000005,-9.965200000000001,0.6514664313840735,1.4572913190202894,1.4399999380111694,1.4499999284744263,1.5,1.25,1.1692932264644982,1.1774133109205749,1.21801383,1.015011525,1.1449329730962683,0.21434173239569834,-3.299999952316284,23.825000762939453,0.0,0.0,0.0,0.0,0.0,snow covered,0.294896423816681,-7.76833868026733,100.0,411.207763671875
arenacam6_1769615415345175839.png,1769615415345175839,1769615415.3451757,42.299511241826366,-83.69750387072908,234.6186065673828,0.7288398955500607,0.6846366523014453,0.00800809857740884,0.0009650581439435372,-0.015750000000000004,0.00461,0.00204,2.5745,0.0876,-9.6951,0.7012060446718515,1.5685558495682517,1.4399999380111694,1.4499999284744263,1.5,1.6100000143051147,1.1692932264644982,1.1774133109205749,1.21801383,1.3073348558158853,1.2180138058002394,0.22348075388230498,-3.299999952316284,23.825000762939453,0.0,0.0,0.0,0.0,0.0,snow covered,0.294896423816681,-7.76833868026733,100.0,411.207763671875
arenacam6_1769615415366058092.png,1769615415366058092,1769615415.3660579,42.299511367056766,-83.69750386479954,234.6190185546875,0.7288596224646705,0.6846134838575901,0.008183213052233445,0.0010312541747733435,-0.01755,0.007490000000000002,0.0030300000000000006,2.7549,0.0028,-9.6114,0.7538094285758689,1.6862264631585042,1.75,1.7599999904632568,1.5,1.6100000143051147,1.4210161350000001,1.4291362194560766,1.21801383,1.3073348558158853,1.3438752600679904,0.20302800992059453,-3.6000001430511475,23.975000381469727,0.0,0.0,0.0,0.0,0.0,snow covered,0.294896423816681,-7.76833868026733,100.0,411.207763671875
arenacam6_1769615415386680107.png,1769615415386680107,1769615415.3866801,42.29951165226206,-83.69750385872953,234.6198272705078,0.7288745002222637,0.6845954834000878,0.008347772440591626,0.0011409334885762118,-0.017750000000000002,0.008530000000000001,0.0014000000000000002,2.5567,0.1486,-9.7888,0.8048807211118529,1.8004698802839485,1.75,1.7599999904632568,1.7999999523162842,1.899999976158142,1.4210161350000001,1.4291362194560766,1.4616165572803832,1.5428174986401917,1.4636466025941628,0.1870752081876904,-3.9000000953674316,23.67500114440918,0.0,0.0,0.0,0.0,0.0,snow covered,0.294896423816681,-7.76833868026733,100.0,411.207763671875
arenacam6_1769615415407651579.png,1769615415407651579,1769615415.4076517,42.29951180508962,-83.69750385163091,234.6201171875,0.7288828963081153,0.6845843407802342,0.008515365649650533,0.0012216283551456397,-0.01754,0.009550000000000001,0.0008300000000000001,2.6106000000000003,-0.1373,-9.6978,0.853556722157345,1.9093551740626515,2.0299999713897705,2.0199999809265137,2.049999952316284,1.899999976158142,1.64837869336823,1.6402586089121531,1.664618862280383,1.5428174986401917,1.6240184158002395,0.14944142511489025,-4.400000095367432,23.850000381469727,0.0,0.0,0.0,0.0,0.0,snow covered,0.294896423816681,-7.76833868026733,100.0,411.207763671875
arenacam6_1769615415428289785.png,1769615415428289785,1769615415.42829,42.29951197396416,-83.69750384640466,234.62033081054688,0.7288946590550645,0.6845691692914381,0.0087101010105908,0.0013276283430612161,-0.018890000000000004,0.007710000000000002,0.0013900000000000002,2.5455,0.3376,-9.7134,0.9039841625194271,2.0221583325062076,2.25,2.2300000190734863,2.049999952316284,2.1599998474121094,1.827020745,1.810780576087847,1.664618862280383,1.753939791297226,1.764089993666364,0.12762024352465054,-4.700000286102295,24.0,0.0,0.0,0.0,0.0,0.0,snow covered,0.294896423816681,-7.76833868026733,100.0,411.207763671875
arenacam6_1769615415449467995.png,1769615415449467995,1769615415.449468,42.29951214298414,-83.6975038423517,234.62057495117188,0.7288807233084538,0.6845814955485391,0.008887228578722138,0.0014437139815451755,-0.024590000000000004,0.005790000000000001,-0.004890000000000001,2.5507,-0.3052,-9.8599,0.9523920997750327,2.130443983670762,2.25,2.2300000190734863,2.2799999713897705,2.3899998664855957,1.827020745,1.810780576087847,1.8513809983682301,1.9407019273850727,1.8574710617102874,0.12812959366814292,-5.099999904632568,24.149999618530273,0.0,0.0,0.0,0.0,0.0,snow covered,0.294896423816681,-7.76833868026733,100.0,411.207763671875
arenacam6_1769615415470214237.png,1769615415470214237,1769615415.4702141,42.29951232203987,-83.69750383472275,234.62060546875,0.7289111595731094,0.6845458862521905,0.009136270073078824,0.0014069947192641187,-0.008180000000000002,0.0415,0.006150000000000001,1.9771,0.16490000000000002,-9.0478,0.9833113730953411,2.1996085429318923,2.450000047683716,2.440000057220459,2.7100000381469727,2.5899999141693115,1.989422627719617,1.9813025432635405,2.2005450171756937,2.1031038101046895,2.068593499565885,0.059562890763906265,-5.300000190734863,24.600000381469727,0.0,0.0,0.0,0.0,0.0,snow covered,0.294896423816681,-7.76833868026733,100.0,411.207763671875
arenacam6_1769615415490845178.png,1769615415490845178,1769615415.4908452,42.29951251489386,-83.6975038256679,234.62060546875,0.7288818381462394,0.6845740338708514,0.00934958276556427,0.0014978225728261743,-0.022820000000000003,0.0009700000000000002,-0.0017000000000000001,2.3969,0.8476,-9.9045,1.0395225055646578,2.3253494735978055,2.6399998664855957,2.629999876022339,2.9600000381469727,2.5899999141693115,2.1437042323850726,2.1355841479289963,2.403547322175694,2.1031038101046895,2.1964848781486133,0.055417302608631806,-5.5,25.075000762939453,0.0,0.0,0.0,0.0,0.0,snow covered,0.294896423816681,-7.76833868026733,100.0,411.207763671875
arenacam6_1769615415511866875.png,1769615415511866875,1769615415.5118668,42.29951271007372,-83.69750382356435,234.62063598632812,0.7288749765192064,0.6845789375675096,0.009528426904883588,0.0014683064340303181,-0.018940000000000002,0.00272,-0.0033100000000000004,2.115,-0.44920000000000004,-9.7825,1.1132514099483461,2.490276608969854,2.809999942779541,2.7799999713897705,2.8499999046325684,2.93999981880188,2.28174586173646,2.2573856083682298,2.3142261995607667,2.3873069596654557,2.310166157332728,0.07232548022511914,-5.5,25.625,0.0,0.0,0.0,0.0,0.0,snow covered,0.294896423816681,-7.76833868026733,100.0,411.207763671875
arenacam6_1769615415532205208.png,1769615415532205208,1769615415.5322053,42.29951291259677,-83.69750381075553,234.620849609375,0.7289126955240594,0.6845364159367642,0.009708926633163004,0.001383583727446637,0.00335,0.026380000000000004,0.00483,2.301,0.7591,-9.803600000000001,1.1502465249493445,2.573032461520187,2.990000009536743,2.9600000381469727,2.9700000286102295,2.93999981880188,2.4279075755439234,2.403547322175694,2.41166740663177,2.3873069596654557,2.4076073160042104,0.06429189992350148,-5.599999904632568,25.950000762939453,0.0,0.0,0.0,0.0,0.0,snow covered,0.294896423816681,-7.76833868026733,100.0,411.207763671875
arenacam6_1769615415552301457.png,1769615415552301457,1769615415.5523016,42.299513131573974,-83.69750380284262,234.62123107910156,0.7288960172911577,0.6845540759878581,0.009725197561943372,0.0013166464519692275,-0.0021100000000000003,-0.0013000000000000002,-0.004380000000000001,2.8273,-0.8101,-10.0725,1.2075369222669543,2.701187642895841,3.1399998664855957,3.119999885559082,3.1499998569488525,3.049999952316284,2.549708842385073,2.5334686734729193,2.5578289268411494,2.4766280822803832,2.5294086312448814,0.06359388326936143,-5.599999904632568,26.399999618530273,0.0,0.0,0.0,0.0,0.0,snow covered,0.294896423816681,-7.76833868026733,100.0,411.207763671875
arenacam6_1769615415572986539.png,1769615415572986539,1769615415.5729866,42.299513348750544,-83.6975037932455,234.6216278076172,0.7289738615988447,0.6844696041990965,0.009821259915606595,0.0014187624434016644,-0.010080000000000002,-0.0018100000000000002,0.010910000000000001,1.8204,0.9414,-10.2162,1.2478048943299869,2.791264680322521,3.2699999809265137,3.25,3.299999952316284,3.2100000381469727,2.6552701339121536,2.6390299649999998,2.6796303872803833,2.6065496271756934,2.6451200283420575,0.052357862373544936,-5.5,26.80000114440918,0.0,0.0,0.0,0.0,0.0,snow covered,0.294896423816681,-7.76833868026733,100.0,411.207763671875
arenacam6_1769615415593538694.png,1769615415593538694,1769615415.5935388,42.29951357701563,-83.69750378139565,234.62240600585938,0.7289759250458133,0.6844672096195838,0.0098364294427879,0.0014086571613701588,0.00033000000000000005,-0.007140000000000001,-0.0025700000000000007,2.2997,0.016900000000000002,-10.3794,1.2927815799090951,2.8918748273618515,3.3899998664855957,3.379999876022339,3.4099998474121094,3.3299999237060547,2.7527111473850727,2.7445910629289965,2.7689513162972257,2.703990640648613,2.742561041814977,0.05163217444065095,-5.5,27.075000762939453,0.0,0.0,0.0,0.0,0.0,snow covered,0.294896423816681,-7.76833868026733,100.0,411.207763671875
arenacam6_1769615415613957358.png,1769615415613957358,1769615415.6139574,42.29951382024188,-83.69750377246402,234.62347412109375,0.7290332348426244,0.6844047632934569,0.009920061615590326,0.0015016170180128558,-0.014700000000000003,-0.006740000000000001,0.0082,2.6739,0.1385,-10.827300000000001,1.3411876271081469,3.000156250583298,3.509999990463257,3.5,3.5999999046325684,3.4800000190734863,2.850152354456077,2.8420322700000002,2.9232331145607664,2.825792101087847,2.8603024600261726,0.04661550228590088,-5.5,27.274999618530273,0.0,0.0,0.0,0.0,0.0,snow covered,0.294896423816681,-7.76833868026733,100.0,411.207763671875
arenacam6_1769615415634750061.png,1769615415634750061,1769615415.63475,42.29951406324712,-83.69750376049484,234.62448120117188,0.7290559871026183,0.6843802311434158,0.009925049017325863,0.00160009122095058,-0.008700000000000001,-0.0007800000000000001,-0.0023000000000000004,2.7909,-0.49420000000000003,-10.7306,1.3872670993635376,3.1032332652502723,3.619999885559082,3.609999895095825,3.7099997997283936,3.609999895095825,2.9394732834729194,2.931353199016843,3.0125540435776093,2.931353199016843,2.953683431271054,0.048191618610777386,-5.5,27.80000114440918,0.0,0.0,0.0,0.0,0.0,snow covered,0.294896423816681,-7.76833868026733,100.0,411.207763671875
arenacam6_1769615415655516593.png,1769615415655516593,1769615415.6555166,42.29951431360585,-83.69750374354224,234.62574768066406,0.7291225369181029,0.6843088458493652,0.009943683666224536,0.001689025034008851,-0.0016300000000000002,0.020000000000000004,0.010450000000000001,2.2251000000000003,0.5193,-9.719700000000001,1.4213661422965562,3.1795107783488588,3.7099997997283936,3.7200000286102295,3.8299999237060547,3.8999998569488525,3.0125540435776093,3.0206743216317706,3.109995250648613,3.1668358418411495,3.077514864424786,0.03207912192612226,-5.400000095367432,28.024999618530273,0.0,0.0,0.0,0.0,0.0,snow covered,0.294896423816681,-7.76833868026733,100.0,411.207763671875
arenacam6_1769615415677919658.png,1769615415677919658,1769615415.6779196,42.2995145791982,-83.69750372959065,234.627197265625,0.7291453732384416,0.68428450809733,0.00990581303791752,0.0019004028589972902,-0.010640000000000002,-0.011680000000000003,0.00415,1.7624000000000002,1.3147,-9.456800000000001,1.4672655309485068,3.282184956799953,3.819999933242798,3.8299999237060547,4.019999980926514,3.990000009536743,3.101875166192537,3.109995250648613,3.2642770489121533,3.239916795543923,3.1790160653243067,0.031432991386394445,-5.099999904632568,28.05000114440918,0.0,0.0,0.0,0.0,0.0,snow covered,0.294896423816681,-7.76833868026733,100.0,411.207763671875
arenacam6_1769615415696859623.png,1769615415696859623,1769615415.6968596,42.299514845584156,-83.69750371653299,234.6287384033203,0.7291601304935738,0.6842694494222071,0.009832078655341093,0.0020383609442622096,-0.01175,-0.024600000000000004,-0.00288,2.1772,-0.6517000000000001,-10.2128,1.512646537289572,3.3836995451245357,3.919999837875366,3.9499998092651367,4.059999942779541,4.079999923706055,3.183076010753303,3.2074362641215326,3.29675738673646,3.312997555648613,3.250066804314977,0.03949308708632411,-5.0,28.200000762939453,0.0,0.0,0.0,0.0,0.0,snow covered,0.294896423816681,-7.76833868026733,100.0,411.207763671875
arenacam6_1769615415717722372.png,1769615415717722372,1769615415.7177224,42.29951511877997,-83.69750369543024,234.63034057617188,0.7291840000157916,0.6842439507133075,0.009829561813396873,0.002071170628294349,0.0064600000000000005,0.009240000000000002,0.0041600000000000005,1.9046,0.2938,-9.4909,1.5439690219906055,3.453766064051665,4.019999980926514,4.059999942779541,4.869999885559082,4.199999809265137,3.2642770489121533,3.29675738673646,3.9544848084729196,3.410438569121532,3.4814894533107665,0.008027002624080048,-4.900000095367432,28.149999618530273,0.0,0.0,0.0,0.0,0.0,snow covered,0.294896423816681,-7.76833868026733,100.0,411.207763671875
arenacam6_1769615415738224513.png,1769615415738224513,1769615415.7382247,42.29951540621737,-83.69750367569293,234.63157653808594,0.7291687677781515,0.6842599159167055,0.009863011849985323,0.001999140765956697,0.005830000000000001,0.013670000000000002,0.00015000000000000001,2.7597,1.1431,-8.8481,1.5902235020121058,3.55723456059096,4.269999980926514,4.259999752044678,5.029999732971191,4.309999942779541,3.4672793539121534,3.4591590758579924,4.084406159770146,3.4997596917364597,3.6276510703191875,0.019795295623274617,-5.099999904632568,28.05000114440918,0.0,0.0,0.0,0.0,0.0,snow covered,0.294896423816681,-7.76833868026733,100.0,411.207763671875
arenacam6_1769615415759811191.png,1769615415759811191,1769615415.7598112,42.299515694744834,-83.69750365818233,234.63314819335938,0.7291336848095742,0.684299359944836,0.009728387714858419,0.0019529791523954176,0.008940000000000002,-0.005580000000000001,-0.007440000000000001,2.5913,-0.1633,-10.1991,1.641575750210509,3.6721064586758962,4.380000114440918,4.380000114440918,4.75,4.920000076293945,3.556600476527081,3.556600476527081,3.8570437950000005,3.995085424351387,3.7413325431013873,0.018851872952085624,-5.099999904632568,28.17500114440918,0.0,0.0,0.0,0.0,0.0,snow covered,0.294896423816681,-7.76833868026733,100.0,411.207763671875
arenacam6_1769615415780462337.png,1769615415780462337,1769615415.7804623,42.29951598938307,-83.69750363281403,234.63449096679688,0.7291424213770529,0.6842934751886214,0.009493085337778642,0.0019106264568032475,0.029330000000000002,-0.0022500000000000003,0.0004000000000000001,0.8215,0.1416,-9.4318,1.6648554396829642,3.72418172724441,4.509999752044678,4.480000019073486,5.409999847412109,6.099999904632568,3.6621613808579925,3.637801321087847,4.392969756297226,4.9532561645607665,4.161547155700958,0.11743933580281056,-4.900000095367432,28.25,0.0,0.0,0.0,0.0,0.0,snow covered,0.294896423816681,-7.76833868026733,100.0,411.207763671875
arenacam6_1769615415802873779.png,1769615415802873779,1769615415.8028738,42.29951629468289,-83.69750361420552,234.6355743408203,0.7291573437313684,0.6842776477881276,0.009538442809390323,0.0016391854483971658,0.009340000000000003,0.019810000000000005,0.008440000000000001,2.4032,0.8415,-8.6678,1.7121304899640533,3.8299331782201897,4.639999866485596,4.659999847412109,6.319999694824219,8.470000267028809,3.767722672385073,3.7839628412972264,5.131898022594452,6.877718310229855,4.890325461626651,0.27686965648294604,-4.400000095367432,28.350000381469727,0.0,0.0,0.0,0.0,0.0,snow covered,0.294896423816681,-7.76833868026733,100.0,411.207763671875
arenacam6_1769615415822279972.png,1769615415822279972,1769615415.82228,42.29951660433609,-83.69750359060954,234.63619995117188,0.7291642350809057,0.6842728853650661,0.00934956736454056,0.0016499161011512653,0.00525,-0.012530000000000001,-0.0010000000000000002,1.4948000000000001,-0.5431,-9.9917,1.7524733011135496,3.920177626192944,4.699999809265137,4.679999828338623,7.389999866485596,9.359999656677246,3.8164431791215323,3.8002030102093793,6.0007480273850735,7.600406020418759,5.304450059283686,0.3531147221089237,-3.9000000953674316,28.899999618530273,0.0,0.0,0.0,0.0,0.0,snow covered,0.294896423816681,-7.76833868026733,100.0,411.207763671875
arenacam6_1769615415842418036.png,1769615415842418036,1769615415.842418,42.299516916011925,-83.69750356828023,234.63717651367188,0.72923659158678,0.684194248638624,0.009447992255950645,0.0017201927380509074,-0.012220000000000002,0.016180000000000003,0.010160000000000002,1.0866,0.1143,-9.169400000000001,1.7685412661870623,3.9561206999844876,4.819999694824219,4.789999961853027,9.84000015258789,10.09000015258789,3.9138841925944523,3.889524132824307,7.990170848702774,8.193173153702775,5.996688081956076,0.5158000821308587,-3.5,29.42500114440918,0.0,0.0,0.0,0.0,0.0,snow covered,0.294896423816681,-7.76833868026733,100.0,411.207763671875
arenacam6_1769615415862609485.png,1769615415862609485,1769615415.8626094,42.29951723923296,-83.69750355025174,234.6372833251953,0.7292536844691486,0.6841744420062481,0.00953365454613244,0.001872438144573732,-0.01912,-0.004750000000000001,0.0007300000000000002,1.6165,0.299,-9.021700000000001,1.8018471896722255,4.030624052465388,4.880000114440918,4.849999904632568,11.920000076293945,11.239999771118164,3.962605086527081,3.9382446395607666,9.679149964351387,9.12698344694584,6.676745784346268,0.6565042279897929,-3.4000000953674316,30.149999618530273,0.0,0.0,0.0,0.0,0.0,snow covered,0.294896423816681,-7.76833868026733,100.0,411.207763671875
arenacam6_1769615415883019501.png,1769615415883019501,1769615415.8830194,42.299517563012984,-83.69750353271922,234.63746643066406,0.7292851073866072,0.684138357270154,0.009688859238460672,0.002016497571825163,-0.021710000000000004,0.005090000000000001,0.0036700000000000005,1.3724,0.0175,-9.9148,1.8238155136246659,4.079765875047561,5.009999752044678,5.009999752044678,13.1899995803833,12.489999771118164,4.068165990857993,4.068165990857993,10.710401271067372,10.14199497194584,7.2471820561823,0.7763720463733265,-3.5,30.700000762939453,0.0,0.0,0.0,0.0,0.0,snow covered,0.294896423816681,-7.76833868026733,100.0,411.207763671875
arenacam6_1769615415903995651.png,1769615415903995651,1769615415.9039958,42.29951789108787,-83.69750350942616,234.6380157470703,0.7292785497071546,0.6841426645258456,0.009818318074431941,0.0022830117597080007,-0.026270000000000005,-0.006740000000000001,-0.0027400000000000002,1.4798,0.5048,-10.1796,1.8523297475566285,4.1435505054993245,5.069999694824219,5.089999675750732,13.670000076293945,14.170000076293945,4.116886497594452,4.133126666506605,11.100166099351387,11.506170709351387,7.714087493200958,0.8617095370173028,-3.799999952316284,31.5,0.0,0.0,0.0,0.0,0.0,snow covered,0.294896423816681,-7.76833868026733,100.0,411.207763671875
arenacam6_1769615415924661493.png,1769615415924661493,1769615415.9246614,42.299518227819284,-83.6975034879949,234.6380157470703,0.7292523036918397,0.6841677069571693,0.009977409857675014,0.002465280845201705,-0.024350000000000004,0.0027500000000000003,-0.005170000000000001,1.1154,0.3834,-9.5595,1.873116468553488,4.19004915316604,5.190000057220459,5.069999694824219,13.34000015258789,14.519999504089355,4.214327898263541,4.116886497594452,10.832203118702774,11.790373471715984,7.738447746569188,0.8468632380414786,-4.200000286102295,32.45000076293945,0.0,0.0,0.0,0.0,0.0,snow covered,0.294896423816681,-7.76833868026733,100.0,411.207763671875
arenacam6_1769615415945026569.png,1769615415945026569,1769615415.9450266,42.29951856482927,-83.69750346678784,234.6378936767578,0.7291890329090944,0.6842321927255316,0.010157126057286022,0.002548237305875852,-0.01634,0.00436,-0.010010000000000002,2.2913,0.3635,-10.0305,1.9087112727499633,4.269672594465304,5.289999961853027,5.389999866485596,12.929999351501465,13.899999618530273,4.295528742824307,4.376729587385073,10.499278688013211,11.286927848243065,7.614616216616415,0.7834192313684893,-4.800000190734863,32.525001525878906,0.0,0.0,0.0,0.0,0.0,snow covered,0.294896423816681,-7.76833868026733,100.0,411.207763671875
arenacam6_1769615415965744790.png,1769615415965744790,1769615415.965745,42.29951890800301,-83.6975034393438,234.6383819580078,0.729098720720242,0.6843268157944068,0.010241886096927506,0.0026397723333987607,-0.01139,0.00206,-0.011850000000000001,2.4504,0.1502,-9.6437,1.9542392718238317,4.371515996713603,6.089999675750732,6.159999847412109,13.979999542236328,13.609999656677246,4.9451358865066055,5.001976671297226,11.351888523891677,11.051445205418759,8.087611571778567,0.8500702222887054,-5.599999904632568,32.775001525878906,0.0,0.0,0.0,0.0,0.0,snow covered,0.294896423816681,-7.76833868026733,100.0,411.207763671875
arenacam6_1769615415986782735.png,1769615415986782735,1769615415.9867828,42.29951961843115,-83.69750338944526,234.6381378173828,0.7290567173631683,0.6843699962866271,0.010328671791114446,0.002707321428075245,-0.013540000000000002,0.00222,-0.005420000000000001,1.1794,-0.1421,-9.2977,1.9827326240909366,4.43525391613398,8.34000015258789,7.809999942779541,13.799999237060547,13.139999389648438,6.772157018702774,6.34179196173646,11.20572661648613,10.669800655188904,8.747369063028568,0.972236365365362,-6.0,32.79999923706055,0.0,0.0,0.0,0.0,0.0,snow covered,0.294896423816681,-7.76833868026733,100.0,411.207763671875
arenacam6_1769615416007508293.png,1769615416007508293,1769615416.0075083,42.29951998204674,-83.69750336076368,234.63882446289062,0.7289982929199049,0.6844306379691159,0.010417079040897332,0.0027704139238082758,-0.0034000000000000002,0.0025400000000000006,-0.010160000000000002,2.0096000000000003,0.6858000000000001,-11.1311,2.013943367561179,4.505070476632304,11.130000114440918,9.699999809265137,12.550000190734863,12.84000015258789,9.037662711527082,7.876489279121533,10.190715865878467,10.426198508702774,9.382766591307464,1.0827124991663628,-6.400000095367432,32.60000228881836,0.0,0.0,0.0,0.0,0.0,snow covered,0.294896423816681,-7.76833868026733,100.0,411.207763671875
arenacam6_1769615416028011853.png,1769615416028011853,1769615416.0280118,42.299520357611954,-83.69750333503745,234.6396942138672,0.7289728349806042,0.6844603288915122,0.01020366475255758,0.0029239117088497553,0.0008800000000000001,-0.04236000000000001,-0.00030000000000000003,2.6272,-0.2686,-10.9578,2.070137167143443,4.630772634669854,11.369999885559082,10.65999984741211,11.779999732971191,12.889999389648438,9.23254473847292,8.656018161297226,9.565468394770146,10.466798350188904,9.480207411182299,1.0472193646920824,-7.0,32.70000076293945,0.0,0.0,0.0,0.0,0.0,snow covered,0.294896423816681,-7.76833868026733,100.0,411.207763671875
arenacam6_1769615416048757366.png,1769615416048757366,1769615416.0487573,42.29952073074311,-83.69750330813528,234.6402130126953,0.7290061895543245,0.6844283120842695,0.009916144732623972,0.003087277539164479,0.012980000000000002,-0.02278,0.003110000000000001,0.2898,0.6056,-9.661800000000001,2.0828050132288602,4.659109846292167,12.179999351501465,11.989999771118164,11.34999942779541,12.579999923706055,9.890271773013211,9.73599036194584,9.216304182364599,10.215075925648613,9.764410560743066,1.0957674068392746,-7.200000286102295,32.54999923706055,0.0,0.0,0.0,0.0,0.0,snow covered,0.294896423816681,-7.76833868026733,100.0,411.207763671875
arenacam6_1769615416070190235.png,1769615416070190235,1769615416.0701904,42.29952111137416,-83.6975032789105,234.64158630371094,0.7289920866246801,0.6844449232001593,0.009825137503784075,0.003025130931811244,0.008760000000000002,-0.003940000000000001,-0.0033100000000000004,1.9818,-0.36710000000000004,-9.966700000000001,2.1100727464256117,4.7201061293893085,14.279999732971191,14.420000076293945,10.219999313354492,11.699999809265137,11.595491444770145,11.709173014351387,8.298733670837517,9.500507719121533,10.275976462270146,1.1770647058733954,-7.300000190734863,33.25,0.0,0.0,0.0,0.0,0.0,snow covered,0.294896423816681,-7.76833868026733,100.0,411.207763671875
arenacam6_1769615416092294028.png,1769615416092294028,1769615416.0922942,42.299521503635745,-83.697503254318,234.6426544189453,0.7290732620110889,0.6843608110424878,0.009575488626713766,0.00328160743203463,-0.007750000000000001,-0.029800000000000004,0.00905,1.4126,0.32480000000000003,-10.1669,2.172506963213683,4.859767726291216,15.50999927520752,15.84999942779541,9.460000038146973,11.239999771118164,12.594262413661824,12.870345672364598,7.681607252175693,9.12698344694584,10.568299696286989,1.1746511955937244,-7.300000190734863,33.60000228881836,0.0,0.0,0.0,0.0,0.0,snow covered,0.294896423816681,-7.76833868026733,100.0,411.207763671875
arenacam6_1769615416111990541.png,1769615416111990541,1769615416.1119905,42.29952189430395,-83.69750322945399,234.6435089111328,0.7291074077117359,0.6843239808568354,0.009574037072859103,0.00337861780221029,-0.005580000000000001,-0.0033000000000000004,0.004470000000000001,1.3129,0.0217,-9.5847,2.1939770129396714,4.907794939325269,15.309999465942383,15.239999771118164,9.539999961853027,11.069999694824219,12.431860724540291,12.375020326945839,7.746567927824307,8.988941817594451,10.385597699226222,1.116143365324479,-7.300000190734863,33.400001525878906,0.0,0.0,0.0,0.0,0.0,snow covered,0.294896423816681,-7.76833868026733,100.0,411.207763671875
arenacam6_1769615416132179524.png,1769615416132179524,1769615416.1321795,42.29952229229337,-83.69750320050103,234.64512634277344,0.729166180412746,0.6842590127296944,0.00970967608634889,0.003465116270629414,-0.01846,0.0013400000000000003,0.009320000000000002,2.1259,0.09620000000000001,-9.6034,2.2332614818853918,4.995671939288709,15.339999198913574,14.929999351501465,9.479999542236328,10.59999942779541,12.456220784310437,12.123297128013212,7.697847033891678,8.607297267364597,10.221165553394982,1.0460041567201643,-7.300000190734863,33.25,0.0,0.0,0.0,0.0,0.0,snow covered,0.294896423816681,-7.76833868026733,100.0,411.207763671875
arenacam6_1769615416152141403.png,1769615416152141403,1769615416.1521413,42.2995227007954,-83.69750317382243,234.64622497558594,0.729223276196694,0.6841955650562774,0.009864793745996796,0.003539499206200005,-0.015570000000000002,0.011290000000000001,0.008350000000000002,1.6171,0.5722,-10.236600000000001,2.2635978016863487,5.063532466504261,15.319999694824219,14.739999771118164,9.130000114440918,10.1899995803833,12.439981002594452,11.96901571694584,7.413644271527081,8.274373611067372,10.024253650533687,0.9796957394556188,-7.300000190734863,33.400001525878906,0.0,0.0,0.0,0.0,0.0,snow covered,0.294896423816681,-7.76833868026733,100.0,411.207763671875
arenacam6_1769615416172858713.png,1769615416172858713,1769615416.1728587,42.29952311111526,-83.69750314648358,234.6474151611328,0.7292625759219549,0.6841517112261898,0.01000006520237491,0.0035397855725268434,-0.0060300000000000015,0.009930000000000001,0.007320000000000001,2.0679000000000003,0.8342,-10.2847,2.301329314435255,5.1479355966327995,14.979999542236328,14.170000076293945,9.059999465942383,9.889999389648438,12.16389774389168,11.506170709351387,7.356803099540292,8.030770690188904,9.764410560743066,0.8967623773556618,-7.300000190734863,33.85000228881836,0.0,0.0,0.0,0.0,0.0,snow covered,0.294896423816681,-7.76833868026733,100.0,411.207763671875
arenacam6_1769615416193387415.png,1769615416193387415,1769615416.1933875,42.299523526652,-83.69750311313274,234.64932250976562,0.7293054988520477,0.6841056800618128,0.010032201425916534,0.003501826077990887,0.00027000000000000006,0.007540000000000001,0.00506,1.7754,0.1809,-10.2829,2.336448899121583,5.226496000401034,13.889999389648438,13.1899995803833,8.760000228881836,9.75,11.278807570188903,10.710401271067372,7.113200953054162,7.917089895,9.254874922327609,0.7707609307684296,-7.300000190734863,33.275001525878906,0.0,0.0,0.0,0.0,0.0,snow covered,0.294896423816681,-7.76833868026733,100.0,411.207763671875
arenacam6_1769615416214145292.png,1769615416214145292,1769615416.2141452,42.299523956027805,-83.69750307838598,234.65084838867188,0.7293554506719624,0.6840517598175301,0.01013348518462441,0.003336007142004415,0.00833,0.019000000000000003,0.006900000000000001,2.7782,0.7428,-9.8779,2.3821521573639197,5.328731446893647,13.15999984741211,12.279999732971191,7.960000038146973,9.710000038146973,10.686041211297226,9.971473004770145,6.463593422175694,7.884609557175694,8.75142929885469,0.6423100668652171,-7.200000286102295,33.375,0.0,0.0,0.0,0.0,0.0,snow covered,0.294896423816681,-7.76833868026733,100.0,411.207763671875
arenacam6_1769615416234775851.png,1769615416234775851,1769615416.2347758,42.29952438598628,-83.69750304159734,234.65248107910156,0.7293797245475775,0.6840300442051338,0.009923236776654219,0.0031057069238961585,0.04245000000000001,-0.00011000000000000002,0.0029800000000000004,2.3859,1.2639,-10.2432,2.429481378365063,5.434604074519944,12.969999313354492,11.449999809265137,6.909999847412109,10.029999732971191,10.531759025837516,9.297505414121533,5.610983586297227,8.144452259770146,8.396175071506605,0.5449469651104741,-7.099999904632568,33.42499923706055,0.0,0.0,0.0,0.0,0.0,snow covered,0.294896423816681,-7.76833868026733,100.0,411.207763671875
arenacam6_1769615416255721652.png,1769615416255721652,1769615416.2557218,42.29952482366089,-83.69750299800036,234.65478515625,0.729393438663084,0.6840230873612939,0.009485182726634199,0.0027674718802978334,0.05949000000000001,-0.0108,0.00417,1.4883000000000002,0.7028,-10.6005,2.46429975298364,5.512490689439224,12.380000114440918,11.15999984741211,6.920000076293945,10.979999542236328,10.05267423652708,9.062022771297226,5.619103864351388,8.915860863891679,8.412415434016843,0.5260643342460909,-7.0,33.25,0.0,0.0,0.0,0.0,0.0,snow covered,0.294896423816681,-7.76833868026733,100.0,411.207763671875
arenacam6_1769615416276171618.png,1769615416276171618,1769615416.2761714,42.29952527548576,-83.69750295385649,234.6568603515625,0.7294367992810598,0.6839870498747046,0.008880634523985626,0.002192210927936498,0.08419000000000001,-0.015160000000000003,0.00444,3.0308,-0.2846,-10.3629,2.5097615410161684,5.614185981560708,11.719999313354492,10.510000228881836,6.909999847412109,11.84000015258789,9.516747500837518,8.534217088054161,5.610983586297227,9.614189288702775,8.319034365972922,0.4817881689876406,-6.900000095367432,33.47500228881836,0.0,0.0,0.0,0.0,0.0,snow covered,0.294896423816681,-7.76833868026733,100.0,411.207763671875
arenacam6_1769615416296890980.png,1769615416296890980,1769615416.296891,42.29952572714509,-83.69750290566854,234.6589813232422,0.7294878248364539,0.6839440899095555,0.008070305072980538,0.0016927696825826191,0.10067000000000002,-0.021320000000000006,0.009510000000000001,1.7246000000000001,1.1755,-9.5302,2.549131908134558,5.702255130582518,11.429999351501465,9.550000190734863,7.12999963760376,12.09999942779541,9.28126485801321,7.754688205878468,5.789625444330912,9.825311097364597,8.162722401396797,0.4314902112355902,-6.5,33.20000076293945,0.0,0.0,0.0,0.0,0.0,snow covered,0.294896423816681,-7.76833868026733,100.0,411.207763671875
arenacam6_1769615416317881445.png,1769615416317881445,1769615416.3178813,42.2995261872387,-83.69750286070169,234.6614990234375,0.7294830694435269,0.6839578567705384,0.0073954322786477485,0.001187071402229233,0.06578,-0.017880000000000004,-0.0009200000000000001,1.5924,-1.7139,-9.2566,2.5840498378045793,5.780364444178576,11.59999942779541,8.170000076293945,7.339999675750732,12.40999984741211,9.419306487364599,6.634115389351387,5.960147411506605,10.077034296297228,8.022650896129955,0.3879143734976075,-6.200000286102295,33.20000076293945,0.0,0.0,0.0,0.0,0.0,snow covered,0.294896423816681,-7.76833868026733,100.0,411.207763671875
arenacam6_1769615416338514316.png,1769615416338514316,1769615416.3385143,42.29952666127372,-83.69750281898224,234.6633758544922,0.7295623747344231,0.6838768069393152,0.007088115207371477,0.0010064418327298016,0.030920000000000003,-0.019360000000000002,0.013640000000000003,2.9024,0.1458,-9.8149,2.6318528643576258,5.887296946396148,12.139999389648438,7.149999618530273,7.289999961853027,12.739999771118164,9.857791435188904,5.805865613243065,5.9195471828243065,10.34499727694584,7.982050377050529,0.35580903251986695,-5.900000095367432,33.125,0.0,0.0,0.0,0.0,0.0,snow covered,0.294896423816681,-7.76833868026733,100.0,411.207763671875
arenacam6_1769615416359815141.png,1769615416359815141,1769615416.3598151,42.29952713427987,-83.69750277908211,234.66549682617188,0.7295860163088587,0.6838558804704871,0.006650966968958449,0.0010696685854308463,0.016550000000000002,-0.03712,0.004480000000000001,1.3548,-1.4179000000000002,-10.685,2.667219563013368,5.966410129287124,12.380000114440918,7.329999923706055,7.62999963760376,13.34000015258789,10.05267423652708,5.952027520648613,6.195630054330912,10.832203118702774,8.258133732552345,0.3841042693354102,-5.599999904632568,33.32500076293945,0.0,0.0,0.0,0.0,0.0,snow covered,0.294896423816681,-7.76833868026733,100.0,411.207763671875
arenacam6_1769615416381338737.png,1769615416381338737,1769615416.3813386,42.29952761642347,-83.6975027418475,234.6680450439453,0.7296764664496183,0.6837574804285346,0.006784394028905313,0.0013907786602199027,-0.048290000000000007,-0.00949,0.013080000000000001,2.0028,-0.9848,-9.030100000000001,2.7011746863284274,6.042365702835513,12.979999542236328,7.649999618530273,7.509999752044678,13.539999961853027,10.539879303891679,6.211870223243065,6.098189040857992,10.994604807824306,8.46113584395426,0.40030184534903046,-5.0,33.125,0.0,0.0,0.0,0.0,0.0,snow covered,0.294896423816681,-7.76833868026733,100.0,411.207763671875
arenacam6_1769615416401680932.png,1769615416401680932,1769615416.401681,42.299528112040875,-83.69750270556345,234.6700897216797,0.7297104246029557,0.6837186169688165,0.006820277733498562,0.002243400913975165,-0.030650000000000004,-0.04054000000000001,-0.00289,1.6787,-0.24700000000000003,-10.3674,2.766380484800023,6.188227161668564,14.239999771118164,7.589999675750732,7.609999656677246,14.00999927520752,11.56301110694584,6.163149716506606,6.179389885418758,11.376248583661823,8.820449823133256,0.4253597343305916,-4.5,33.45000076293945,0.0,20.0,0.0,0.0,0.0,snow covered,0.294896423816681,-7.76833868026733,100.0,411.207763671875
arenacam6_1769615416421975158.png,1769615416421975158,1769615416.4219751,42.299528605051094,-83.6975026799697,234.6724853515625,0.7297242386936789,0.6837002350153524,0.006969884515201714,0.00281865441792483,-0.05823000000000001,-0.015070000000000002,0.004810000000000001,1.3872,-0.7253000000000001,-9.5473,2.788230694656693,6.2371047701053435,15.59999942779541,7.589999675750732,8.039999961853027,14.719999313354492,12.667343367364598,6.163149716506606,6.528554097824307,11.952775160837517,9.327955585633257,0.4955585851856244,-4.099999904632568,33.150001525878906,0.0,68.0,0.0,0.0,0.0,snow covered,0.294896423816681,-7.76833868026733,100.0,411.207763671875
arenacam6_1769615416441618372.png,1769615416441618372,1769615416.4416184,42.299529107750864,-83.69750264424655,234.6750030517578,0.7297489855228467,0.6836714457154455,0.007068911924769579,0.003130962460375134,-0.05906000000000001,-0.02832,0.007230000000000001,2.4583,0.258,-9.1328,2.812186074191044,6.290691516800915,15.569999694824219,7.549999713897705,7.710000038146973,15.089999198913574,12.642983307594454,6.130669378682298,6.260591117175694,12.253218479310437,9.32186557069072,0.4818506909445922,-3.700000047683716,33.42499923706055,0.0,140.0,0.0,0.0,0.0,snow covered,0.294896423816681,-7.76833868026733,100.0,411.207763671875
arenacam6_1769615416462462082.png,1769615416462462082,1769615416.4624622,42.299529621275504,-83.69750261165697,234.67681884765625,0.7297169812238713,0.6837019660849276,0.007031960723566329,0.003911574300343857,-0.032400000000000005,-0.02843,-0.0023100000000000004,0.897,-1.0213,-9.1294,2.8571647384358876,6.391306089996775,14.609999656677246,8.15999984741211,8.609999656677246,16.119998931884766,11.863454425418759,6.625995111297226,6.9913991054187585,13.089587759080583,9.642609100303831,0.5087071350558172,-3.4000000953674316,33.35000228881836,0.0,32.0,0.0,0.0,0.0,snow covered,0.294896423816681,-7.76833868026733,100.0,411.207763671875
arenacam6_1769615416483170749.png,1769615416483170749,1769615416.4831707,42.299530132781214,-83.69750258540128,234.67860412597656,0.7297402393829279,0.683671940319581,0.00739006398230716,0.004153071073813943,-0.0408,0.01485,0.004370000000000001,1.5830000000000002,0.9248000000000001,-7.4983,2.8800380510921957,6.442472318010177,13.949999809265137,8.309999465942383,9.09999942779541,16.65999984741211,11.327528464121533,6.747796184540291,7.389283437364598,13.528073481297227,9.74817039183091,0.5131101711651176,-3.1000001430511475,33.42499923706055,0.0,100.0,0.0,0.0,0.0,snow covered,0.294896423816681,-7.76833868026733,100.0,411.207763671875
arenacam6_1769615416503750742.png,1769615416503750742,1769615416.5037506,42.299530651853104,-83.69750255067184,234.6798858642578,0.7296750284855844,0.6837384342757192,0.007651312657347134,0.004190908418107043,-0.015960000000000002,0.015420000000000003,-0.013100000000000002,2.4898000000000002,-0.1403,-7.8523000000000005,2.92580637297757,6.544853307968445,13.34000015258789,8.34000015258789,9.050000190734863,17.09000015258789,10.832203118702774,6.772157018702774,7.348683595878468,13.877237693702774,9.707570356746698,0.48323727056305504,-3.0,33.29999923706055,0.0,172.0,0.0,0.0,0.0,snow covered,0.294896423816681,-7.76833868026733,100.0,411.207763671875
arenacam6_1769615416524595956.png,1769615416524595956,1769615416.524596,42.2995311826335,-83.69750251970173,234.67965698242188,0.729637420629641,0.6837745870615485,0.007972485926449993,0.004241223159182269,-0.032310000000000005,0.029500000000000002,-0.0017000000000000001,1.5977000000000001,-1.1315,-9.4976,2.9590387477574045,6.619192136408449,12.679999351501465,8.130000114440918,8.34000015258789,17.940000534057617,10.29627638301321,6.601635051527081,6.772157018702774,14.56744584045971,9.559378573425693,0.44419113034125934,-3.0,33.17499923706055,0.0,116.0,0.0,0.0,0.0,snow covered,0.294896423816681,-7.76833868026733,100.0,411.207763671875
arenacam6_1769615416545157690.png,1769615416545157690,1769615416.5451577,42.29953171192254,-83.69750248875198,234.67967224121094,0.7296537132454048,0.6837521585633676,0.008390629664435092,0.004247557058143838,-0.02248,0.03662,0.0038900000000000002,1.2959,1.2541,-9.8298,2.9870632406230757,6.681881245479383,12.00999927520752,8.630000114440918,8.15999984741211,19.06999969482422,9.752230143661823,7.00763966152708,6.625995111297226,15.485015577594451,9.717720123520145,0.4543389453523518,-3.1000001430511475,33.400001525878906,0.0,140.0,0.0,0.0,0.0,snow covered,0.294896423816681,-7.76833868026733,100.0,411.207763671875
arenacam6_1769615416565844025.png,1769615416565844025,1769615416.565844,42.29953224885859,-83.69750245586165,234.67979431152344,0.7296027582283173,0.683803347418293,0.00877163771844967,0.003981911212608248,-0.006180000000000001,0.04662000000000001,-0.010690000000000002,2.3663000000000003,-0.37920000000000004,-9.839,3.0265140458557616,6.770130329736587,11.889999389648438,9.420000076293945,8.34000015258789,19.059999465942383,9.654789130188902,7.649126914351387,6.772157018702774,15.476895299540292,9.88824209069584,0.4605689416736195,-3.0,33.22500228881836,0.0,152.0,0.0,0.0,0.0,snow covered,0.294896423816681,-7.76833868026733,100.0,411.207763671875
arenacam6_1769615416586952717.png,1769615416586952717,1769615416.5869527,42.29953334267002,-83.69750238850324,234.67950439453125,0.7296071719188404,0.6837956093744667,0.009065885884031054,0.003840442413454842,-0.006200000000000001,0.03551,0.006580000000000001,1.7101000000000002,0.5526,-10.6492,3.062537495647986,6.850712625514807,11.929999351501465,9.869999885559082,8.639999389648438,18.459999084472656,9.687269468013211,8.014530908472919,7.015759165188904,14.989689457783356,9.926812249864597,0.4490189258403803,-3.0,33.150001525878906,0.0,176.0,0.0,0.0,0.0,snow covered,0.294896423816681,-7.76833868026733,100.0,411.207763671875
arenacam6_1769615416607519575.png,1769615416607519575,1769615416.6075194,42.29953390154495,-83.6975023579872,234.68032836914062,0.7296002467934739,0.6838018790538539,0.009231975886756559,0.003638777617065651,-0.00015000000000000001,0.018760000000000002,-0.004750000000000001,2.8727,-0.6004,-10.8391,3.1126848843270847,6.962889325146629,11.6899995803833,9.789999961853027,8.769999504089355,18.350000381469727,9.49238744106737,7.949570232824307,7.121320456715984,14.900369496756936,9.86591190684115,0.4169278651622668,-3.0,33.17499923706055,0.0,176.0,0.0,0.0,0.0,snow covered,0.294896423816681,-7.76833868026733,100.0,411.207763671875
arenacam6_1769615416628330593.png,1769615416628330593,1769615416.6283305,42.29953447007644,-83.69750232589308,234.6812744140625,0.729592231644734,0.6838076800600563,0.009397004286559067,0.00373209391346556,-0.024990000000000005,0.012660000000000001,0.0017400000000000002,1.6551,-0.111,-10.387,3.1510982204371865,7.04881765322476,12.630000114440918,10.219999313354492,8.510000228881836,17.559999465942383,10.255676541527082,8.298733670837517,6.910198648054161,14.258881469540292,9.930872582489764,0.40887068882346445,-2.9000000953674316,32.900001525878906,0.0,168.0,0.0,0.0,0.0,snow covered,0.294896423816681,-7.76833868026733,100.0,411.207763671875
arenacam6_1769615416648730105.png,1769615416648730105,1769615416.64873,42.29953504044578,-83.69750228999276,234.6824493408203,0.7295850174204686,0.6838118964695482,0.009622054566036877,0.00379587515897738,-0.00935,0.018830000000000003,-0.0037200000000000006,1.1272,2.3228,-10.5518,3.174370433750463,7.1008761980737605,14.25,12.329999923706055,8.65999984741211,15.130000114440918,11.571131385000001,10.012073620648613,7.031999721297225,12.28569959152708,10.225226079618231,0.4399949801113286,-2.9000000953674316,33.150001525878906,0.0,164.0,0.0,0.0,0.0,snow covered,0.294896423816681,-7.76833868026733,100.0,411.207763671875
arenacam6_1769615416670140656.png,1769615416670140656,1769615416.6701407,42.299535619792145,-83.69750225581949,234.68492126464844,0.7294681762206368,0.6839382133804747,0.009536689350150548,0.0037083305544127866,0.008100000000000001,-0.011880000000000002,-0.022140000000000003,3.0001,-1.1204,-12.4292,3.225674336046976,7.215639949276923,16.010000228881836,14.50999927520752,9.019999504089355,13.119999885559082,13.00026779805416,11.782253193661825,7.324322761715985,10.65356087347292,10.690101156726222,0.4815180956745871,-3.0,33.17499923706055,0.0,212.0,0.0,0.0,0.0,snow covered,0.294896423816681,-7.76833868026733,100.0,411.207763671875
arenacam6_1769615416690862869.png,1769615416690862869,1769615416.690863,42.29953621057935,-83.69750221674983,234.6881561279297,0.729468136272438,0.6839383070109218,0.009416388290794692,0.0039952469018798495,-0.014490000000000001,-0.03295,0.007320000000000001,2.1388000000000003,0.7493000000000001,-11.705300000000001,3.272080952119259,7.3194487650336555,16.119998931884766,15.0,9.059999465942383,11.769999504089355,13.089587759080583,12.180138300000001,7.356803099540292,9.557348116715985,10.545969318834215,0.4408146921137338,-3.0,33.35000228881836,0.0,188.0,0.0,0.0,0.0,snow covered,0.294896423816681,-7.76833868026733,100.0,411.207763671875
arenacam6_1769615416712021964.png,1769615416712021964,1769615416.712022,42.29953680287427,-83.69750218049974,234.69155883789062,0.7293666131712417,0.6840514718977438,0.008902834828944935,0.004320522844597193,0.00969,-0.04096,-0.014070000000000003,1.9091,0.7164,-11.1452,3.3254314606466813,7.438790651578988,16.869998931884766,16.079999923706055,9.389999389648438,9.559999465942383,13.698594674080582,13.057108195648613,7.624766080188904,7.762807709540291,10.535819164864597,0.41633494721729003,-3.1000001430511475,33.25,0.0,188.0,0.0,0.0,0.0,snow covered,0.294896423816681,-7.76833868026733,100.0,411.207763671875
arenacam6_1769615416732179352.png,1769615416732179352,1769615416.7321794,42.29953740386528,-83.69750214044974,234.69601440429688,0.7293437286676226,0.6840819640404141,0.008321397944352773,0.004510683326359454,0.023580000000000004,-0.07170000000000001,-0.007850000000000001,1.7574,-1.1296000000000002,-11.75,3.367300224268259,7.532448563674639,17.670000076293945,17.329999923706055,9.4399995803833,9.279999732971191,14.348202979351388,14.072119720648613,7.665366696067372,7.535445344770146,10.90528368520938,0.4477740661649248,-3.4000000953674316,33.17499923706055,0.0,148.0,0.0,0.0,0.0,snow covered,0.294896423816681,-7.76833868026733,100.0,411.207763671875
arenacam6_1769615416752055084.png,1769615416752055084,1769615416.752055,42.2995380142051,-83.69750209722503,234.70068359375,0.7293528664694281,0.6840731033663494,0.008078707414716772,0.004808316760342193,0.00111,-0.03543000000000001,0.0037300000000000002,1.7373,1.9016000000000002,-9.6127,3.399073106559019,7.603522594986132,17.029998779296875,16.469999313354492,9.609999656677246,9.699999809265137,13.828516025377809,13.373791295837517,7.803408325418759,7.876489279121533,10.720551231438906,0.40994533750819456,-3.4000000953674316,33.125,0.0,100.0,0.0,0.0,0.0,snow covered,0.294896423816681,-7.76833868026733,100.0,411.207763671875
arenacam6_1769615416773202530.png,1769615416773202530,1769615416.7732024,42.29953862966138,-83.69750205667825,234.70497131347656,0.7292760400270915,0.6841594777963075,0.007631256034380592,0.004902072543891533,0.017190000000000004,-0.05870000000000001,-0.01811,3.5370000000000004,-1.4003,-9.1826,3.4606381849590355,7.741239981462265,14.84999942779541,14.289999961853027,9.84999942779541,9.550000190734863,12.058336452364598,11.603611722824308,7.998290352364598,7.754688205878468,9.853731683357992,0.27288802658933875,-3.799999952316284,33.29999923706055,0.0,32.0,0.0,0.0,0.0,snow covered,0.294896423816681,-7.76833868026733,100.0,411.207763671875
arenacam6_1769615416793462243.png,1769615416793462243,1769615416.7934623,42.299539250760404,-83.69750201525125,234.70913696289062,0.7292767105357916,0.6841551918468022,0.007684282757839561,0.005301390162823594,-0.05026000000000001,0.004560000000000001,0.009930000000000001,1.5473000000000001,-0.3572,-7.654000000000001,3.4872290077502854,7.800722056596924,13.269999504089355,12.179999351501465,10.569999694824219,9.719999313354492,10.775361946715984,9.890271773013211,8.582937207594453,7.892729060837517,9.285324997040291,0.1903160924940104,-4.0,33.17499923706055,0.0,16.0,0.0,0.0,0.0,snow covered,0.294896423816681,-7.76833868026733,100.0,411.207763671875
arenacam6_1769615416814148840.png,1769615416814148840,1769615416.814149,42.299539883135154,-83.69750197237474,234.71151733398438,0.7292876046148485,0.6841356108237673,0.008054356806491214,0.005760476921321504,-0.04981000000000001,-0.007880000000000002,-0.008140000000000001,2.2196000000000002,1.1911,-6.8361,3.530876083378526,7.89835794595276,12.469999313354492,10.059999465942383,10.899999618530273,9.920000076293945,10.125754415837518,8.168812319540292,8.850900188243065,8.055131524351388,8.800149611993065,0.11417457555242819,-4.200000286102295,33.150001525878906,0.0,8.0,0.0,0.0,0.0,snow covered,0.294896423816681,-7.76833868026733,100.0,411.207763671875
arenacam6_1769615416834797864.png,1769615416834797864,1769615416.8347979,42.29954051491957,-83.69750194083899,234.71449279785156,0.729161550400392,0.6842618595573813,0.008441080152634553,0.00615541539035314,-0.06574,0.00661,-0.00948,0.9351,-2.1833,-8.9513,3.5573108891302905,7.957491020331113,11.34000015258789,9.809999465942383,10.059999465942383,9.9399995803833,9.208184678702773,7.965810014540291,8.168812319540292,8.071371306067372,8.35354457971268,0.049771160076670505,-4.900000095367432,33.025001525878906,0.0,8.0,0.0,0.0,0.0,snow covered,0.294896423816681,-7.76833868026733,100.0,411.207763671875
arenacam6_1769615416855603456.png,1769615416855603456,1769615416.8556035,42.29954115927607,-83.69750190423659,234.7168731689453,0.7292405484899733,0.6841618077853965,0.009272299553847077,0.006698333139289472,-0.1029,0.0018600000000000003,0.023840000000000004,2.1416,0.0426,-10.219800000000001,3.598767090450769,8.050226055312944,9.65999984741211,10.15999984741211,9.979999542236328,10.1899995803833,7.844008941297226,8.250013551297226,8.103851643891678,8.274373611067372,8.118061936888374,0.008426580956774515,-5.400000095367432,33.10000228881836,0.0,36.0,0.0,0.0,0.0,snow covered,0.294896423816681,-7.76833868026733,100.0,411.207763671875
arenacam6_1769615416876260822.png,1769615416876260822,1769615416.8762608,42.299541808904316,-83.69750186533615,234.7185821533203,0.7293010023371587,0.6840891217819345,0.009730057202324593,0.006888209961700127,-0.019370000000000002,0.026170000000000002,-0.0068800000000000016,1.6865,0.8041,-9.4794,3.6247667816581632,8.108385804562412,10.420000076293945,10.529999732971191,10.039999961853027,10.210000038146973,8.461136134351387,8.550456869770146,8.152572537824307,8.290614167175693,8.363694927280385,0.031487046728131296,-5.599999904632568,33.375,0.0,0.0,0.0,0.0,0.0,snow covered,0.294896423816681,-7.76833868026733,100.0,411.207763671875
arenacam6_1769615416896955976.png,1769615416896955976,1769615416.896956,42.29954246103047,-83.69750184236969,234.7203369140625,0.7293486953368927,0.6840343623386416,0.010117467267100638,0.006716294100151105,-0.018070000000000003,0.04721,0.023100000000000006,2.4434,-1.203,-9.3541,3.659433834256195,8.185933921201054,10.539999961853027,11.329999923706055,10.139999389648438,10.40999984741211,8.558577147824307,9.200064400648614,8.233772995188904,8.453015856297226,8.611357599989763,0.05197008464567355,-6.700000286102295,33.400001525878906,0.0,4.0,0.0,0.0,0.0,snow covered,0.294896423816681,-7.76833868026733,100.0,411.207763671875
arenacam6_1769615416919597424.png,1769615416919597424,1769615416.9195974,42.29954312421624,-83.69750180741646,234.7222137451172,0.7296266511347252,0.6837377461375787,0.01014554247598127,0.006686735264555842,0.008230000000000001,-0.0017600000000000003,0.04186000000000001,2.6498,0.44220000000000004,-9.5916,3.718069512406917,8.31709841508353,10.260000228881836,12.25,10.460000038146973,11.289999961853027,8.331214783054161,9.947112945,8.493616472175693,9.167584062824305,8.98488206576354,0.080290459166498,-6.900000095367432,33.5,0.0,4.0,0.0,0.0,0.0,snow covered,0.294896423816681,-7.76833868026733,100.0,411.207763671875
arenacam6_1769615416939216363.png,1769615416939216363,1769615416.9392164,42.29954379456684,-83.69750177255278,234.7237091064453,0.7298692581860425,0.6834864354389683,0.009811560186763466,0.006394670639721816,0.05908000000000001,0.00572,0.036480000000000005,0.4041,0.8723000000000001,-9.1264,3.7377004174347737,8.361011571776544,10.4399995803833,12.149999618530273,10.569999694824219,11.829999923706055,8.477375916067372,9.865911713243065,8.582937207594453,9.606069010648612,9.133073461888376,0.09234072737298996,-7.0,33.60000228881836,0.0,4.0,0.0,0.0,0.0,snow covered,0.294896423816681,-7.76833868026733,100.0,411.207763671875
arenacam6_1769615416959852649.png,1769615416959852649,1769615416.9598525,42.299544471699754,-83.6975017435637,234.72506713867188,0.7301824495943785,0.6831634976177757,0.009388774990787439,0.005751237360140747,0.07281000000000001,-0.0026800000000000005,0.04759000000000001,2.9322000000000004,-0.7093,-8.7573,3.7867829842865897,8.470806328870044,10.6899995803833,11.399999618530273,10.949999809265137,11.9399995803833,8.680378221067372,9.256904798243067,8.891500804121533,9.695389746067372,9.131043392374835,0.07794264652877066,-7.0,33.07500076293945,0.0,32.0,0.0,0.0,0.0,snow covered,0.294896423816681,-7.76833868026733,100.0,411.207763671875
arenacam6_1769615416980516862.png,1769615416980516862,1769615416.980517,42.299545155310604,-83.6975017106409,234.7262725830078,0.730553127844861,0.6827755394153405,0.00898782318995163,0.005376728232576151,0.05041,-0.00117,0.056150000000000005,1.8355000000000001,-0.1963,-7.9054,3.8301347510908723,8.567781630105216,10.899999618530273,11.15999984741211,11.59000015258789,12.479999542236328,8.850900188243065,9.062022771297226,9.411186983702773,10.133874693891677,9.364496159283686,0.09298959328970265,-7.0,33.45000076293945,0.0,32.0,0.0,0.0,0.0,snow covered,0.294896423816681,-7.76833868026733,100.0,411.207763671875
arenacam6_1769615417001668449.png,1769615417001668449,1769615417.0016685,42.299545848986185,-83.69750167753978,234.7259979248047,0.7311346877616323,0.6821609361005138,0.008793817518885083,0.004603735832516905,0.046770000000000006,0.029940000000000005,0.05276000000000001,2.1546000000000003,-0.324,-8.0235,3.8857721748604854,8.692239208832415,11.079999923706055,10.579999923706055,12.429999351501465,12.029999732971191,8.997062095648614,8.591057485648614,10.09327407801321,9.768470699770145,9.362466089770145,0.07710635485695033,-7.0,33.60000228881836,0.0,40.0,0.0,0.0,0.0,snow covered,0.294896423816681,-7.76833868026733,100.0,411.207763671875
arenacam6_1769615417021890855.png,1769615417021890855,1769615417.0218909,42.29954654556367,-83.69750165049965,234.72601318359375,0.7315332973097468,0.681730241393362,0.009130620183361438,0.004420935641356125,-0.03531,0.037270000000000005,0.06182000000000001,2.2908,-0.9565,-9.591000000000001,3.928455625963474,8.787719527942734,10.979999542236328,11.170000076293945,12.859999656677246,10.789999961853027,8.915860863891679,9.070143049351387,10.442438290418758,8.761579452824307,9.297505414121533,0.058011169400412475,-7.0,33.625,0.0,52.0,0.0,0.0,0.0,snow covered,0.294896423816681,-7.76833868026733,100.0,411.207763671875
arenacam6_1769615417041672840.png,1769615417041672840,1769615417.041673,42.29954725252188,-83.69750161769288,234.7255859375,0.7319057678517368,0.6813222981431108,0.009669090705807655,0.004514612195114322,-0.032780000000000004,0.03474000000000001,0.04650000000000001,2.0099,2.1707,-10.477400000000001,3.9533931653221335,8.843503307235693,11.34999942779541,11.300000190734863,12.309999465942383,10.819999694824219,9.216304182364599,9.175704340878468,9.99583306454029,8.785939512594451,9.293445275094452,0.050878249515734324,-7.0,33.150001525878906,0.0,24.0,0.0,0.0,0.0,snow covered,0.294896423816681,-7.76833868026733,100.0,411.207763671875
arenacam6_1769615417062330481.png,1769615417062330481,1769615417.0623305,42.29954797031388,-83.6975015816109,234.72520446777344,0.7321802752365862,0.6810185333251472,0.010226930193702168,0.004605618411829247,-0.06106000000000001,0.026110000000000005,0.037430000000000005,3.5222,-0.9519000000000001,-11.1104,4.032607383107891,9.020700759569365,11.729999542236328,11.389999389648438,11.010000228881836,11.25,9.524867778891679,9.248784520188904,8.940221698054161,9.135103725,9.212244430533685,0.021233790596714562,-7.300000190734863,33.150001525878906,0.0,0.0,0.0,0.0,0.0,snow covered,0.294896423816681,-7.76833868026733,100.0,411.207763671875
arenacam6_1769615417083253973.png,1769615417083253973,1769615417.083254,42.29954869071145,-83.69750155436255,234.7247772216797,0.7324770663633614,0.6806857514708826,0.010911785787137692,0.005018757533438995,-0.06751,0.031740000000000004,0.04488000000000001,1.7563000000000002,2.7815000000000003,-10.431600000000001,4.068644343384936,9.101313277491501,11.539999961853027,11.710000038146973,11.179999351501465,11.460000038146973,9.370586367824306,9.508627997175694,9.07826255301321,9.305625692175694,9.315775652547226,0.0235638933104426,-7.400000095367432,32.900001525878906,0.0,32.0,0.0,0.0,0.0,snow covered,0.294896423816681,-7.76833868026733,100.0,411.207763671875
arenacam6_1769615417104049305.png,1769615417104049305,1769615417.1040494,42.299549423389855,-83.69750151293854,234.7252655029297,0.7326341480004743,0.6805054343514211,0.011434871439604751,0.005366816278055362,-0.07289000000000001,0.00144,0.019650000000000004,2.5494000000000003,0.1935,-10.744,4.121413328042707,9.219354330031853,11.380000114440918,11.789999961853027,11.239999771118164,11.569999694824219,9.240665016527082,9.573588672824306,9.12698344694584,9.394946427594453,9.33404589097292,0.012440302957817905,-7.400000095367432,33.22500228881836,0.0,0.0,0.0,0.0,0.0,snow covered,0.294896423816681,-7.76833868026733,100.0,411.207763671875
arenacam6_1769615417124595685.png,1769615417124595685,1769615417.1245956,42.29955016482992,-83.69750146538645,234.7264404296875,0.732775136686764,0.6803432364499067,0.01181273521504946,0.005842855235245074,-0.04675000000000001,0.00534,0.02025,1.6671,3.0733,-11.594700000000001,4.152614149723094,9.289148696081579,11.670000076293945,12.619999885559082,11.319999694824219,11.769999504089355,9.476147659351389,10.24755626347292,9.191944122594451,9.557348116715985,9.618249040533685,0.035428471996678236,-7.400000095367432,33.20000076293945,0.0,0.0,0.0,0.0,0.0,snow covered,0.294896423816681,-7.76833868026733,100.0,411.207763671875
arenacam6_1769615417145457997.png,1769615417145457997,1769615417.145458,42.299550906597965,-83.69750140781751,234.7277374267578,0.7328209423234129,0.6802982498535947,0.011545325448700211,0.005870536486969262,0.035050000000000005,-0.025380000000000003,0.00136,2.5050000000000003,1.5779,-10.958300000000001,4.2018966310054555,9.399390649761344,11.449999809265137,13.59999942779541,11.609999656677246,11.649999618530273,9.297505414121533,11.043324927364598,9.427426765418758,9.459907103243065,9.807041052536988,0.04336987555528344,-7.400000095367432,33.07500076293945,0.0,0.0,0.0,0.0,0.0,snow covered,0.294896423816681,-7.76833868026733,100.0,411.207763671875
arenacam6_1769615417166094026.png,1769615417166094026,1769615417.166094,42.2995516593804,-83.69750134538812,234.73008728027344,0.7328318626807536,0.6803009545045517,0.010740021024888724,0.005720514700423111,0.07902000000000002,-0.045320000000000006,0.0028300000000000005,1.5642,2.4175,-11.632200000000001,4.233419225850503,9.469904803074025,11.649999618530273,14.1899995803833,11.719999313354492,11.789999961853027,9.459907103243065,11.522410491067372,9.516747500837518,9.573588672824306,10.018163441993066,0.05789484163991498,-7.200000286102295,33.625,0.0,0.0,0.0,0.0,0.0,snow covered,0.294896423816681,-7.76833868026733,100.0,411.207763671875
arenacam6_1769615417186970667.png,1769615417186970667,1769615417.1869707,42.29955318597818,-83.6975011923708,234.7364501953125,0.7328168199901256,0.6803408333779148,0.009416431753594925,0.00521436393378292,0.13921,-0.07820000000000002,-0.008650000000000001,2.8785000000000003,1.0015,-11.0762,4.290983366418764,9.598672331676791,11.769999504089355,13.920000076293945,11.90999984741211,11.630000114440918,9.557348116715985,11.303168404351387,9.671029686297226,9.44366732152708,9.99380338222292,0.04116517752586965,-7.0,33.5,0.0,0.0,0.0,0.0,0.0,snow covered,0.294896423816681,-7.76833868026733,100.0,411.207763671875
arenacam6_1769615417207704362.png,1769615417207704362,1769615417.2077043,42.29955395914904,-83.69750111171604,234.74002075195312,0.7328153245042215,0.6803623762019427,0.008127090431133476,0.00476315250051676,0.10811000000000001,-0.05600000000000001,0.00354,0.9283,-0.8275,-9.7718,4.313053636832539,9.64804220237618,11.880000114440918,13.34999942779541,12.109999656677246,11.960000038146973,9.64666962652708,10.840322622364598,9.833431375418758,9.711630302175694,10.008013481621532,0.03731029277180152,-6.200000286102295,33.5,0.0,0.0,0.0,0.0,0.0,snow covered,0.294896423816681,-7.76833868026733,100.0,411.207763671875
arenacam6_1769615417228301946.png,1769615417228301946,1769615417.2283018,42.29955474360517,-83.69750103576177,234.74253845214844,0.7328690605927962,0.6803162467702544,0.007413689370125457,0.004216825368660428,0.08503000000000001,-0.007040000000000001,0.006970000000000001,2.7922000000000002,-0.16040000000000001,-8.0107,4.350287894326196,9.731333002334042,12.15999984741211,12.269999504089355,12.119999885559082,12.139999389648438,9.874031991297226,9.963352726715986,9.84155165347292,9.857791435188904,9.884181951668758,0.015706887154930956,-5.400000095367432,33.275001525878906,0.0,0.0,0.0,0.0,0.0,snow covered,0.294896423816681,-7.76833868026733,100.0,411.207763671875
arenacam6_1769615417248745884.png,1769615417248745884,1769615417.248746,42.2995555236607,-83.69750096489284,234.74530029296875,0.7329557488812315,0.6802295216563177,0.006870411120867735,0.004057770348401133,0.03212,-0.034080000000000006,0.01847,2.2694,-1.6613,-7.5741000000000005,4.404640653877343,9.852916864284385,12.09999942779541,12.300000190734863,12.269999504089355,12.219999313354492,9.825311097364597,9.987713560878468,9.963352726715986,9.922752110837518,9.924782373949142,0.00729383091876691,-4.900000095367432,33.150001525878906,0.0,0.0,0.0,0.0,0.0,snow covered,0.294896423816681,-7.76833868026733,100.0,411.207763671875
arenacam6_1769615417270172198.png,1769615417270172198,1769615417.270172,42.299556318037354,-83.69750089449808,234.74754333496094,0.7331573368579216,0.6800118240816181,0.0067895344458243,0.004259195064696488,-0.02121,-0.004300000000000001,0.03363000000000001,0.7674000000000001,-0.6545000000000001,-9.5393,4.417828677762105,9.882417682433164,12.25999927520752,12.529999732971191,12.460000038146973,12.179999351501465,9.955232448661823,10.174475309770145,10.117634912175694,9.890271773013211,10.034403610905219,0.015379427722653586,-3.799999952316284,33.42499923706055,0.0,0.0,0.0,0.0,0.0,snow covered,0.294896423816681,-7.76833868026733,100.0,411.207763671875
arenacam6_1769615417292364326.png,1769615417292364326,1769615417.2923644,42.29955711795783,-83.69750083441622,234.74928283691406,0.7333795333101942,0.6797655179498302,0.007245917350628026,0.004560417729633079,-0.047360000000000006,0.012520000000000002,0.024220000000000005,1.7706000000000002,-1.5909,-9.558300000000001,4.462189551362781,9.98165029502546,12.579999923706055,12.65999984741211,12.5,12.550000190734863,10.215075925648613,10.280036601297226,10.15011525,10.190715865878467,10.208985910706076,0.02277535367011533,-3.1000001430511475,32.900001525878906,0.0,0.0,0.0,0.0,0.0,snow covered,0.294896423816681,-7.76833868026733,100.0,411.207763671875
arenacam6_1769615417311887539.png,1769615417311887539,1769615417.3118875,42.29955791920451,-83.6975007729086,234.7513427734375,0.7335828307577417,0.6795372939076761,0.007821321349340014,0.0049115718910898234,-0.06958000000000002,0.016790000000000003,0.029550000000000003,3.0026,-0.6491,-10.1258,4.509934131822764,10.088452056839614,12.670000076293945,12.859999656677246,12.50999927520752,12.489999771118164,10.288156879351387,10.442438290418758,10.158234753661825,10.14199497194584,10.257706223844453,0.016777020503367563,-2.200000047683716,32.95000076293945,0.0,0.0,0.0,0.0,0.0,snow covered,0.294896423816681,-7.76833868026733,100.0,411.207763671875
arenacam6_1769615417332684559.png,1769615417332684559,1769615417.3326845,42.29955873172932,-83.69750071290686,234.7534637451172,0.733747451613345,0.6793526130708656,0.008113383567871101,0.005373767001775932,-0.041960000000000004,-0.00931,0.022940000000000002,1.7115,0.7416,-11.065000000000001,4.551616396682469,10.181692782394883,12.75,12.65999984741211,12.609999656677246,12.739999771118164,10.353117554999999,10.280036601297226,10.23943598541876,10.34499727694584,10.304396854665455,0.012051441238016863,-1.3000000715255737,33.0,0.0,0.0,0.0,0.0,0.0,snow covered,0.294896423816681,-7.76833868026733,100.0,411.207763671875
arenacam6_1769615417352867151.png,1769615417352867151,1769615417.3528671,42.29955955434765,-83.69750065869542,234.75634765625,0.733870031320853,0.6792149437249181,0.008329944373115447,0.005696435431668666,-0.04231,-0.004620000000000001,0.019650000000000004,1.9403000000000001,-1.2539,-10.6678,4.587232943419157,10.26136486045205,12.819999694824219,12.880000114440918,12.719999313354492,12.649999618530273,10.409957952594452,10.458678846527082,10.328756720837516,10.271916323243065,10.367327460800528,0.010326365136558486,-0.5,32.775001525878906,0.0,0.0,0.0,0.0,0.0,snow covered,0.294896423816681,-7.76833868026733,100.0,411.207763671875
arenacam6_1769615417372924040.png,1769615417372924040,1769615417.372924,42.299560379681104,-83.69750059847084,234.75909423828125,0.7340256248372058,0.67904127377007,0.008480770862569799,0.006116136415027871,-0.03585000000000001,-0.027410000000000004,0.023030000000000002,2.4889,0.9273,-10.6065,4.633776282021992,10.365479516306275,12.75,12.75,12.880000114440918,12.989999771118164,10.353117554999999,10.353117554999999,10.458678846527082,10.54799958194584,10.42822838461823,0.006053638735501094,0.4000000059604645,32.75,0.0,0.0,0.0,0.0,0.0,snow covered,0.294896423816681,-7.76833868026733,100.0,411.207763671875
arenacam6_1769615417393550761.png,1769615417393550761,1769615417.3935509,42.29956121437751,-83.69750054057255,234.76226806640625,0.7341009203960757,0.6789619587436313,0.008177736890317767,0.006294590693512154,0.021150000000000002,-0.028590000000000004,0.007760000000000001,1.6132,0.4924,-10.6526,4.668044301504943,10.442135019808468,13.00999927520752,12.889999389648438,12.920000076293945,13.170000076293945,10.564239363661825,10.466798350188904,10.491159184351387,10.694161489351387,10.554089596888376,0.010721425921761514,1.0,32.82500076293945,0.0,0.0,0.0,0.0,0.0,snow covered,0.294896423816681,-7.76833868026733,100.0,411.207763671875
arenacam6_1769615417414048443.png,1769615417414048443,1769615417.4140484,42.29956205911021,-83.69750048356806,234.76593017578125,0.7341785033049603,0.6788792316514873,0.007936472859620205,0.0064750687813296265,-0.005690000000000001,-0.036930000000000004,0.01335,1.994,-0.45580000000000004,-9.7474,4.709549143756294,10.534978861634205,13.00999927520752,12.84000015258789,12.989999771118164,13.149999618530273,10.564239363661825,10.426198508702774,10.54799958194584,10.677920933243065,10.554089596888376,0.0018140269197661435,1.5,33.0,0.0,0.0,0.0,0.0,0.0,snow covered,0.294896423816681,-7.76833868026733,100.0,411.207763671875
arenacam6_1769615417434939781.png,1769615417434939781,1769615417.4349399,42.29956290298544,-83.69750041693818,234.76959228515625,0.7342427385514441,0.6788101322685972,0.0076832849821223004,0.006735899780209672,0.004070000000000001,-0.04305000000000001,0.004880000000000001,1.3338,1.7574,-9.716000000000001,4.741091585245949,10.605537410700075,13.09999942779541,13.00999927520752,13.119999885559082,13.25,10.637320317364598,10.564239363661825,10.65356087347292,10.759122165,10.653560679874836,0.004528131608522728,2.0,33.22500228881836,0.0,0.0,0.0,0.0,0.0,snow covered,0.294896423816681,-7.76833868026733,100.0,411.207763671875
arenacam6_1769615417455617530.png,1769615417455617530,1769615417.4556174,42.29956375778065,-83.69750035544456,234.7730712890625,0.7342351399586624,0.6788208368688325,0.00741165042975188,0.006789559668221784,0.014320000000000003,-0.027660000000000004,-0.0027900000000000004,1.5369000000000002,0.0651,-9.6758,4.770470584828533,10.67125647002634,13.299999237060547,13.34999942779541,13.25999927520752,13.309999465942383,10.799722006486132,10.840322622364598,10.767241668661823,10.80784228454029,10.803782145513212,0.0124189382814586,2.6000001430511475,32.92499923706055,0.0,0.0,0.0,0.0,0.0,snow covered,0.294896423816681,-7.76833868026733,100.0,411.207763671875
arenacam6_1769615417476530130.png,1769615417476530130,1769615417.47653,42.29956462027398,-83.69750028755122,234.77638244628906,0.7341946915741236,0.6788648516147118,0.007347372451847639,0.006832585496488645,-0.0016600000000000002,-0.005140000000000001,-0.00936,2.5233000000000003,0.6651,-9.1991,4.810500787959789,10.760801632618772,13.279999732971191,13.420000076293945,13.380000114440918,13.619999885559082,10.783482224770147,10.897163794351389,10.86468345652708,11.059565483472921,10.901223739780384,0.013049409510157343,3.1000001430511475,32.72500228881836,0.0,0.0,0.0,0.0,0.0,snow covered,0.294896423816681,-7.76833868026733,100.0,411.207763671875
arenacam6_1769615417497174792.png,1769615417497174792,1769615417.4971747,42.29956548234089,-83.69750021754639,234.77964782714844,0.734125990892546,0.6789397932045627,0.007204521337433521,0.006919651124280284,0.007720000000000001,-0.014430000000000002,-0.01093,1.329,0.8542000000000001,-9.0173,4.844406173553392,10.836645945868526,13.389999389648438,13.269999504089355,13.569999694824219,13.279999732971191,10.872802960188904,10.775361946715984,11.018964867594454,10.783482224770147,10.862652999817373,0.0023999172879466692,3.6000001430511475,33.04999923706055,0.0,0.0,0.0,0.0,0.0,snow covered,0.294896423816681,-7.76833868026733,100.0,411.207763671875
arenacam6_1769615417517838371.png,1769615417517838371,1769615417.5178382,42.29956635376546,-83.69750015007934,234.78265380859375,0.7340260780849358,0.6790468049654916,0.007255380280964168,0.006965114097003084,-0.018330000000000003,0.015570000000000002,-0.017490000000000002,1.0210000000000001,-1.3028,-10.2055,4.86122175260513,10.87426138727252,13.569999694824219,13.559999465942383,13.479999542236328,13.719999313354492,11.018964867594454,11.01084458954029,10.945883913891679,11.140765940837518,11.029114827965985,0.014240364028283235,4.099999904632568,32.5,0.0,0.0,0.0,0.0,0.0,snow covered,0.294896423816681,-7.76833868026733,100.0,411.207763671875
arenacam6_1769615417538413382.png,1769615417538413382,1769615417.5384133,42.299567232418624,-83.69750007869274,234.78590393066406,0.7340203555044156,0.6790467297552546,0.007598445631295134,0.007205562979646873,-0.03567000000000001,0.008470000000000002,0.005830000000000001,1.8931,1.8181,-9.674100000000001,4.900371695894772,10.961837461414852,13.639999389648438,13.75,13.619999885559082,13.719999313354492,11.075805265188903,11.165126775000001,11.059565483472921,11.140765940837518,11.110315866124836,0.013545028854206293,4.300000190734863,32.625,0.0,0.0,0.0,0.0,0.0,snow covered,0.294896423816681,-7.76833868026733,100.0,411.207763671875
arenacam6_1769615417560122845.png,1769615417560122845,1769615417.560123,42.29956811033448,-83.6975000057459,234.7889862060547,0.733968206643925,0.6791017223157906,0.00763656725455952,0.007294191126782441,-0.007800000000000001,-0.008650000000000001,-0.01284,1.415,-0.2577,-10.382,4.937672730001967,11.045277636650601,13.75999927520752,14.059999465942383,13.799999237060547,13.829999923706055,11.173246278661823,11.416849199540291,11.20572661648613,11.230087450648613,11.256477386334215,0.019121271246528695,4.300000190734863,32.875,0.0,0.0,0.0,0.0,0.0,snow covered,0.294896423816681,-7.76833868026733,100.0,411.207763671875
arenacam6_1769615417580507638.png,1769615417580507638,1769615417.5805078,42.29956900048743,-83.69749993396361,234.79226684570312,0.7339723127609715,0.6790931911808702,0.007901958588349366,0.007391944437067962,-0.030700000000000005,0.00897,0.0039000000000000007,2.1617,-0.2664,-10.0329,4.971294402704919,11.120487301186742,13.869999885559082,14.09999942779541,13.90999984741211,14.219999313354492,11.26256778847292,11.449329537364598,11.295048126297226,11.546770550837518,11.388429000743066,0.02409442071191705,4.400000095367432,32.79999923706055,0.0,0.0,0.0,0.0,0.0,snow covered,0.294896423816681,-7.76833868026733,100.0,411.207763671875
arenacam6_1769615417601345958.png,1769615417601345958,1769615417.601346,42.299569899276854,-83.69749985472342,234.7954864501953,0.7339918471692166,0.679070966632649,0.00795077092615077,0.007441492283174084,0.00474,-0.004900000000000001,0.00058,2.3096,1.5793000000000001,-9.0261,5.016307468778436,11.221178829209235,14.0,14.380000114440918,14.0,14.149999618530273,11.368129080000001,11.67669267652708,11.368129080000001,11.489930153243066,11.475720247442537,0.022684017615931678,4.400000095367432,32.32500076293945,0.0,0.0,0.0,0.0,0.0,snow covered,0.294896423816681,-7.76833868026733,100.0,411.207763671875
arenacam6_1769615417622638184.png,1769615417622638184,1769615417.622638,42.29957079703624,-83.69749977914122,234.7987823486328,0.7340223826274571,0.6790477469930565,0.007507556280944187,0.006995405939143134,0.044730000000000006,-0.005390000000000001,-0.0016000000000000003,2.4707000000000003,-0.46190000000000003,-9.5154,5.075424114044695,11.353419217671142,14.179999351501465,14.179999351501465,14.09999942779541,14.25,11.51429021301321,11.51429021301321,11.449329537364598,11.571131385000001,11.512260337097754,0.013990597579571594,4.300000190734863,32.57500076293945,0.0,0.0,0.0,0.0,0.0,snow covered,0.294896423816681,-7.76833868026733,100.0,411.207763671875
arenacam6_1769615417642767272.png,1769615417642767272,1769615417.6427674,42.29957170773627,-83.69749969986982,234.80154418945312,0.7341187548721254,0.6789511029402753,0.007107364309723389,0.006673749602208772,0.052770000000000004,-0.00151,0.013930000000000001,1.0976000000000001,0.6108,-9.5388,5.102456234015602,11.413888448118861,14.25999927520752,14.489999771118164,14.269999504089355,14.34999942779541,11.579250888661823,11.76601341194584,11.587371166715984,11.652331842364598,11.646241827422061,0.02035707466034458,4.300000190734863,32.47500228881836,0.0,0.0,0.0,0.0,0.0,snow covered,0.294896423816681,-7.76833868026733,100.0,411.207763671875
arenacam6_1769615417662575362.png,1769615417662575362,1769615417.6625752,42.299572624713505,-83.6974996137627,234.80410766601562,0.7341478786594264,0.6789278440353896,0.006724079362184039,0.0062178460943323475,0.06558000000000001,0.00384,0.0006500000000000001,2.2864,1.4586000000000001,-9.650500000000001,5.141021650399026,11.500156970643596,14.359999656677246,14.539999961853027,14.399999618530273,14.299999237060547,11.66045212041876,11.806614027824308,11.692932458243066,11.61173122648613,11.692932458243066,0.01676285707156577,4.300000190734863,32.95000076293945,0.0,0.0,0.0,0.0,0.0,snow covered,0.294896423816681,-7.76833868026733,100.0,411.207763671875
arenacam6_1769615417683242923.png,1769615417683242923,1769615417.683243,42.29957354616437,-83.69749952706333,234.80667114257812,0.7341544444754846,0.6789304565049926,0.006096133776187144,0.005789994801180824,0.0708,-0.029650000000000003,0.0006100000000000001,1.8472000000000002,0.1678,-10.1889,5.18753066381402,11.604194843112136,14.429999351501465,14.1899995803833,14.380000114440918,14.519999504089355,11.71729251801321,11.522410491067372,11.67669267652708,11.790373471715984,11.676692289330912,0.006247520590522317,4.300000190734863,32.85000228881836,0.0,0.0,0.0,0.0,0.0,snow covered,0.294896423816681,-7.76833868026733,100.0,411.207763671875
arenacam6_1769615417703856337.png,1769615417703856337,1769615417.7038565,42.29957447362023,-83.69749943909818,234.8091583251953,0.734196609466279,0.678891554617435,0.0057149159490290265,0.005379168433676961,0.05078000000000001,0.01736,0.00232,1.1068,0.0287,-9.5426,5.201367425968681,11.635146849846382,14.710000038146973,14.65999984741211,14.609999656677246,14.469999313354492,11.944655657175694,11.904055041297227,11.863454425418759,11.749772855837517,11.8654844949323,0.01979671146900554,4.300000190734863,32.97500228881836,0.0,0.0,0.0,0.0,0.0,snow covered,0.294896423816681,-7.76833868026733,100.0,411.207763671875
arenacam6_1769615417724643716.png,1769615417724643716,1769615417.724644,42.29957540971488,-83.69749934689418,234.81153869628906,0.7341438695755098,0.6789519793658728,0.005556354768520816,0.00511032303740488,0.025000000000000005,0.00036,-0.008570000000000001,3.1231,-0.1311,-9.558900000000001,5.256570041394904,11.758631788397919,14.639999389648438,14.549999237060547,14.619999885559082,14.630000114440918,11.887814485188905,11.81473353148613,11.87157470347292,11.879694981527082,11.863454425418759,0.008914526698953795,4.300000190734863,32.95000076293945,0.0,0.0,0.0,0.0,0.0,snow covered,0.294896423816681,-7.76833868026733,100.0,411.207763671875
arenacam6_1769615417745221174.png,1769615417745221174,1769615417.7452211,42.29957634908741,-83.69749925467642,234.81410217285156,0.7341475553921432,0.6789495002401125,0.005314211022386487,0.005167416825769652,0.00768,-0.01335,0.0013700000000000001,0.8713000000000001,0.2642,-10.0525,5.283718528526805,11.819361325202753,14.769999504089355,14.739999771118164,14.739999771118164,15.00999927520752,11.993375776715984,11.96901571694584,11.96901571694584,12.188257803661823,12.029916253567372,0.017814408289189617,4.300000190734863,32.75,0.0,0.0,0.0,0.0,0.0,snow covered,0.294896423816681,-7.76833868026733,100.0,411.207763671875
arenacam6_1769615417765991791.png,1769615417765991791,1769615417.7659917,42.29957729598682,-83.69749916347075,234.8162384033203,0.7341388116837411,0.6789616360063425,0.005313298232475446,0.004803214867995501,0.03551,0.03521,-0.004900000000000001,1.5737,0.8176,-7.5765,5.306048454293981,11.869312029348379,14.739999771118164,14.789999961853027,14.819999694824219,15.34999942779541,11.96901571694584,12.009616332824306,12.033976392594452,12.464341062364598,12.1192373761823,0.021056430753185085,4.300000190734863,32.5,0.0,0.0,0.0,0.0,0.0,snow covered,0.294896423816681,-7.76833868026733,100.0,411.207763671875
arenacam6_1769615417786649514.png,1769615417786649514,1769615417.7866497,42.29957920391755,-83.6974989738603,234.81895446777344,0.7340660238245256,0.679044404246329,0.005198138123620056,0.004330021737445049,0.039560000000000005,0.015960000000000002,-0.009500000000000001,1.749,-0.5698,-7.4750000000000005,5.3452738070442125,11.957056789929482,14.789999961853027,14.960000038146973,14.929999351501465,15.359999656677246,12.009616332824306,12.147657962175694,12.123297128013212,12.472461340418759,12.188258190857994,0.0193359791619653,4.400000095367432,32.67499923706055,0.0,0.0,0.0,0.0,0.0,snow covered,0.294896423816681,-7.76833868026733,100.0,411.207763671875
arenacam6_1769615417809178436.png,1769615417809178436,1769615417.8091784,42.2995801670742,-83.69749887683822,234.81971740722656,0.7340410907716904,0.6790754020247192,0.005083440602896004,0.003799217723421586,0.05637000000000001,0.03832000000000001,-0.005000000000000001,0.8566,1.2518,-9.7218,5.361904563150382,11.994258793493618,14.960000038146973,15.130000114440918,15.00999927520752,15.029999732971191,12.147657962175694,12.28569959152708,12.188257803661823,12.204498359770147,12.206528429283688,0.017697603448844856,4.5,32.775001525878906,0.0,0.0,0.0,0.0,0.0,snow covered,0.294896423816681,-7.76833868026733,100.0,411.207763671875
arenacam6_1769615417828910928.png,1769615417828910928,1769615417.8289108,42.29958113417406,-83.69749876065752,234.8211669921875,0.7340080655813425,0.6791180738534375,0.004776085144274228,0.0028267362500287423,0.10311000000000002,0.03876,-0.013010000000000002,1.4911,1.1816,-11.685400000000001,5.3910131846885205,12.05937303335714,15.199999809265137,15.239999771118164,15.119999885559082,15.229999542236328,12.342539989121533,12.375020326945839,12.27757931347292,12.36690004889168,12.340509919607992,0.023312728238292852,4.900000095367432,32.900001525878906,0.0,0.0,0.0,0.0,0.0,snow covered,0.294896423816681,-7.76833868026733,100.0,411.207763671875
arenacam6_1769615417850661940.png,1769615417850661940,1769615417.850662,42.29958210292054,-83.69749864905799,234.8219757080078,0.7339360884284495,0.6792032055735813,0.004300240676659104,0.0015269482772056924,0.13308000000000003,0.05953000000000001,-0.011360000000000002,1.869,0.25570000000000004,-9.8727,5.424533754137413,12.134356535980146,15.589999198913574,15.289999961853027,15.299999237060547,15.109999656677246,12.659223089310435,12.415620942824306,12.42374044648613,12.269459035418759,12.442010878509908,0.02535398903250634,5.400000095367432,32.900001525878906,0.0,0.0,0.0,0.0,0.0,snow covered,0.294896423816681,-7.76833868026733,100.0,411.207763671875
arenacam6_1769615417871236439.png,1769615417871236439,1769615417.8712363,42.29958308305786,-83.69749854869121,234.8238067626953,0.7338488047155637,0.6793019754431371,0.003815152015168148,0.0004501018678379596,0.09911000000000002,0.031380000000000005,-0.015590000000000003,2.1343,-1.5445,-10.7287,5.466966069161279,12.229275078749632,15.90999984741211,15.469999313354492,15.329999923706055,15.109999656677246,12.919066566297225,12.561782075837517,12.448101280648613,12.269459035418759,12.549602239550527,0.02619347089162431,6.200000286102295,32.900001525878906,0.0,0.0,0.0,0.0,0.0,snow covered,0.294896423816681,-7.76833868026733,100.0,411.207763671875
arenacam6_1769615417912006738.png,1769615417912006738,1769615417.9120066,42.299585061327306,-83.6974983396113,234.82965087890625,0.7337531138476725,0.6794082559195881,0.003278687118780081,-0.00019979470667118968,-0.007850000000000001,-0.00708,-0.0134,1.8428,-1.8247,-10.1089,5.555057836700916,12.426331077229749,16.510000228881836,15.529999732971191,15.5,15.559999465942383,13.406272408054162,12.610502969770145,12.586142910000001,12.634863029540291,12.80944532934115,0.03083084216333388,7.800000190734863,32.75,0.0,0.0,0.0,0.0,0.0,snow covered,0.294896423816681,-7.76833868026733,100.0,411.207763671875
arenacam6_1769615417932272264.png,1769615417932272264,1769615417.9322724,42.29958606328238,-83.69749825264319,234.83290100097656,0.7336984161436425,0.6794657953016965,0.003574255658317091,0.0003030838700085956,-0.06759000000000001,-0.025740000000000006,-0.00512,2.1803,-0.909,-9.0843,5.60201104763526,12.53136259289722,16.34000015258789,15.420000076293945,15.719999313354492,15.589999198913574,13.268230778702774,12.521182234351388,12.764784380837519,12.659223089310435,12.80335512080053,0.02170494436554529,8.40000057220459,32.650001525878906,0.0,0.0,0.0,0.0,0.0,snow covered,0.294896423816681,-7.76833868026733,100.0,411.207763671875
arenacam6_1769615417952117061.png,1769615417952117061,1769615417.952117,42.299587073427155,-83.69749816232611,234.8362274169922,0.7336616081073019,0.6795037317211126,0.0038046227232764887,0.0009209844863184625,-0.06138000000000001,-0.023450000000000002,-0.01754,1.7317,-1.5356,-10.3338,5.635083762936932,12.605344272664142,16.19999885559082,15.710000038146973,15.679999351501465,15.649999618530273,13.154548434729195,12.756664877175693,12.732304043013212,12.707943983243066,12.837865334540293,0.018446228587377347,8.90000057220459,32.82500076293945,0.0,0.0,0.0,0.0,0.0,snow covered,0.294896423816681,-7.76833868026733,100.0,411.207763671875
arenacam6_1769615417972920240.png,1769615417972920240,1769615417.9729204,42.29958808358711,-83.6974980773096,234.8397979736328,0.7336441633518848,0.6795183301853331,0.004305283201862635,0.0015953239173586945,-0.09077000000000002,0.0064600000000000005,-0.0018000000000000004,1.7888000000000002,-1.0276,-10.699200000000001,5.658794235670132,12.658383177539946,15.829999923706055,16.1299991607666,15.829999923706055,15.84999942779541,12.854105890648613,13.097708037134742,12.854105890648613,12.870345672364598,12.919066372699142,0.020593719711513532,9.199999809265137,32.95000076293945,0.0,0.0,0.0,0.0,0.0,snow covered,0.294896423816681,-7.76833868026733,100.0,411.207763671875
arenacam6_1769615417993619916.png,1769615417993619916,1769615417.99362,42.29958910386264,-83.69749799981297,234.8430938720703,0.7335721575179065,0.6795922954223388,0.004597412503751708,0.002250669987029446,-0.05332000000000001,-0.01846,-0.013590000000000001,1.816,1.1202,-9.3064,5.6981911363188305,12.746511680477045,16.09000015258789,15.880000114440918,15.84999942779541,15.75,13.065228473702776,12.894706506527081,12.870345672364598,12.789145215000001,12.904856466898615,0.012422597679339599,9.40000057220459,33.0,0.0,0.0,0.0,0.0,0.0,snow covered,0.294896423816681,-7.76833868026733,100.0,411.207763671875
arenacam6_1769615418014263455.png,1769615418014263455,1769615418.0142636,42.299590130479714,-83.69749791548777,234.84664916992188,0.7334924638939085,0.6796771095329925,0.0046336644859153895,0.0025221699291381773,-0.020630000000000003,-0.01004,-0.014570000000000001,1.3989,-1.2541,-10.1234,5.72365014926627,12.80346196489969,16.19999885559082,16.049999237060547,15.9399995803833,15.960000038146973,13.154548434729195,13.03274736148613,12.943426626067373,12.959667182175693,13.022597401114597,0.01711532684016719,9.40000057220459,32.900001525878906,0.0,0.0,0.0,0.0,0.0,snow covered,0.294896423816681,-7.76833868026733,100.0,411.207763671875
arenacam6_1769615418034904176.png,1769615418034904176,1769615418.034904,42.29959115893583,-83.69749783077792,234.8502960205078,0.7334587784828462,0.6797119545126562,0.004682220434419736,0.0028206330564845505,-0.025200000000000004,-0.0134,-0.0041600000000000005,1.2585,0.0639,-9.9841,5.751105593445976,12.864878146203042,16.1299991607666,16.020000457763672,16.049999237060547,16.19999885559082,13.097708037134742,13.008388076108323,13.03274736148613,13.154548434729195,13.073347977364598,0.016204570987179118,9.40000057220459,32.75,0.0,0.0,0.0,0.0,0.0,snow covered,0.294896423816681,-7.76833868026733,100.0,411.207763671875
arenacam6_1769615418057444393.png,1769615418057444393,1769615418.0574443,42.299592195380974,-83.69749775534474,234.85365295410156,0.7333619089490903,0.6798169763828776,0.004606437021904463,0.0028230944283640343,0.017200000000000003,-0.00131,-0.020830000000000005,1.5117,0.9390000000000001,-9.0059,5.780700427410876,12.931080014092485,16.260000228881836,16.1299991607666,16.049999237060547,16.06999969482422,13.203270103054162,13.097708037134742,13.03274736148613,13.048987917594452,13.095678354817371,0.012728893529813797,9.40000057220459,32.82500076293945,0.0,0.0,0.0,0.0,0.0,snow covered,0.294896423816681,-7.76833868026733,100.0,411.207763671875
arenacam6_1769615418076687574.png,1769615418076687574,1769615418.0766876,42.29959323485267,-83.69749766784754,234.85736083984375,0.7332548214989607,0.6799347620887589,0.00436984835581626,0.002643951054260088,0.028930000000000004,-0.0023600000000000006,-0.019500000000000003,0.9907,-0.3053,-10.1188,5.804004169693412,12.983209087353982,16.53999900817871,16.219999313354492,16.190000534057617,16.28999900817871,13.43063169343197,13.170788990837517,13.14642970545971,13.22762938843197,13.243869944540291,0.020076766493747705,9.300000190734863,32.54999923706055,0.0,0.0,0.0,0.0,0.0,snow covered,0.294896423816681,-7.76833868026733,100.0,411.207763671875
arenacam6_1769615418097853379.png,1769615418097853379,1769615418.0978534,42.299594276301214,-83.69749758130654,234.8611602783203,0.7331474859170131,0.6800502758207597,0.0044230949709885194,0.0026119878539853252,-0.011500000000000002,0.0012700000000000003,-0.0216,1.8923,-0.025400000000000002,-10.401100000000001,5.836374781018889,13.055620202652394,16.600000381469727,16.31999969482422,16.219999313354492,16.350000381469727,13.479353361756935,13.251990222594452,13.170788990837517,13.276351056756935,13.29462090798646,0.01830634635691302,9.199999809265137,32.900001525878906,0.0,0.0,0.0,0.0,0.0,snow covered,0.294896423816681,-7.76833868026733,100.0,411.207763671875
arenacam6_1769615418118162742.png,1769615418118162742,1769615418.1181626,42.29959532723462,-83.69749750425325,234.86473083496094,0.7330118259762143,0.6801964994108427,0.0044277794990028405,0.0026038312080508314,0.00302,0.005110000000000001,-0.02213,1.5743,0.2705,-9.4838,5.866474654011668,13.122951812544862,16.739999771118164,16.43000030517578,16.43000030517578,16.59000015258789,13.593034156945839,13.341311732405547,13.341311732405547,13.471233083702774,13.436722676364926,0.02391008275440862,9.100000381469727,32.900001525878906,0.0,0.0,0.0,0.0,0.0,snow covered,0.294896423816681,-7.76833868026733,100.0,411.207763671875
arenacam6_1769615418138731604.png,1769615418138731604,1769615418.1387315,42.29959638321124,-83.69749741660522,234.8682403564453,0.7328742705601604,0.6803434057812145,0.004603905976500263,0.002637766231068176,-0.021890000000000003,0.017750000000000002,-0.021880000000000004,1.4237,0.0205,-8.466800000000001,5.894498366053067,13.18563917495875,16.84000015258789,16.5,16.510000228881836,16.719999313354492,13.674235388702774,13.39815213,13.406272408054162,13.576793600837517,13.513863381898615,0.024892551857721504,9.0,32.5,0.0,0.0,0.0,0.0,0.0,snow covered,0.294896423816681,-7.76833868026733,100.0,411.207763671875
arenacam6_1769615418159197241.png,1769615418159197241,1769615418.159197,42.299597440955836,-83.69749732759067,234.8717803955078,0.732716683326952,0.6805100220934155,0.004934440508481195,0.002832508012121311,-0.04142000000000001,0.01043,-0.029820000000000006,1.6058000000000001,-0.1369,-8.643600000000001,5.927920220550734,13.26040185815876,16.84000015258789,16.619998931884766,16.65999984741211,16.68000030517578,13.674235388702774,13.495592369080581,13.528073481297227,13.544314037405549,13.560553819121532,0.022635208508262276,9.0,32.72500228881836,0.0,0.0,0.0,0.0,0.0,snow covered,0.294896423816681,-7.76833868026733,100.0,411.207763671875
arenacam6_1769615418180075044.png,1769615418180075044,1769615418.180075,42.29959850833902,-83.69749725042703,234.8745880126953,0.7325338412693853,0.6807025234827333,0.00534978527154868,0.0031025339492832984,-0.048560000000000006,0.015100000000000002,-0.02477,1.3090000000000002,0.1236,-9.6043,5.954788940388741,13.320505572313191,16.8799991607666,16.729999542236328,16.600000381469727,16.84000015258789,13.706714952134744,13.58491387889168,13.479353361756935,13.674235388702774,13.611304395371533,0.021830914861277518,8.800000190734863,32.625,0.0,0.0,0.0,0.0,0.0,snow covered,0.294896423816681,-7.76833868026733,100.0,411.207763671875
arenacam6_1769615418201822010.png,1769615418201822010,1769615418.201822,42.299599580679285,-83.69749715820976,234.87744140625,0.732252455509878,0.6810009573614053,0.005806543026107455,0.0032127139134357306,-0.0036300000000000004,0.013660000000000002,-0.030270000000000005,1.6714,1.006,-9.488100000000001,6.001934545062511,13.425967461232135,16.979999542236328,16.8799991607666,16.770000457763672,16.78999900817871,13.78791618389168,13.706714952134744,13.617394991108322,13.63363399843197,13.686415031391679,0.019398793488185746,8.5,32.60000228881836,0.0,0.0,0.0,0.0,0.0,snow covered,0.294896423816681,-7.76833868026733,100.0,411.207763671875
arenacam6_1769615418222716936.png,1769615418222716936,1769615418.222717,42.29960065421663,-83.69749706954335,234.88011169433594,0.7320489823384727,0.6812192531526264,0.005881647325487684,0.0031658831506196127,-0.006150000000000001,0.004110000000000001,-0.03431000000000001,1.2913000000000001,-1.0507,-10.2673,6.032569297712008,13.494495564823898,17.100000381469727,17.020000457763672,16.809999465942383,16.940000534057617,13.885357971756937,13.820397296108322,13.649874554540292,13.75543662045971,13.777766610716315,0.020991599465994028,8.199999809265137,32.54999923706055,0.0,0.0,0.0,0.0,0.0,snow covered,0.294896423816681,-7.76833868026733,100.0,411.207763671875
arenacam6_1769615418242715035.png,1769615418242715035,1769615418.2427151,42.29960173665152,-83.6974969862495,234.88282775878906,0.7319448702928127,0.6813305869403832,0.006004516542475579,0.0030469546438321657,0.009910000000000002,0.019520000000000003,-0.01597,1.8356000000000001,1.4516,-10.4505,6.058185842429409,13.551798238364043,17.139999389648438,16.85999870300293,16.959999084472656,17.029998779296875,13.917837535188903,13.690474396026422,13.771675627783356,13.828516025377809,13.802125896094122,0.018471914452018737,7.700000286102295,32.22500228881836,0.0,0.0,0.0,0.0,0.0,snow covered,0.294896423816681,-7.76833868026733,100.0,411.207763671875
arenacam6_1769615418262654179.png,1769615418262654179,1769615418.2626543,42.299602825574034,-83.69749688814794,234.88589477539062,0.7317770399045056,0.6815147166520307,0.005744980365777824,0.0026551941358544644,0.05430000000000001,0.013580000000000002,-0.027330000000000004,1.6503,0.12350000000000001,-9.3048,6.094449208636549,13.632917212767442,17.3799991607666,17.09000015258789,17.029998779296875,16.989999771118164,14.112719562134744,13.877237693702774,13.828516025377809,13.796036461945839,13.903627435790291,0.019857101660481363,7.200000286102295,32.29999923706055,0.0,0.0,0.0,0.0,0.0,snow covered,0.294896423816681,-7.76833868026733,100.0,411.207763671875
arenacam6_1769615418283227826.png,1769615418283227826,1769615418.283228,42.29960391368941,-83.69749679764075,234.88880920410156,0.7316789208634186,0.6816226675882442,0.005617371885500645,0.0022228196349162975,0.033800000000000004,0.027510000000000003,-0.01755,1.6728,-0.538,-9.5914,6.121182685588125,13.692718396699501,17.3799991607666,17.06999969482422,17.06999969482422,17.149999618530273,14.112719562134744,13.860997137594453,13.860997137594453,13.925957813243066,13.940167912641678,0.018071613595867335,6.599999904632568,32.400001525878906,0.0,0.0,0.0,0.0,0.0,snow covered,0.294896423816681,-7.76833868026733,100.0,411.207763671875
arenacam6_1769615418303877601.png,1769615418303877601,1769615418.3038776,42.29960501501991,-83.69749670946172,234.8916015625,0.7315952828553983,0.6817155238661443,0.005302031356368939,0.0020433029962459905,0.03978,-0.021730000000000003,-0.01086,1.6696,1.6581000000000001,-11.1966,6.1622649940898455,13.78461705587934,17.34000015258789,17.239999771118164,16.989999771118164,17.18000030517578,14.080239998702774,13.999038766945839,13.796036461945839,13.950318647405549,13.956408468750002,0.012462545181651692,5.900000095367432,32.47500228881836,0.0,0.0,0.0,0.0,0.0,snow covered,0.294896423816681,-7.76833868026733,100.0,411.207763671875
arenacam6_1769615418324698394.png,1769615418324698394,1769615418.3246984,42.29960611915388,-83.69749660764128,234.89544677734375,0.7314585568857452,0.6818675151964572,0.004780594724053183,0.0014890240147753103,0.08399000000000002,-0.00131,-0.028200000000000003,1.7328000000000001,0.9829,-10.9793,6.186557182272862,13.838957223313457,17.510000228881836,17.190000534057617,17.079999923706055,17.369998931884766,14.21828162805416,13.95843892545971,13.869117415648613,14.104599284080582,14.037609313310767,0.014354556256786152,5.200000286102295,32.25,0.0,0.0,0.0,0.0,0.0,snow covered,0.294896423816681,-7.76833868026733,100.0,411.207763671875
