image_filename,timestamp_ns,timestamp_sec,latitude,longitude,altitude,orientation_x,orientation_y,orientation_z,orientation_w,angular_velocity_x,angular_velocity_y,angular_velocity_z,linear_acceleration_x,linear_acceleration_y,linear_acceleration_z,vehicle_speed_mps,vehicle_speed_mph,wheel_speed_fl_rads,wheel_speed_fr_rads,wheel_speed_rl_rads,wheel_speed_rr_rads,wheel_speed_fl_mph,wheel_speed_fr_mph,wheel_speed_rl_mph,wheel_speed_rr_mph,avg_wheel_speed_mph,wheel_slip,steering_angle_deg,throttle_pedal,brake_pedal,brake_torque_actual,abs_active,esc_active,trac_active,marwis_road_condition,marwis_friction,marwis_surface_temp_c,marwis_ice_percent,marwis_water_film_height
arenacam6_1769712315414867828.png,1769712315414867828,1769712315.4148676,42.3010859123315,-83.69745231622375,239.0655975341797,0.7115543623649664,0.7024695200924438,0.008877910667541965,0.012171501249101815,0.00103,-0.00011000000000000002,-0.0026600000000000005,0.0304,0.2983,-9.8388,-0.01482181762236725,0.0331555167121782,2.869999885559082,2.819999933242798,2.990000009536743,2.7799999713897705,2.3304663684729197,2.2898659461925366,2.4279075755439234,2.2573856083682298,2.326406374644402,0.0,0.5,32.0,0.0,0.0,0.0,0.0,0.0,,,,,
arenacam6_1769712315435502864.png,1769712315435502864,1769712315.4355028,42.3010859123315,-83.69745231622375,239.0655975341797,0.7115421173730302,0.7024819539604792,0.00887955595190982,0.012168527037774698,0.00023000000000000003,0.0007000000000000001,-0.0035200000000000006,0.041600000000000005,0.27790000000000004,-9.798200000000001,-0.013923973724770543,0.031147093783888222,2.869999885559082,2.819999933242798,2.990000009536743,2.7799999713897705,2.3304663684729197,2.2898659461925366,2.4279075755439234,2.2573856083682298,2.326406374644402,0.0,0.5,32.0,0.0,0.0,0.0,0.0,0.0,,,,,
arenacam6_1769712315456739231.png,1769712315456739231,1769712315.4567394,42.30108590982961,-83.69745231665297,239.06558227539062,0.7115309194649594,0.702493262107359,0.008885776345578949,0.012165949114114952,-0.0004300000000000001,0.00136,-0.0032500000000000007,0.055200000000000006,0.2808,-9.808900000000001,-0.01292573988664673,0.028914104582035537,2.869999885559082,2.819999933242798,2.990000009536743,2.7799999713897705,2.3304663684729197,2.2898659461925366,2.4279075755439234,2.2573856083682298,2.326406374644402,0.0,0.5,32.0,0.0,0.0,0.0,0.0,0.0,,,,,
arenacam6_1769712315475229434.png,1769712315475229434,1769712315.4752295,42.30108590982961,-83.69745231665297,239.06558227539062,0.7115182082948497,0.7025061371837057,0.00888066765345421,0.012169643632594788,0.00041000000000000005,-0.00103,-0.0019300000000000003,0.0437,0.251,-9.81,-0.011927574767314757,0.026681269099997074,2.869999885559082,2.819999933242798,2.990000009536743,2.7799999713897705,2.3304663684729197,2.2898659461925366,2.4279075755439234,2.2573856083682298,2.326406374644402,0.0,0.5,32.0,0.0,0.0,0.0,0.0,0.0,,,,,
arenacam6_1769712315497642508.png,1769712315497642508,1769712315.4976425,42.30108590982961,-83.69745231665297,239.06558227539062,0.7115149441163678,0.7025093531044186,0.008879623390719918,0.012175606281895247,-0.0006300000000000001,-0.00096,-0.00096,0.0356,0.2278,-9.801300000000001,-0.011133183167884721,0.02490426275556805,2.869999885559082,2.819999933242798,2.990000009536743,2.7799999713897705,2.3304663684729197,2.2898659461925366,2.4279075755439234,2.2573856083682298,2.326406374644402,0.0,0.5,32.0,0.0,0.0,0.0,0.0,0.0,,,,,
arenacam6_1769712315517301667.png,1769712315517301667,1769712315.5173018,42.30108590982961,-83.69745231665297,239.06558227539062,0.7115106861420576,0.7025135462909573,0.008885690419462657,0.01217806590271736,-0.0015200000000000003,2e-05,-0.0011300000000000001,0.029500000000000002,0.2396,-9.7947,-0.008753372439618727,0.019580768945080717,2.869999885559082,2.819999933242798,2.990000009536743,2.7799999713897705,2.3304663684729197,2.2898659461925366,2.4279075755439234,2.2573856083682298,2.326406374644402,0.0,0.5,32.0,0.0,0.0,0.0,0.0,0.0,,,,,
arenacam6_1769712315580270537.png,1769712315580270537,1769712315.5802705,42.3010859081789,-83.69745231548725,239.0657501220703,0.711526310543648,0.7024978380051993,0.008889728237333574,0.012168390774104042,0.00010000000000000002,0.0006300000000000001,0.00205,0.030600000000000002,0.2624,-9.8178,-0.0046813788112226905,0.010471963517976485,2.869999885559082,2.819999933242798,2.990000009536743,2.7799999713897705,2.3304663684729197,2.2898659461925366,2.4279075755439234,2.2573856083682298,2.326406374644402,0.0,0.5,32.0,0.0,0.0,0.0,0.0,0.0,,,,,
arenacam6_1769712315599316345.png,1769712315599316345,1769712315.5993161,42.3010859081789,-83.69745231548725,239.0657501220703,0.7115352360091829,0.7024887903882874,0.008901650286712224,0.012160095325716743,-0.0004900000000000001,0.0014900000000000002,0.0018900000000000002,0.0538,0.2889,-9.8141,-0.0030833941004674305,0.006897367599099614,2.869999885559082,2.819999933242798,2.990000009536743,2.7799999713897705,2.3304663684729197,2.2898659461925366,2.4279075755439234,2.2573856083682298,2.326406374644402,0.0,0.5,32.0,0.0,0.0,0.0,0.0,0.0,,,,,
arenacam6_1769712315619878752.png,1769712315619878752,1769712315.6198788,42.3010859027104,-83.69745231620988,239.06637573242188,0.7115507939271486,0.7024732120794707,0.008895411740479626,0.012154242977771058,0.0015500000000000002,0.0004900000000000001,0.00206,-0.012,0.3206,-9.8123,-0.0018812349421505326,0.004208209691494213,2.869999885559082,2.819999933242798,2.990000009536743,2.7799999713897705,2.3304663684729197,2.2898659461925366,2.4279075755439234,2.2573856083682298,2.326406374644402,0.0,0.5,32.0,0.0,0.0,0.0,0.0,0.0,,,,,
arenacam6_1769712315640923720.png,1769712315640923720,1769712315.6409237,42.30108590395722,-83.69745231561134,239.06649780273438,0.7115625418890098,0.7024614793519637,0.00889456361566006,0.012145194324870077,-0.00024,0.00111,0.0018700000000000004,0.0339,0.3352,-9.7887,-0.0006716240185439103,0.0015023826320416148,2.869999885559082,2.819999933242798,2.990000009536743,2.7799999713897705,2.3304663684729197,2.2898659461925366,2.4279075755439234,2.2573856083682298,2.326406374644402,0.0,0.5,32.0,0.0,0.0,0.0,0.0,0.0,,,,,
arenacam6_1769712315724448982.png,1769712315724448982,1769712315.724449,42.301085912428405,-83.6974523146365,239.0668182373047,0.7115609173713379,0.7024630598248627,0.008910199037730512,0.012137495798531926,-0.00101,0.0005200000000000001,-0.0014200000000000003,0.0824,0.2978,-9.8054,0.008468588731407739,0.018943724876835228,2.869999885559082,2.819999933242798,2.990000009536743,2.7799999713897705,2.3304663684729197,2.2898659461925366,2.4279075755439234,2.2573856083682298,2.326406374644402,0.0,0.5,32.0,0.0,0.0,0.0,0.0,0.0,,,,,
arenacam6_1769712315744322887.png,1769712315744322887,1769712315.7443228,42.301085912428405,-83.6974523146365,239.0668182373047,0.7115614314064002,0.7024626715267142,0.008912729315124105,0.012127971907192588,0.0010400000000000001,0.0017300000000000002,4e-05,0.08750000000000001,0.2848,-9.7767,0.009768046932715522,0.02185053490566866,2.869999885559082,2.819999933242798,2.990000009536743,2.7799999713897705,2.3304663684729197,2.2898659461925366,2.4279075755439234,2.2573856083682298,2.326406374644402,0.0,0.5,32.0,0.0,0.0,0.0,0.0,0.0,,,,,
arenacam6_1769712315765582145.png,1769712315765582145,1769712315.765582,42.30108591564977,-83.69745231353426,239.06690979003906,0.7115489999595185,0.7024752190040109,0.008905465248617368,0.01213589842499255,0.0008900000000000001,-0.0007600000000000002,-0.0018100000000000002,0.033800000000000004,0.29610000000000003,-9.8131,0.011866188807123177,0.02654395239020612,2.869999885559082,2.819999933242798,2.990000009536743,2.7799999713897705,2.3304663684729197,2.2898659461925366,2.4279075755439234,2.2573856083682298,2.326406374644402,0.0,0.5,32.0,0.0,0.0,0.0,0.0,0.0,,,,,
arenacam6_1769712315785452493.png,1769712315785452493,1769712315.7854526,42.301085918041835,-83.69745231416843,239.06692504882812,0.7115457227576719,0.7024787437771625,0.008908089397502024,0.012122083558868724,0.0016200000000000001,0.0023800000000000006,-0.0007400000000000001,0.08990000000000001,0.26880000000000004,-9.7932,0.014261265281549338,0.031901594758908976,2.869999885559082,2.819999933242798,2.990000009536743,2.7799999713897705,2.3304663684729197,2.2898659461925366,2.4279075755439234,2.2573856083682298,2.326406374644402,0.0,0.5,32.0,0.0,0.0,0.0,0.0,0.0,,,,,
arenacam6_1769712315808687817.png,1769712315808687817,1769712315.808688,42.30108592256654,-83.6974523132733,239.0670166015625,0.711541108599824,0.702483405057935,0.008905321844035521,0.01212483540492589,0.0007300000000000002,8e-05,-0.00109,0.1062,0.2721,-9.8065,0.017355860804619223,0.03882401926828492,2.869999885559082,2.819999933242798,2.990000009536743,2.7799999713897705,2.3304663684729197,2.2898659461925366,2.4279075755439234,2.2573856083682298,2.326406374644402,0.0,0.5,32.0,0.0,0.0,0.0,0.0,0.0,,,,,
arenacam6_1769712315827445422.png,1769712315827445422,1769712315.8274455,42.301085926947955,-83.69745231241437,239.06710815429688,0.7115347038100777,0.702490449052717,0.00891097990145848,0.01208837047797384,0.0028000000000000004,0.0029700000000000004,-0.00036,0.117,0.2451,-9.7758,0.020844505807204868,0.04662790882036886,2.869999885559082,2.819999933242798,2.990000009536743,2.7799999713897705,2.3304663684729197,2.2898659461925366,2.4279075755439234,2.2573856083682298,2.326406374644402,0.0,0.5,32.0,0.0,0.0,0.0,0.0,0.0,,,,,
arenacam6_1769712315850160519.png,1769712315850160519,1769712315.8501606,42.30108593723187,-83.69745231298013,239.06715393066406,0.7115363789231628,0.7024889658035313,0.008915653737405174,0.012072510577056215,0.0016600000000000002,0.0028500000000000005,0.00042000000000000007,0.1758,0.23570000000000002,-9.7544,0.02844067863059671,0.06362009165592701,2.869999885559082,2.819999933242798,2.990000009536743,2.7799999713897705,2.3304663684729197,2.2898659461925366,2.4279075755439234,2.2573856083682298,2.326406374644402,0.0,0.5,32.0,0.0,0.0,0.0,0.0,0.0,,,,,
arenacam6_1769712315868818910.png,1769712315868818910,1769712315.868819,42.30108593723187,-83.69745231298013,239.06715393066406,0.7115377096330824,0.7024880809371298,0.008957028516372876,0.01201480551373045,-3e-05,0.004980000000000001,6e-05,0.32180000000000003,0.2877,-9.7081,0.032044021815042505,0.07168055415894119,2.869999885559082,2.819999933242798,2.990000009536743,2.7799999713897705,2.3304663684729197,2.2898659461925366,2.4279075755439234,2.2573856083682298,2.326406374644402,0.0,0.5,32.0,0.0,0.0,0.0,0.0,0.0,,,,,
arenacam6_1769712315889977117.png,1769712315889977117,1769712315.889977,42.30108594504949,-83.69745231193355,239.06724548339844,0.7115405902301912,0.7024852576137312,0.008982954699286247,0.011989904716519964,-0.00024,0.00759,0.0006000000000000001,0.4022,0.2587,-9.6889,0.04194756020043255,0.09383417531475559,2.869999885559082,2.819999933242798,2.990000009536743,2.7799999713897705,2.3304663684729197,2.2898659461925366,2.4279075755439234,2.2573856083682298,2.326406374644402,0.0,0.5,32.0,0.0,0.0,0.0,0.0,0.0,,,,,
arenacam6_1769712315909835944.png,1769712315909835944,1769712315.909836,42.30108595226044,-83.69745231313715,239.06716918945312,0.711554420904331,0.7024713752094663,0.009038556642969162,0.011940586109368694,-0.00023000000000000003,0.008150000000000001,0.00223,0.5444,0.27540000000000003,-9.6478,0.04775152031711545,0.10681728585816824,2.869999885559082,2.819999933242798,2.990000009536743,2.7799999713897705,2.3304663684729197,2.2898659461925366,2.4279075755439234,2.2573856083682298,2.326406374644402,0.0,0.5,32.0,0.0,0.0,0.0,0.0,0.0,,,,,
arenacam6_1769712315950881583.png,1769712315950881583,1769712315.9508815,42.301085979247254,-83.69745231139552,239.0670166015625,0.7115724045565925,0.7024537430408179,0.0092172421677989,0.011768364725549462,-0.0019100000000000002,0.01683,0.0018400000000000003,0.8823000000000001,0.268,-9.5661,0.07807791845990462,0.17465561891969905,2.869999885559082,2.819999933242798,2.990000009536743,2.7799999713897705,2.3304663684729197,2.2898659461925366,2.4279075755439234,2.2573856083682298,2.326406374644402,0.0,0.5,32.0,0.0,0.0,0.0,0.0,0.0,,,,,
arenacam6_1769712315973831773.png,1769712315973831773,1769712315.9738317,42.30108601860641,-83.69745231141283,239.06642150878906,0.7115835278892716,0.7024435387517656,0.00939592513376792,0.011561759962730659,0.0020100000000000005,0.01989,0.0009400000000000002,1.0974000000000002,0.3325,-9.6021,0.1094983357548174,0.24494120718338128,2.869999885559082,2.819999933242798,2.990000009536743,2.7799999713897705,2.3304663684729197,2.2898659461925366,2.4279075755439234,2.2573856083682298,2.326406374644402,0.0,0.5,32.0,0.0,0.0,0.0,0.0,0.0,,,,,
arenacam6_1769712315993416120.png,1769712315993416120,1769712315.9934163,42.30108604384637,-83.69745231045145,239.0661163330078,0.7115885326641176,0.7024394467185587,0.009618807759797681,0.011316466406662177,0.00144,0.023310000000000004,0.0009000000000000002,1.37,0.37070000000000003,-9.5968,0.15150490000880576,0.33890737102569796,2.869999885559082,2.819999933242798,2.990000009536743,2.7799999713897705,2.3304663684729197,2.2898659461925366,2.4279075755439234,2.2573856083682298,2.326406374644402,0.0,0.5,32.0,0.0,0.0,0.0,0.0,0.0,,,,,
arenacam6_1769712316054651030.png,1769712316054651030,1769712316.054651,42.30108615706783,-83.69745230906477,239.0647735595703,0.7115922756012246,0.7024380829131827,0.010095674208715696,0.01073547112124295,0.0019100000000000002,0.024620000000000003,-0.0006700000000000001,1.9525000000000001,0.1733,-9.9344,0.2570563883059226,0.5750197172570505,2.869999885559082,2.819999933242798,2.990000009536743,2.7799999713897705,2.3304663684729197,2.2898659461925366,2.4279075755439234,2.2573856083682298,2.326406374644402,0.0,0.5,32.0,0.0,0.0,0.0,0.0,0.0,,,,,
arenacam6_1769712316075306508.png,1769712316075306508,1769712316.0753064,42.30108615706783,-83.69745230906477,239.0647735595703,0.7115938721762645,0.7024370729810133,0.010165653709711203,0.010629161195083302,0.005300000000000001,0.024830000000000005,0.0006600000000000001,1.8792,0.3784,-9.9451,0.27586209857408045,0.6170869627843035,2.869999885559082,2.819999933242798,2.990000009536743,2.7799999713897705,2.3304663684729197,2.2898659461925366,2.4279075755439234,2.2573856083682298,2.326406374644402,0.0,0.5,32.0,0.0,0.0,0.0,0.0,0.0,,,,,
arenacam6_1769712316095822564.png,1769712316095822564,1769712316.0958226,42.301086268036045,-83.69745230754347,239.06398010253906,0.7116096997372379,0.7024224576184354,0.01036213736847164,0.010341778488858425,0.00727,0.024830000000000005,0.0023600000000000006,1.8377000000000001,0.5626,-9.767000000000001,0.33557797061016303,0.7506677855766981,2.869999885559082,2.819999933242798,2.990000009536743,2.7799999713897705,2.3304663684729197,2.2898659461925366,2.4279075755439234,2.2573856083682298,2.326406374644402,0.0,0.5,32.0,0.0,0.0,0.0,0.0,0.0,,,,,
arenacam6_1769712316116999773.png,1769712316116999773,1769712316.1169996,42.301086332790526,-83.69745230766925,239.0637664794922,0.7116093748048096,0.7024233959833127,0.01041901587736579,0.010242781522890725,0.006200000000000001,0.021970000000000003,0.00012,2.5592,-0.10840000000000001,-10.199900000000001,0.36112405582742524,0.8078128454426007,2.869999885559082,2.819999933242798,2.990000009536743,2.7799999713897705,2.3304663684729197,2.2898659461925366,2.4279075755439234,2.2573856083682298,2.326406374644402,0.0,0.5,32.0,0.0,0.0,0.0,0.0,0.0,,,,,
arenacam6_1769712316157813351.png,1769712316157813351,1769712316.1578133,42.30108649150132,-83.69745230619151,239.06382751464844,0.7116225533629532,0.7024121631775543,0.010528041124402032,0.009982730863976613,0.0024700000000000004,0.010060000000000001,-0.00027000000000000006,1.8738000000000001,0.18560000000000001,-10.367700000000001,0.4684183065072582,1.0478236465583461,2.869999885559082,2.819999933242798,2.990000009536743,2.7799999713897705,2.3304663684729197,2.2898659461925366,2.4279075755439234,2.2573856083682298,2.326406374644402,1.2202270222528906,0.5,32.0,0.0,0.0,0.0,0.0,0.0,,,,,
arenacam6_1769712316178808481.png,1769712316178808481,1769712316.1788087,42.301086578083435,-83.69745230294892,239.06407165527344,0.7116390784968063,0.7023967034000079,0.010562247596616834,0.009855553496657368,0.00824,0.020050000000000005,7.000000000000002e-05,2.3101000000000003,0.3568,-10.3622,0.5063823813545837,1.1327470041473224,2.869999885559082,2.819999933242798,2.990000009536743,2.7799999713897705,2.3304663684729197,2.2898659461925366,2.4279075755439234,2.2573856083682298,2.326406374644402,1.0537740255562267,0.5,32.0,0.0,0.0,0.0,0.0,0.0,,,,,
arenacam6_1769712316200526237.png,1769712316200526237,1769712316.2005262,42.30108667208244,-83.69745230344934,239.0644073486328,0.7116351671278832,0.7024017186624532,0.010512602997898515,0.009833600821181034,0.004090000000000001,-0.0041400000000000005,0.0007700000000000001,2.2611,0.1389,-10.1516,0.5551410314344263,1.2418171788569257,2.869999885559082,2.819999933242798,2.990000009536743,2.7799999713897705,2.3304663684729197,2.2898659461925366,2.4279075755439234,2.2573856083682298,2.326406374644402,0.8733887839962279,0.5,32.0,0.0,0.0,0.0,0.0,0.0,,,,,
arenacam6_1769712316261213366.png,1769712316261213366,1769712316.2612135,42.30108714562316,-83.69745230265805,239.06683349609375,0.7116615145384465,0.7023765453916611,0.010530070804987083,0.009705401452908843,0.0016700000000000003,0.0036100000000000004,0.0024100000000000002,2.0467,0.31420000000000003,-9.6541,0.7071826277044275,1.5819251072171423,2.869999885559082,2.819999933242798,2.990000009536743,2.7799999713897705,2.3304663684729197,2.2898659461925366,2.4279075755439234,2.2573856083682298,2.326406374644402,0.4706172650214274,0.5,32.0,0.0,0.0,0.0,0.0,0.0,,,,,
arenacam6_1769712316282025899.png,1769712316282025899,1769712316.282026,42.30108714562316,-83.69745230265805,239.06683349609375,0.7116639277056773,0.7023741114955419,0.010549986436281699,0.009682938065015077,0.0005200000000000001,0.0059700000000000005,0.00072,2.4309000000000003,-0.0649,-9.7055,0.7313400451635503,1.6359638006281525,2.869999885559082,2.819999933242798,2.990000009536743,2.7799999713897705,2.3304663684729197,2.2898659461925366,2.4279075755439234,2.2573856083682298,2.326406374644402,0.4220402515942859,0.5,32.0,0.0,0.0,0.0,0.0,0.0,,,,,
arenacam6_1769712316366493342.png,1769712316366493342,1769712316.3664935,42.30108774258475,-83.6974523086854,239.069091796875,0.7117337809280593,0.7023021191943538,0.010697666844302166,0.009608245680533187,-0.006060000000000001,0.009370000000000002,0.00041000000000000005,1.9536,-0.1437,-9.6861,0.9370849522441844,2.096202813073106,3.0799999237060547,3.1499998569488525,3.25,3.1499998569488525,2.500988335648613,2.5578289268411494,2.6390299649999998,2.5578289268411494,2.563919038582728,0.22312546409759543,0.6000000238418579,32.92499923706055,0.0,0.0,0.0,0.0,0.0,,,,,
arenacam6_1769712316385772936.png,1769712316385772936,1769712316.385773,42.30108791051577,-83.6974523116128,239.0693817138672,0.71174083438443,0.7022940369661489,0.0107840238710827,0.00957993427392991,-0.008040000000000002,0.016210000000000002,0.00223,2.3759,0.5015000000000001,-9.3751,0.9606132749855584,2.148834259346195,3.2100000381469727,3.2699999809265137,3.679999828338623,3.299999952316284,2.6065496271756934,2.6552701339121536,2.988193790209379,2.6796303872803833,2.7324109846444022,0.27157828611489393,0.800000011920929,33.35000228881836,0.0,0.0,0.0,0.0,0.0,,,,,
arenacam6_1769712316406088747.png,1769712316406088747,1769712316.4060886,42.30108809554249,-83.6974523122414,239.0696258544922,0.7117352067235576,0.702296908643972,0.010966512892098386,0.009580355644899908,-0.010050000000000002,0.0064600000000000005,-0.0033900000000000007,2.9797000000000002,-0.12200000000000001,-10.0584,1.039405106845794,2.32508685970763,3.379999876022339,3.4499998092651367,3.75,3.4700000286102295,2.7445910629289965,2.8014316541215325,3.0450345750000003,2.81767201663177,2.8521823271705746,0.22669925868026472,0.9000000357627869,34.0,0.0,0.0,0.0,0.0,0.0,,,,,
arenacam6_1769712316427000169.png,1769712316427000169,1769712316.427,42.30108828225991,-83.69745231485447,239.06993103027344,0.7117317684105579,0.7022991010620447,0.011031112831416034,0.009600887059240183,-0.012150000000000001,0.0068000000000000005,-0.0010700000000000002,1.9199000000000002,0.1071,-9.3612,1.0585773611585263,2.367974042269954,3.9099998474121094,3.6399998664855957,3.679999828338623,3.6999998092651367,3.174955926297226,2.955713452385073,2.988193790209379,3.0044339591215325,3.030824282003303,0.2799229332336501,1.100000023841858,34.20000076293945,0.0,0.0,0.0,0.0,0.0,,,,,
arenacam6_1769712316468497793.png,1769712316468497793,1769712316.468498,42.3010886910156,-83.69745231832482,239.0704803466797,0.7116716911566286,0.7023580634195943,0.011329945019876284,0.009390798772622064,0.00429,0.020510000000000004,-0.005200000000000001,3.1100000000000003,0.0541,-10.104000000000001,1.1670999010661027,2.610732452690808,4.239999771118164,3.9099998474121094,3.9499998092651367,3.859999895095825,3.442918906945839,3.174955926297226,3.2074362641215326,3.1343555040168427,3.23991665034536,0.24099911004134852,1.8000000715255737,35.025001525878906,0.0,0.0,0.0,0.0,0.0,,,,,
arenacam6_1769712316488968211.png,1769712316488968211,1769712316.4889681,42.301088904005994,-83.69745231957488,239.07066345214844,0.7116403035592448,0.7023880245644669,0.011457742655169252,0.009373442898942066,-0.00834,0.026210000000000004,-0.0041400000000000005,2.3879,0.271,-9.837,1.2136684182165594,2.7149034314453506,4.360000133514404,4.069999694824219,3.990000009536743,4.079999923706055,3.540360307614927,3.3048772775944517,3.239916795543923,3.312997555648613,3.3495379841004786,0.23375953093007937,2.1000001430511475,34.875,0.0,0.0,0.0,0.0,0.0,,,,,
arenacam6_1769712316572772321.png,1769712316572772321,1769712316.5727723,42.30109013433141,-83.69745231431159,239.07278442382812,0.7114242933507112,0.702612787575531,0.0115099138842759,0.00884688917979705,0.01093,0.008180000000000002,-0.00521,2.8529,-0.139,-9.8971,1.4938457875030926,3.3416433958971683,5.75,4.710000038146973,5.029999732971191,4.779999732971191,4.669053015,3.8245634571756937,4.084406159770146,3.8814038547701455,4.114856621678996,0.23138711531313305,3.5,35.10000228881836,0.0,0.0,0.0,0.0,0.0,,,,,
arenacam6_1769712316592585720.png,1769712316592585720,1769712316.5925858,42.3010904062603,-83.69745230983901,239.07334899902344,0.7114074830779296,0.7026305711284749,0.011466669792456525,0.008842455556545722,0.006730000000000001,-0.005470000000000001,-0.005000000000000001,2.6116,0.4153,-9.9209,1.519567662844831,3.3991816877241163,5.759999752044678,4.980000019073486,5.150000095367432,4.980000019073486,4.677172905857993,4.043805931087847,4.181847560439234,4.043805931087847,4.23665808211823,0.24637588435434185,3.6000001430511475,35.17499923706055,0.0,0.0,0.0,0.0,0.0,,,,,
arenacam6_1769712316635486855.png,1769712316635486855,1769712316.635487,42.30109099138957,-83.69745230488884,239.0750274658203,0.7113269224494697,0.7027175469536635,0.011346747620978113,0.008562121256885755,0.021020000000000004,0.005180000000000001,-0.0028300000000000005,2.825,0.41850000000000004,-10.2306,1.63202749317768,3.6507475805888796,5.109999656677246,5.359999656677246,5.699999809265137,6.940000057220459,4.149366835418759,4.352369140418759,4.628452399121533,5.63534403326354,4.691383102055648,0.28504723991323155,3.799999952316284,34.92499923706055,0.0,0.0,0.0,0.0,0.0,,,,,
arenacam6_1769712316655007098.png,1769712316655007098,1769712316.655007,42.30109129487312,-83.69745229897129,239.07566833496094,0.7112414896957177,0.7028052339324113,0.01133557412254613,0.008476511778864219,0.0012700000000000003,0.009680000000000001,-0.01137,2.858,0.3517,-9.2104,1.6875211745217895,3.774883616134772,5.46999979019165,5.369999885559082,6.449999809265137,8.319999694824219,4.441690263033686,4.36048941847292,5.237459314121533,6.7559164625944526,5.198888864555648,0.37723156346710407,3.799999952316284,35.0,0.0,0.0,0.0,0.0,0.0,,,,,
arenacam6_1769712316695922546.png,1769712316695922546,1769712316.6959224,42.30109194223803,-83.69745229364612,239.0774688720703,0.7110915644457119,0.7029636228430428,0.01108237939177156,0.008253047955216848,0.016270000000000003,-0.012,-0.009080000000000001,2.5146,0.4909,-9.3278,1.8073208856837708,4.042868382021455,5.659999847412109,5.639999866485596,9.84999942779541,9.09999942779541,4.595972061297226,4.579731892385073,7.998290352364598,7.389283437364598,6.140819435852873,0.5189263798843811,4.200000286102295,34.900001525878906,0.0,0.0,0.0,0.0,0.0,,,,,
arenacam6_1769712316719295306.png,1769712316719295306,1769712316.7192953,42.30109194223803,-83.69745229364612,239.0774688720703,0.7110076993788623,0.7030519389228126,0.010983561546604497,0.008086035901647127,0.011080000000000001,-0.0011,-0.013180000000000002,2.7864,-0.3628,-9.8815,1.859725498863051,4.160094357426713,5.769999980926514,5.779999732971191,12.019999504089355,10.9399995803833,4.685293183912153,4.693413074770145,9.760350421715986,8.883380526067372,7.005609301616413,0.6840025008350615,4.400000095367432,35.150001525878906,0.0,0.0,0.0,0.0,0.0,,,,,
arenacam6_1769712316737211400.png,1769712316737211400,1769712316.7372115,42.30109262062818,-83.69745229042259,239.07937622070312,0.710946864514032,0.7031179255090091,0.010832591130635071,0.007898964170709318,0.04179000000000001,0.0007700000000000001,-0.011000000000000001,2.5165,0.7634000000000001,-9.6722,1.9404030339793719,4.340565162829816,5.839999675750732,5.859999656677246,12.889999389648438,13.059999465942383,4.7421335815066055,4.758373750418759,10.466798350188904,10.60483997954029,7.64303641541364,0.7608389987701024,4.599999904632568,35.17499923706055,0.0,0.0,0.0,0.0,0.0,,,,,
arenacam6_1769712316779306575.png,1769712316779306575,1769712316.7793064,42.30109334232126,-83.69745229100745,239.08119201660156,0.7109635215608741,0.7031078495556237,0.01048851194731279,0.0077597693366332305,0.018530000000000005,-0.010990000000000003,0.0021200000000000004,2.2833,0.5774,-9.4717,2.0265097146757705,4.533180641146818,6.099999904632568,6.079999923706055,16.350000381469727,16.989999771118164,4.9532561645607665,4.937015995648613,13.276351056756935,13.796036461945839,9.240664919728038,1.038450626884859,4.700000286102295,34.875,0.0,0.0,0.0,0.0,0.0,,,,,
arenacam6_1769712316799220193.png,1769712316799220193,1769712316.7992203,42.30109334232126,-83.69745229100745,239.08119201660156,0.7110254274166363,0.7030469840830195,0.010348727263830904,0.007789966802171359,-0.005770000000000001,-0.00868,0.014270000000000003,1.8472000000000002,-0.2368,-10.0129,2.049640801346004,4.58492349416293,6.21999979019165,6.199999809265137,16.639999389648438,17.010000228881836,5.050697178033686,5.034457009121533,13.511832925188905,13.812277018054163,9.352316032599571,1.03979762028876,4.700000286102295,35.04999923706055,0.0,0.0,0.0,0.0,0.0,,,,,
arenacam6_1769712316820379670.png,1769712316820379670,1769712316.8203797,42.30109409304443,-83.69745230544052,239.08338928222656,0.7110476807665088,0.7030238262966155,0.010327479167532993,0.007876452874172823,-0.009260000000000001,-0.015260000000000003,0.0061,2.0669,0.0649,-10.0004,2.1094489765919344,4.7187107936975625,6.289999961853027,6.269999980926514,16.229999542236328,16.44999885559082,5.107537962824306,5.091297793912154,13.178909268891678,13.357550739729195,9.183823941339334,0.9462570059613522,4.599999904632568,35.17499923706055,0.0,0.0,0.0,0.0,0.0,,,,,
arenacam6_1769712316840590178.png,1769712316840590178,1769712316.84059,42.30109486627585,-83.697452320232,239.0854949951172,0.7111146722426183,0.702955177402438,0.010279954193549531,0.008016484650962497,0.0017500000000000003,-0.00987,0.006910000000000001,2.5902000000000003,0.027700000000000002,-9.979600000000001,2.171341045810639,4.85715963901565,6.75,6.690000057220459,16.559999465942383,16.15999984741211,5.4810622350000004,5.43234172826354,13.446872249540291,13.122068871297225,9.370586271025264,0.9292316842450544,4.400000095367432,35.125,0.0,0.0,0.0,0.0,0.0,,,,,
arenacam6_1769712316861477181.png,1769712316861477181,1769712316.8614771,42.30109486627585,-83.697452320232,239.0854949951172,0.7111376052394176,0.7029320438406744,0.010183199658692741,0.008133301975792286,-0.0029800000000000004,-0.030250000000000003,0.0061,2.2185,-0.1726,-9.9376,2.1932781097896106,4.906231534912772,8.289999961853027,7.460000038146973,16.729999542236328,16.10999870300293,6.731556402824307,6.057588812175694,13.58491387889168,13.08146748102642,9.863881643729526,1.0104802583282275,4.200000286102295,35.125,0.0,0.0,0.0,0.0,0.0,,,,,
arenacam6_1769712316881857931.png,1769712316881857931,1769712316.881858,42.30109567443896,-83.69745233659252,239.08775329589844,0.7112298656035545,0.7028380258257155,0.010043236456952011,0.008361885459062617,0.0005000000000000001,-0.01781,0.00825,1.9232,0.528,-9.654,2.245648460031088,5.023380866181943,9.119999885559082,9.069999694824219,16.170000076293945,16.35999870300293,7.4055239934729205,7.364923377594453,13.130189149351388,13.28446978602642,10.296276576611294,1.0496707000512695,4.099999904632568,35.275001525878906,0.0,0.0,0.0,0.0,0.0,,,,,
arenacam6_1769712316902904934.png,1769712316902904934,1769712316.9029047,42.30109567443896,-83.69745233659252,239.08775329589844,0.7112334208105384,0.7028350614816757,0.009976571168392189,0.00838841474360446,0.00553,-0.013160000000000002,0.0007400000000000001,1.8905,0.0956,-9.3324,2.264413754817606,5.065357704701696,8.949999809265137,10.029999732971191,15.869999885559082,16.309999465942383,7.267482364121533,8.144452259770146,12.88658622847292,13.24386994454029,10.38559769922622,1.0503187148236828,3.9000000953674316,34.97500228881836,0.0,0.0,0.0,0.0,0.0,,,,,
arenacam6_1769712316923740174.png,1769712316923740174,1769712316.9237401,42.301096084437944,-83.69745234571849,239.08892822265625,0.7112900809034121,0.7027787880451819,0.00988101040723392,0.008411986417913695,0.006310000000000001,-0.0022600000000000003,0.00855,1.8783,0.1751,-9.7377,2.3001615110742626,5.1453232905824615,10.199999809265137,11.539999961853027,15.789999961853027,15.299999237060547,8.282493889121533,9.370586367824306,12.821625552824306,12.42374044648613,10.724611564064068,1.0843416357711546,3.799999952316284,34.82500076293945,0.0,0.0,0.0,0.0,0.0,,,,,
arenacam6_1769712316944166408.png,1769712316944166408,1769712316.9441664,42.301096509901626,-83.69745235500099,239.08982849121094,0.7113529281207017,0.70271725482053,0.009753148032617958,0.0083873437425384,0.009910000000000002,-0.00026000000000000003,0.009250000000000001,1.9983000000000002,0.3775,-8.5741,2.3697997190484896,5.301099783528329,12.25999927520752,12.59000015258789,15.229999542236328,14.929999351501465,9.955232448661823,10.223196203702775,12.36690004889168,12.123297128013212,11.167156457317374,1.1065735249912028,3.799999952316284,35.025001525878906,0.0,0.0,0.0,0.0,0.0,,,,,
arenacam6_1769712316965019623.png,1769712316965019623,1769712316.9650197,42.30109693473413,-83.69745236358864,239.09043884277344,0.711375762783886,0.7026952341753572,0.00972496657579073,0.008328085973628054,0.012400000000000001,0.004300000000000001,0.006340000000000001,1.9189,0.049800000000000004,-9.1052,2.388861878760117,5.3437406910736565,13.670000076293945,13.1899995803833,14.769999504089355,14.710000038146973,11.100166099351387,10.710401271067372,11.993375776715984,11.944655657175694,11.43714970107761,1.1402890526073928,3.700000047683716,35.10000228881836,0.0,0.0,0.0,0.0,0.0,,,,,
arenacam6_1769712316986135762.png,1769712316986135762,1769712316.9861357,42.30109781574748,-83.69745238274098,239.09207153320312,0.7114203008848289,0.7026529723815358,0.009642273037000547,0.008184281459732871,0.013340000000000001,0.009380000000000001,0.007660000000000001,2.4717000000000002,0.38380000000000003,-10.6776,2.450398194234793,5.481393736611579,14.329999923706055,14.059999465942383,13.989999771118164,14.399999618530273,11.636092060648613,11.416849199540291,11.36000880194584,11.692932458243066,11.526470630094451,1.1028357355732932,3.6000001430511475,35.17499923706055,0.0,0.0,0.0,0.0,0.0,,,,,
arenacam6_1769712317006403573.png,1769712317006403573,1769712317.0064037,42.30109781574748,-83.69745238274098,239.09207153320312,0.7114422167727976,0.7026324287762405,0.009557439469527113,0.008142332355980095,0.01795,-0.0061600000000000005,0.005940000000000001,2.4556,0.2093,-9.7401,2.4746869451397573,5.535726215060929,15.6899995803833,15.859999656677246,13.269999504089355,13.59000015258789,12.74042432106737,12.878465950418759,10.775361946715984,11.035205423702774,11.857364410476222,1.1419708905068588,3.6000001430511475,35.07500076293945,0.0,0.0,0.0,0.0,0.0,,,,,
arenacam6_1769712317047452868.png,1769712317047452868,1769712317.047453,42.30109871883062,-83.69745240499307,239.09373474121094,0.711491127311624,0.7025861932982983,0.009477509566409007,0.007949437455517534,-0.00335,-0.0035700000000000007,0.0016700000000000003,2.8058,-0.2174,-10.7156,2.5762911733196945,5.763008777245758,18.739999771118164,18.90999984741211,12.649999618530273,12.00999927520752,15.21705259694584,15.355094226297227,10.271916323243065,9.752230143661823,12.649073322536989,1.1948731663362486,3.5,35.20000076293945,0.0,0.0,0.0,0.0,0.0,,,,,
arenacam6_1769712317068748275.png,1769712317068748275,1769712317.0687482,42.301099189008,-83.697452417835,239.09498596191406,0.7115199754746143,0.7025565379248087,0.009460187086724418,0.008008768943804685,-0.005980000000000001,-0.010960000000000001,0.008020000000000001,2.3826,0.37820000000000004,-10.6872,2.5998150034958556,5.815630173920019,19.600000381469727,20.229999542236328,11.6899995803833,11.920000076293945,15.915381021756936,16.426946148891677,9.49238744106737,9.679149964351387,12.878466144016844,1.2144575495480876,3.299999952316284,34.79999923706055,0.0,0.0,0.0,0.0,0.0,,,,,
arenacam6_1769712317109583804.png,1769712317109583804,1769712317.1095839,42.30110013513386,-83.69745244441872,239.0974578857422,0.7116082497306159,0.7024660142387837,0.00949701584878073,0.00806253339678172,-0.01297,0.00581,0.00821,2.1619,-0.2225,-10.042300000000001,2.67205726347996,5.977231774968862,21.459999084472656,21.43000030517578,11.069999694824219,11.309999465942383,17.425717117783357,17.401357832405548,8.988941817594451,9.18382384454029,13.249960153080911,1.21673855923881,3.200000047683716,35.150001525878906,0.0,0.0,0.0,0.0,0.0,,,,,
arenacam6_1769712317130366390.png,1769712317130366390,1769712317.1303666,42.30110062668829,-83.6974524585765,239.09902954101562,0.7116863822900461,0.7023856322769376,0.009440536782374432,0.00823365648381051,0.0021300000000000004,-0.01736,0.006250000000000001,2.1292,0.3633,-10.5469,2.740330071492303,6.129953950123992,20.78999900817871,21.459999084472656,10.789999961853027,10.489999771118164,16.88167087843197,17.425717117783357,8.761579452824307,8.51797653194584,12.896735995246368,1.1038879084867355,3.200000047683716,35.17499923706055,0.0,0.0,0.0,0.0,0.0,,,,,
arenacam6_1769712317152170992.png,1769712317152170992,1769712317.152171,42.301101118761935,-83.69745247488582,239.1006317138672,0.7117176643257783,0.7023532478774782,0.009387048433548543,0.008352532808808492,-0.00897,-0.015700000000000002,0.00505,2.2091000000000003,-0.6021000000000001,-10.0022,2.780629068056179,6.22010038749759,20.059999465942383,20.920000076293945,10.469999313354492,9.90999984741211,16.288904519540292,16.987232944351387,8.501735975837518,8.047011246297227,12.456221171506606,1.0025755848802098,3.1000001430511475,35.125,0.0,0.0,0.0,0.0,0.0,,,,,
arenacam6_1769712317171871107.png,1769712317171871107,1769712317.1718712,42.30110213290205,-83.69745250649808,239.10462951660156,0.7117971412247085,0.7022713125693585,0.009311919322097838,0.00855110782187073,-0.004430000000000001,-0.014300000000000002,0.011930000000000003,1.7474,0.8703000000000001,-10.3298,2.817055442311198,6.301584001123612,19.239999771118164,19.779998779296875,9.84000015258789,9.739999771118164,15.62305720694584,16.061541380377808,7.990170848702774,7.908969616945839,11.895934763243066,0.8877689738202245,3.1000001430511475,35.150001525878906,0.0,0.0,0.0,0.0,0.0,,,,,
arenacam6_1769712317213471031.png,1769712317213471031,1769712317.213471,42.30110317064421,-83.69745254434386,239.10916137695312,0.7118791774500864,0.7021858320873828,0.009015094478649236,0.009045551408244408,-0.013600000000000001,-0.026830000000000003,0.010210000000000002,1.7696,-0.44780000000000003,-10.4295,2.902093642933552,6.49180935362378,17.420000076293945,17.079999923706055,8.9399995803833,9.929999351501465,14.145200674351388,13.869117415648613,7.259362086067371,8.06325102801321,10.834232801020146,0.6689080363970317,3.1000001430511475,34.95000076293945,0.0,0.0,0.0,0.0,0.0,,,,,
arenacam6_1769712317234203111.png,1769712317234203111,1769712317.234203,42.30110317064421,-83.69745254434386,239.10916137695312,0.7119657092194173,0.7020947347169233,0.008928118251959613,0.009386217712373208,-0.018390000000000004,-0.032490000000000005,0.010700000000000001,2.1474,0.369,-10.478200000000001,2.943350600810943,6.584098692978031,16.59000015258789,16.520000457763672,9.25,8.639999389648438,13.471233083702774,13.414392686108322,7.511085285,7.015759165188904,10.353117554999999,0.5724426436744701,3.1000001430511475,35.07500076293945,0.0,0.0,0.0,0.0,0.0,,,,,
arenacam6_1769712317256042047.png,1769712317256042047,1769712317.256042,42.30110424394569,-83.69745258832269,239.1146240234375,0.7120198130103267,0.702037280982466,0.008769047821932678,0.009723466037493373,-0.011070000000000002,-0.030980000000000004,0.008450000000000001,2.1948000000000003,-0.2087,-10.0858,2.986590341991982,6.680823399615544,16.239999771118164,16.19999885559082,9.179999351501465,8.760000228881836,13.18702954694584,13.154548434729195,7.45424411301321,7.113200953054162,10.227255761935602,0.530837615393956,3.0,35.07500076293945,0.0,0.0,0.0,0.0,0.0,,,,,
arenacam6_1769712317275836094.png,1769712317275836094,1769712317.2758362,42.30110424394569,-83.69745258832269,239.1146240234375,0.7121348640907328,0.7019162051898914,0.008683648344924726,0.010107941913047399,-0.026820000000000004,-0.035660000000000004,0.020410000000000005,2.319,-0.223,-9.8642,3.0320357047444575,6.782481949371067,15.1899995803833,15.799999237060547,9.130000114440918,9.34999942779541,12.33441971106737,12.82974505648613,7.413644271527081,7.592285742364598,10.042523695361295,0.48065616249705295,3.0,35.275001525878906,0.0,0.0,0.0,0.0,0.0,,,,,
arenacam6_1769712317297055108.png,1769712317297055108,1769712317.2970552,42.301105349160224,-83.6974526351915,239.1203155517578,0.7122815848377557,0.701762058706542,0.008562431021120238,0.010566060570501305,-0.015000000000000001,-0.022900000000000004,0.009620000000000002,2.4882,-0.8292,-9.4445,3.099111715891254,6.932526961745782,14.889999389648438,15.639999389648438,9.119999885559082,9.260000228881836,12.090816790188905,12.699823705188903,7.4055239934729205,7.519205563054161,9.928842512976221,0.4322111645240385,3.0,35.125,0.0,0.0,0.0,0.0,0.0,,,,,
arenacam6_1769712317316840876.png,1769712317316840876,1769712317.316841,42.30110590953657,-83.69745266041457,239.12286376953125,0.7123451788797405,0.7016943730828229,0.008563063096996558,0.01077157653696642,-0.029370000000000004,-0.029020000000000004,0.01818,2.0657,-0.2401,-9.1256,3.119989507441515,6.979229328776223,14.50999927520752,15.179999351501465,9.359999656677246,9.579999923706055,11.782253193661825,12.326299433013212,7.600406020418759,7.779048265648614,9.872001728185602,0.41448307014101415,3.0,35.20000076293945,0.0,0.0,0.0,0.0,0.0,,,,,
arenacam6_1769712317358134668.png,1769712317358134668,1769712317.3581347,42.30110706061006,-83.69745270872208,239.12705993652344,0.7125504366374322,0.7014734899223761,0.008821043376193874,0.011358141471315027,-0.022710000000000004,-0.011330000000000002,0.00562,1.5389000000000002,0.327,-9.5363,3.1989205582799967,7.155793353638856,13.59999942779541,14.809999465942383,10.300000190734863,9.84999942779541,11.043324927364598,12.025856114540291,8.363695120878468,7.998290352364598,9.85779162878699,0.37759590608833277,3.0,35.25,0.0,0.0,0.0,0.0,0.0,,,,,
arenacam6_1769712317381836462.png,1769712317381836462,1769712317.3818367,42.30110764664998,-83.69745272680572,239.1284637451172,0.7126934717134129,0.7013156152177007,0.009316592335083614,0.011731339913358937,-0.039880000000000006,0.0039700000000000004,0.00954,2.0745,1.3442,-8.6769,3.264438016203446,7.302351975966137,13.539999961853027,14.299999237060547,11.09999942779541,9.969999313354492,10.994604807824306,11.61173122648613,9.013301877364597,8.095731365837517,9.928842319378138,0.35967731383757395,3.0,35.525001525878906,0.0,0.0,0.0,0.0,0.0,,,,,
arenacam6_1769712317400584640.png,1769712317400584640,1769712317.4005847,42.301108236818735,-83.69745274406317,239.1299591064453,0.7126797946918011,0.7013257194176098,0.009440558649107587,0.011858388331345678,-0.03545000000000001,-0.00010000000000000002,-0.0033700000000000006,2.0791,1.6204,-9.272400000000001,3.2854773891838382,7.3494157909608955,13.199999809265137,13.75,12.309999465942383,10.559999465942383,10.718521549121533,11.165126775000001,9.99583306454029,8.57481692954029,10.113574579550528,0.37610592014528466,3.0,35.22500228881836,0.0,0.0,0.0,0.0,0.0,,,,,
arenacam6_1769712317420733664.png,1769712317420733664,1769712317.4207337,42.30110884317108,-83.69745275193357,239.13111877441406,0.7126218968567875,0.7013776495836711,0.00978587880345637,0.01198588172656213,-0.01623,0.00512,-0.005520000000000001,2.6576,1.0412000000000001,-9.6006,3.3461167557836538,7.485062415682687,13.09000015258789,13.489999771118164,13.960000038146973,10.579999923706055,10.629200813702774,10.954004191945838,11.335648742175692,8.591057485648614,10.377477808368228,0.3864250198669498,3.0,35.07500076293945,0.0,0.0,0.0,0.0,0.0,,,,,
arenacam6_1769712317441214446.png,1769712317441214446,1769712317.4412146,42.301109449989184,-83.6974527580684,239.13209533691406,0.7125495861819514,0.7014499097726865,0.009893310665131938,0.01196802890633804,0.0010500000000000002,0.00893,-0.012220000000000002,1.9385000000000001,1.403,-9.0906,3.388311941021927,7.57945051334959,13.489999771118164,13.130000114440918,15.609999656677246,10.010000228881836,10.954004191945838,10.661681151527082,12.675463645418759,8.128212478054161,10.60484036673646,0.3991568845338179,3.1000001430511475,35.45000076293945,0.0,0.0,0.0,0.0,0.0,,,,,
arenacam6_1769712317461540186.png,1769712317461540186,1769712317.46154,42.30111006377293,-83.69745276206274,239.1331024169922,0.7124455604003395,0.7015582176641534,0.009919480550161869,0.011789597082079552,0.0091,0.008960000000000003,-0.016250000000000004,2.3461000000000003,0.2626,-9.1239,3.433360406473591,7.680221227657036,13.609999656677246,12.139999389648438,17.35999870300293,10.34000015258789,11.051445205418759,9.857791435188904,14.09647900602642,8.396175458702775,10.850472776334215,0.4127812799533524,3.200000047683716,35.20000076293945,0.0,0.0,0.0,0.0,0.0,,,,,
arenacam6_1769712317503078071.png,1769712317503078071,1769712317.5030782,42.30111132185665,-83.69745275812463,239.13369750976562,0.7121564582638469,0.701868350074208,0.00969979092851905,0.010950441687249053,0.04134000000000001,0.019440000000000006,-0.017020000000000004,2.1790000000000003,-0.22240000000000001,-9.187100000000001,3.5326105649502586,7.902237877159832,12.319999694824219,10.529999732971191,20.260000228881836,10.529999732971191,10.003953342594452,8.550456869770146,16.451306983054163,8.550456869770146,10.889043516297226,0.37796959362236904,4.099999904632568,35.92499923706055,0.0,0.0,0.0,0.0,0.0,,,,,
arenacam6_1769712317523923823.png,1769712317523923823,1769712317.5239236,42.30111195693137,-83.69745275525455,239.13388061523438,0.7120824874863217,0.7019467505079395,0.0096701779429573,0.010760024404648447,0.031380000000000005,0.022810000000000004,-0.02136,1.9871,-0.6245,-9.6366,3.5525939015549524,7.946939402144336,10.539999961853027,10.809999465942383,21.35999870300293,10.639999389648438,8.558577147824307,8.77781923454029,17.34451588602642,8.639777605188904,10.83017246839498,0.36281050104303764,4.599999904632568,35.45000076293945,0.0,0.0,0.0,0.0,0.0,,,,,
arenacam6_1769712317544388737.png,1769712317544388737,1769712317.5443888,42.30111260808443,-83.69745275281998,239.1339874267578,0.7119124618476895,0.7021258021945836,0.00956990123833032,0.010412566871962856,0.03309,0.0041800000000000006,-0.018760000000000002,1.9484000000000001,0.7347,-11.331900000000001,3.6178983826312545,8.09302160804316,10.719999313354492,10.619999885559082,22.389999389648438,10.65999984741211,8.704738280837518,8.623537823472919,18.180885940188904,8.656018161297226,11.041295051449142,0.3642982295359095,5.300000190734863,35.97500228881836,0.0,0.0,0.0,0.0,0.0,,,,,
arenacam6_1769712317565050690.png,1769712317565050690,1769712317.5650506,42.30111325922673,-83.69745275035923,239.1343231201172,0.7118284668886036,0.7022130721010009,0.009540134928095668,0.010296646203904384,0.020700000000000003,0.012790000000000001,-0.023790000000000002,2.0182,-0.18150000000000002,-10.5386,3.638341611916351,8.138751885360163,11.229999542236328,11.09000015258789,23.43000030517578,10.699999809265137,9.118863168891679,9.005182373702773,19.02537627240555,8.688498499121533,11.459480078530383,0.40801442775807983,5.400000095367432,36.400001525878906,0.0,0.0,0.0,0.0,0.0,,,,,
arenacam6_1769712317585449457.png,1769712317585449457,1769712317.5854495,42.301113917462274,-83.69745274703375,239.1349334716797,0.7116076176747369,0.7024385762818945,0.009655520244543947,0.010070548503324688,0.0012300000000000002,0.015580000000000002,-0.02767,2.9622,-0.3904,-9.3846,3.710977117480904,8.301233153177733,11.139999389648438,11.130000114440918,23.40999984741211,11.010000228881836,9.045782215188904,9.037662711527082,19.009135716297227,8.940221698054161,11.508200585266842,0.3863242211021953,6.300000190734863,36.60000228881836,0.0,0.0,0.0,0.0,0.0,,,,,
arenacam6_1769712317606311928.png,1769712317606311928,1769712317.606312,42.30111459130679,-83.69745274773946,239.13528442382812,0.7115093036958499,0.7025373169729812,0.009668994438635812,0.01011630175496634,-0.00833,-0.00408,-0.027980000000000005,1.4356,-0.1857,-10.009,3.725431335538584,8.33356637171968,11.25999927520752,11.130000114440918,22.709999084472656,11.119999885559082,9.143223228661824,9.037662711527082,18.440728642783355,9.029542433472919,11.412789254111296,0.36949641306525044,6.700000286102295,36.95000076293945,0.0,24.0,0.0,0.0,0.0,,,,,
arenacam6_1769712317626768329.png,1769712317626768329,1769712317.6267684,42.30111526548058,-83.69745274208123,239.13607788085938,0.7113572624876866,0.7026930760132923,0.009979731681690985,0.009679410341698617,0.013000000000000003,0.02721,-0.0177,2.8671,0.8137000000000001,-9.855,3.7892792504461346,8.476390326492977,12.25999927520752,11.739999771118164,21.639999389648438,11.039999961853027,9.955232448661823,9.532988056945838,17.571879025188903,8.964581757824307,11.506170322155217,0.3574375269379297,6.900000095367432,37.10000228881836,0.0,128.0,0.0,0.0,0.0,,,,,
arenacam6_1769712317647627955.png,1769712317647627955,1769712317.647628,42.30111594472337,-83.69745274099117,239.13673400878906,0.7112687796637179,0.702783867029867,0.009974035834016322,0.009595724434013502,0.012830000000000001,0.011270000000000002,-0.025230000000000002,2.274,0.8214,-10.4777,3.81196257444456,8.527131561278015,13.949999809265137,12.539999961853027,20.029998779296875,11.34999942779541,11.327528464121533,10.182595587824308,16.26454368537781,9.216304182364599,11.747742979922062,0.3776898943683418,7.200000286102295,37.10000228881836,0.0,196.0,0.0,0.0,0.0,,,,,
arenacam6_1769712317689313917.png,1769712317689313917,1769712317.689314,42.3011173442315,-83.69745273400514,239.13958740234375,0.711040155107043,0.7030228298832628,0.010051365112157436,0.008931323959152011,0.00442,0.005680000000000001,-0.012990000000000002,3.4798,-1.2089,-11.1693,3.9086509713407285,8.74341770383093,14.4399995803833,15.229999542236328,15.769999504089355,11.670000076293945,11.725412796067372,12.36690004889168,12.805384996715986,9.476147659351389,11.593461375256608,0.3259644875683944,7.099999904632568,37.29999923706055,0.0,208.0,0.0,0.0,0.0,,,,,
arenacam6_1769712317710382186.png,1769712317710382186,1769712317.710382,42.30111804767774,-83.69745273367346,239.1415557861328,0.7109350440237071,0.7031295417147827,0.010048262871671028,0.008901862739387052,0.014060000000000001,0.00506,-0.01566,2.7167000000000003,0.47940000000000005,-10.6905,3.971143169243669,8.883209001007934,14.639999389648438,16.5,14.119999885559082,11.679999351501465,11.887814485188905,13.39815213,11.46557009347292,9.484267163013211,11.558950967918758,0.301213442868137,6.900000095367432,37.025001525878906,0.0,200.0,0.0,0.0,0.0,,,,,
arenacam6_1769712317730279384.png,1769712317730279384,1769712317.7302794,42.3011194972702,-83.69745273700242,239.1470489501953,0.7108336128589057,0.7032327635700234,0.009863454447566792,0.00905358150036508,-0.00305,-0.02704,-0.010620000000000001,2.4994,-0.7906000000000001,-10.7171,4.026927114282772,9.007994339023705,16.239999771118164,17.369998931884766,12.0,11.90999984741211,13.18702954694584,14.104599284080582,9.74411064,9.671029686297226,11.676692289330912,0.29625883963382277,6.800000190734863,37.32500076293945,0.0,180.0,0.0,0.0,0.0,,,,,
arenacam6_1769712317771717318.png,1769712317771717318,1769712317.7717173,42.30112097903218,-83.6974527417413,239.1531219482422,0.7106838773386029,0.7033844677546306,0.009715139848244283,0.00918330388443796,0.03493000000000001,-0.0016300000000000002,-0.015410000000000002,3.0301,0.9703,-9.9466,4.10529496249272,9.183298513398466,16.31999969482422,16.770000457763672,12.09000015258789,11.989999771118164,13.251990222594452,13.617394991108322,9.817191593702775,9.73599036194584,11.605641792337847,0.2637770377827938,6.200000286102295,37.525001525878906,0.0,84.0,0.0,0.0,0.0,,,,,
arenacam6_1769712317792779745.png,1769712317792779745,1769712317.7927797,42.30112097903218,-83.6974527417413,239.1531219482422,0.7105543445697552,0.7035192044292551,0.00937076463931369,0.009243439962932226,0.011730000000000003,-0.03441,-0.015670000000000003,2.3104,-0.36260000000000003,-9.4433,4.164738475084585,9.316270084455711,15.069999694824219,14.319999694824219,12.279999732971191,12.25999927520752,12.236978697594452,11.627971782594452,9.971473004770145,9.955232448661823,10.947913983405218,0.17513917953837785,5.700000286102295,37.79999923706055,0.0,84.0,0.0,0.0,0.0,,,,,
arenacam6_1769712317813196645.png,1769712317813196645,1769712317.8131967,42.30112248344318,-83.69745274567433,239.15870666503906,0.7104119130116558,0.7036740964340624,0.008907197119985786,0.008851084582763732,0.06167000000000001,0.005680000000000001,-0.019960000000000002,1.8962,1.2971000000000001,-8.8938,4.212323753504986,9.422715497165443,13.649999618530273,12.09999942779541,12.619999885559082,12.449999809265137,11.083925543243065,9.825311097364597,10.24755626347292,10.109514634121533,10.316576884550528,0.09486239796309015,5.5,38.22500228881836,0.0,44.0,0.0,0.0,0.0,,,,,
arenacam6_1769712317833934702.png,1769712317833934702,1769712317.8339345,42.30112248344318,-83.69745274567433,239.15870666503906,0.7103019955222537,0.7037905380540153,0.00868583136394741,0.008631919616228164,0.062160000000000014,0.00036,-0.033,2.4725,-0.3715,-8.982700000000001,4.23727792982138,9.478536492334637,12.179999351501465,12.670000076293945,12.869999885559082,12.6899995803833,9.890271773013211,10.288156879351387,10.45055856847292,10.304396661067372,10.233345970476222,0.07963354667168343,4.900000095367432,38.25,0.0,20.0,0.0,0.0,0.0,,,,,
arenacam6_1769712317854498759.png,1769712317854498759,1769712317.8544989,42.30112402553755,-83.69745273369911,239.16366577148438,0.7100947387733776,0.7040150051192352,0.008026553428026382,0.007994308813084789,0.08081,0.022770000000000002,-0.024050000000000002,2.8566000000000003,-0.14830000000000002,-9.9313,4.305905517534406,9.632052288393414,12.5,12.679999351501465,12.5,12.59000015258789,10.15011525,10.29627638301321,10.15011525,10.223196203702775,10.204925771678997,0.05947574474610088,4.800000190734863,38.20000076293945,0.0,4.0,0.0,0.0,0.0,,,,,
arenacam6_1769712317875380199.png,1769712317875380199,1769712317.8753803,42.30112402553755,-83.69745273369911,239.16366577148438,0.7099831022289608,0.7041319186380086,0.007732299452932145,0.00790235722227071,0.05450000000000001,-0.028550000000000006,-0.03268,2.2109,-0.4142,-9.3034,4.327925917065521,9.681310600920547,13.039999961853027,12.90999984741211,12.710000038146973,12.75,10.588600197824306,10.483038906297226,10.320637217175694,10.353117554999999,10.436348469074305,0.0779892206001495,4.300000190734863,38.20000076293945,0.0,0.0,0.0,0.0,0.0,,,,,
arenacam6_1769712317895820040.png,1769712317895820040,1769712317.8958201,42.30112559828163,-83.69745272259483,239.16810607910156,0.7096959929236917,0.7044327092699508,0.007456071060423348,0.00711074841308565,0.05006000000000001,0.02415,-0.03162,3.228,-0.256,-8.5044,4.393543113583794,9.828092332500134,13.630000114440918,13.25999927520752,12.84000015258789,13.039999961853027,11.06768576152708,10.767241668661823,10.426198508702774,10.588600197824306,10.712431534178997,0.08998075839748432,3.9000000953674316,38.275001525878906,0.0,0.0,0.0,0.0,0.0,,,,,
arenacam6_1769712317916664026.png,1769712317916664026,1769712317.9166641,42.30112559828163,-83.69745272259483,239.16810607910156,0.7095660598827656,0.7045654792531458,0.0074172592414612154,0.006962497581847361,0.026560000000000004,0.015770000000000003,-0.03697000000000001,3.4166000000000003,-1.4336,-9.029300000000001,4.42774316660351,9.904595799102056,14.109999656677246,13.569999694824219,12.969999313354492,12.969999313354492,11.457449815418759,11.018964867594454,10.531759025837516,10.531759025837516,10.88498318367206,0.09898307860870868,3.6000001430511475,38.375,0.0,0.0,0.0,0.0,0.0,,,,,
arenacam6_1769712317937317862.png,1769712317937317862,1769712317.9373178,42.301127201277524,-83.69745272771026,239.17161560058594,0.7093870354579797,0.7047396323386418,0.00794212393874362,0.007000514457985695,-0.04984,0.029540000000000004,-0.011840000000000002,2.6516,-0.7587,-9.3772,4.4808229400624136,10.023332067543215,14.34999942779541,13.710000038146973,13.119999885559082,12.979999542236328,11.652331842364598,11.132646437175694,10.65356087347292,10.539879303891679,10.994604614226223,0.09690116421744696,3.200000047683716,38.125,0.0,0.0,0.0,0.0,0.0,,,,,
arenacam6_1769712317978749819.png,1769712317978749819,1769712317.9787498,42.301128020972364,-83.69745273590965,239.17300415039062,0.7091604793239582,0.7049545766857872,0.008721692101314538,0.007375056722921665,-0.049530000000000005,0.022940000000000002,-0.01682,1.2533,-0.49610000000000004,-10.3215,4.534243865964523,10.14283147353068,13.279999732971191,13.380000114440918,13.679999351501465,13.34000015258789,10.783482224770147,10.86468345652708,11.108285603013211,10.832203118702774,10.897163600753304,0.07437096132289805,2.5,38.20000076293945,0.0,0.0,0.0,0.0,0.0,,,,,
arenacam6_1769712318041667840.png,1769712318041667840,1769712318.041668,42.30113220380669,-83.69745281901851,239.1796875,0.7089002131997348,0.7051910168211327,0.010107109821467463,0.007997740381151605,-0.010570000000000001,0.0024900000000000005,0.00117,1.9961,-1.5895000000000001,-10.739600000000001,4.728984035721989,10.578453548867948,13.84999942779541,13.739999771118164,13.889999389648438,13.90999984741211,11.246327232364598,11.157006496945838,11.278807570188903,11.295048126297226,11.24429735644914,0.06294339758692301,0.4000000059604645,38.29999923706055,0.0,4.0,0.0,0.0,0.0,,,,,
arenacam6_1769712318082249311.png,1769712318082249311,1769712318.0822492,42.301133074905586,-83.69745284230329,239.18112182617188,0.708961774076529,0.7051224107583826,0.010484024148118342,0.008103948556668994,-0.019410000000000004,-0.010400000000000001,0.006180000000000001,3.0458000000000003,1.6129,-9.707,4.810748366699482,10.76135545140474,14.380000114440918,14.130000114440918,13.989999771118164,13.949999809265137,11.67669267652708,11.47369037152708,11.36000880194584,11.327528464121533,11.459480078530383,0.06487329874737237,-0.9000000357627869,38.32500076293945,0.0,4.0,0.0,0.0,0.0,,,,,
arenacam6_1769712318102920945.png,1769712318102920945,1769712318.102921,42.301133074905586,-83.69745284230329,239.18112182617188,0.7089861740602125,0.7050983287088792,0.01045830896250573,0.008097877317676246,0.00458,-0.0029300000000000003,0.006850000000000001,2.126,1.6323,-10.401200000000001,4.8316351276656855,10.808077882480479,14.589999198913574,14.359999656677246,14.369999885559082,14.299999237060547,11.847213869310437,11.66045212041876,11.66857239847292,11.61173122648613,11.696992403672061,0.08224538450379618,-1.5,38.10000228881836,0.0,4.0,0.0,0.0,0.0,,,,,
arenacam6_1769712318123731953.png,1769712318123731953,1769712318.1237319,42.30113571510715,-83.69745290264164,239.1860809326172,0.7090414507901767,0.7050350378628811,0.010868787259241572,0.008227144739253065,-0.030350000000000002,0.016120000000000002,0.005410000000000001,2.4965,0.6615,-10.1598,4.9143120160904585,10.993021121273392,14.679999351501465,14.5,14.359999656677246,14.25,11.92029482301321,11.77413369,11.66045212041876,11.571131385000001,11.731503004607992,0.06717733689290477,-2.200000047683716,38.35000228881836,0.0,0.0,0.0,0.0,0.0,,,,,
arenacam6_1769712318146949422.png,1769712318146949422,1769712318.1469493,42.30113571510715,-83.69745290264164,239.1860809326172,0.7090492374811437,0.7050246239075774,0.010968833916214301,0.00831523865603034,-0.026580000000000003,0.0017400000000000002,0.0024400000000000003,2.2786,1.6115000000000002,-10.5267,4.936714394276373,11.04313389713259,15.049999237060547,14.429999351501465,14.710000038146973,14.50999927520752,12.22073814148613,11.71729251801321,11.944655657175694,11.782253193661825,11.916234877584214,0.07906279038039467,-2.6000001430511475,38.07500076293945,0.0,0.0,0.0,0.0,0.0,,,,,
arenacam6_1769712318165199057.png,1769712318165199057,1769712318.165199,42.30113660919364,-83.69745291882681,239.1879119873047,0.7090464101420423,0.7050248908822339,0.01113289517956051,0.00831565668470408,-0.0089,0.01289,-0.0064800000000000005,2.7793,-0.0029000000000000002,-10.6643,4.982434714760126,11.145407510835518,14.449999809265137,14.649999618530273,14.299999237060547,14.630000114440918,11.733533074121533,11.895934763243066,11.61173122648613,11.879694981527082,11.780223511344452,0.056957630296762915,-2.9000000953674316,38.04999923706055,0.0,0.0,0.0,0.0,0.0,,,,,
arenacam6_1769712318185697143.png,1769712318185697143,1769712318.185697,42.301137508471854,-83.69745293681704,239.1898651123047,0.7089998785086494,0.7050645610142379,0.011423781591406243,0.008522575354454928,-0.04678,0.01238,-0.0029800000000000004,2.5604,-0.229,-10.7057,5.0291332772144495,11.24986939313209,14.670000076293945,14.819999694824219,14.630000114440918,14.75,11.912175319351388,12.033976392594452,11.879694981527082,11.977135995,11.950745672118229,0.06230083696918426,-2.9000000953674316,38.0,0.0,0.0,0.0,0.0,0.0,,,,,
arenacam6_1769712318206475802.png,1769712318206475802,1769712318.2064757,42.301139346226236,-83.69745295876318,239.1947479248047,0.7089433470276519,0.7051165455692072,0.011670312636149016,0.00859020795749645,0.009430000000000001,0.005190000000000001,-0.018600000000000002,3.2339,0.7654000000000001,-10.3655,5.096064189342736,11.399589827708342,14.84999942779541,14.799999237060547,14.84999942779541,14.769999504089355,12.058336452364598,12.01773583648613,12.058336452364598,11.993375776715984,12.031946129482828,0.05547184691132071,-3.0,38.20000076293945,0.0,0.0,0.0,0.0,0.0,,,,,
arenacam6_1769712318229317704.png,1769712318229317704,1769712318.2293177,42.301139346226236,-83.69745295876318,239.1947479248047,0.70888279129735,0.7051780373464323,0.011639254293662107,0.00858205139806697,0.005200000000000001,-0.00232,-0.019820000000000004,2.3858,-0.5989,-9.8404,5.119730526218427,11.452530003319048,14.929999351501465,15.149999618530273,15.109999656677246,15.0,12.123297128013212,12.301939373243066,12.269459035418759,12.180138300000001,12.218708459168761,0.06690036661136606,-2.799999952316284,38.275001525878906,0.0,0.0,0.0,0.0,0.0,,,,,
arenacam6_1769712318247695734.png,1769712318247695734,1769712318.2476957,42.30114027067538,-83.69745296849139,239.19732666015625,0.7088520995375499,0.7052044587690633,0.011756091031687404,0.008784454285508655,-0.028490000000000005,-0.015260000000000003,-0.0006700000000000001,1.9111,0.388,-10.3756,5.163317130292045,11.550030621435488,15.15999984741211,15.130000114440918,15.339999198913574,14.929999351501465,12.310059651297227,12.28569959152708,12.456220784310437,12.123297128013212,12.29381928878699,0.06439711648652419,-2.6000001430511475,38.025001525878906,0.0,0.0,0.0,0.0,0.0,,,,,
arenacam6_1769712318288963005.png,1769712318288963005,1769712318.288963,42.30114215831821,-83.69745298332668,239.20330810546875,0.7087816502228468,0.7052819101474773,0.01142172899256942,0.00869158402848121,0.015090000000000003,-0.03869000000000001,-0.0028700000000000006,2.3325,-0.391,-11.8596,5.2633255457789945,11.773743446374864,15.589999198913574,15.239999771118164,15.34999942779541,15.359999656677246,12.659223089310435,12.375020326945839,12.464341062364598,12.472461340418759,12.492761454759908,0.061069617463630876,-2.299999952316284,38.20000076293945,0.0,0.0,0.0,0.0,0.0,,,,,
arenacam6_1769712318309805966.png,1769712318309805966,1769712318.309806,42.301143108887736,-83.6974529912113,239.20652770996094,0.7087679394440564,0.7053002757848166,0.011160030421106706,0.008659256035487624,0.02187,-0.016900000000000002,-0.0031500000000000005,2.4584,-0.3593,-11.1212,5.3293909862486935,11.921527872779153,15.949999809265137,15.50999927520752,15.369999885559082,15.489999771118164,12.951546904121534,12.594262413661824,12.480581618472918,12.578022631945839,12.65110339205053,0.061198155727777336,-2.200000047683716,38.400001525878906,0.0,0.0,0.0,0.0,0.0,,,,,
arenacam6_1769712318330489552.png,1769712318330489552,1769712318.3304896,42.301145044494824,-83.69745300887388,239.2141876220703,0.7088418931441706,0.7052316700810952,0.010761675316148044,0.008697607878465784,0.020390000000000002,-0.013320000000000002,0.00817,2.2597,0.2939,-9.0047,5.371287946513458,12.015248859073816,15.989999771118164,15.6899995803833,15.670000076293945,15.729999542236328,12.98402724194584,12.74042432106737,12.724184539351388,12.772904658891678,12.80538519031407,0.0657611290875219,-2.200000047683716,38.20000076293945,0.0,0.0,0.0,0.0,0.0,,,,,
arenacam6_1769712318371787427.png,1769712318371787427,1769712318.3717875,42.30114700961809,-83.69745303583531,239.2213592529297,0.7090067647826209,0.7050680333630877,0.010468521592862027,0.008881772213298327,0.00267,-0.012190000000000003,0.014570000000000001,1.9252,1.0506,-9.8126,5.454245675783352,12.200820321986813,16.25,15.839999198913574,15.869999885559082,15.859999656677246,13.195149825,12.862225394310435,12.88658622847292,12.878465950418759,12.955606849550529,0.061863588483762305,-2.200000047683716,38.04999923706055,0.0,0.0,0.0,0.0,0.0,,,,,
arenacam6_1769712318392765234.png,1769712318392765234,1769712318.3927653,42.30114700961809,-83.69745303583531,239.2213592529297,0.7090912745319485,0.7049859044245137,0.010266282899797492,0.008890578205524599,0.0171,-0.026640000000000004,0.012060000000000003,2.3711,0.5999,-9.797600000000001,5.5029256736623875,12.309714556442342,16.31999969482422,15.969999313354492,16.03999900817871,15.9399995803833,13.251990222594452,12.967786685837519,13.02462708343197,12.943426626067373,13.046957654482828,0.05989116113619759,-2.299999952316284,38.29999923706055,0.0,0.0,0.0,0.0,0.0,,,,,
arenacam6_1769712318413200268.png,1769712318413200268,1769712318.4132004,42.30114899924594,-83.69745306249455,239.22816467285156,0.7092138510545241,0.7048636935928189,0.01010925095708539,0.008982759719965138,-0.007040000000000001,-0.0006000000000000001,0.013300000000000001,1.806,0.9094000000000001,-9.0526,5.560868261707026,12.439328649342915,16.1299991607666,16.369998931884766,16.219999313354492,16.0,13.097708037134742,13.292590064080583,13.170788990837517,12.99214752,13.138308653013212,0.05619113566126569,-2.200000047683716,38.10000228881836,0.0,0.0,0.0,0.0,0.0,,,,,
arenacam6_1769712318434114142.png,1769712318434114142,1769712318.434114,42.30115001495938,-83.69745306978636,239.23117065429688,0.7092621671694946,0.7048163434333303,0.010047223654188735,0.008952851397420825,0.013000000000000003,-0.004260000000000001,0.01322,2.4669000000000003,1.8374000000000001,-9.2448,5.585640998220372,12.49474377455908,16.350000381469727,16.209999084472656,16.469999313354492,16.43000030517578,13.276351056756935,13.162668712783356,13.373791295837517,13.341311732405547,13.28853069944584,0.06352966809155489,-2.200000047683716,38.025001525878906,0.0,0.0,0.0,0.0,0.0,,,,,
arenacam6_1769712318455427998.png,1769712318455427998,1769712318.4554281,42.30115102929623,-83.69745308226308,239.234375,0.7093108255385995,0.7047761026806663,0.009522011140973244,0.008839070529903405,0.021150000000000002,-0.021410000000000002,0.007040000000000001,0.9143,0.3997,-9.6456,5.649288702675331,12.637119870562556,16.389999389648438,16.469999313354492,16.549999237060547,16.5,13.308830620188905,13.373791295837517,13.43875197148613,13.39815213,13.379881504378137,0.05877618012833776,-2.200000047683716,38.25,0.0,0.0,0.0,0.0,0.0,,,,,
arenacam6_1769712318476854725.png,1769712318476854725,1769712318.4768548,42.30115205219476,-83.69745308998614,239.23704528808594,0.709309598424808,0.7047799123866332,0.009476242575884895,0.008681561228849565,0.028850000000000004,0.01574,-0.00051,1.6653,0.6386000000000001,-9.4021,5.665830881377336,12.67412373178822,16.459999084472656,16.579999923706055,16.479999542236328,16.69999885559082,13.365671017783358,13.463112805648613,13.381911573891678,13.560553044729195,13.442812110513211,0.06065021890207915,-2.1000001430511475,38.20000076293945,0.0,0.0,0.0,0.0,0.0,,,,,
arenacam6_1769712318496591706.png,1769712318496591706,1769712318.4965916,42.30115308888009,-83.69745309989487,239.23983764648438,0.7093108944213409,0.704784599845694,0.009175575676221863,0.00851655367812415,0.012990000000000002,-0.0089,0.0038500000000000006,1.7644000000000002,-0.6274000000000001,-10.1476,5.734012250637084,12.826641363940121,16.59000015258789,16.690000534057617,16.729999542236328,16.709999084472656,13.471233083702774,13.55243431545971,13.58491387889168,13.568673322783358,13.544313650209379,0.0559516919438372,-2.1000001430511475,38.125,0.0,0.0,0.0,0.0,0.0,,,,,
arenacam6_1769712318516602457.png,1769712318516602457,1769712318.5166023,42.301154124236994,-83.69745310761513,239.24267578125,0.709341290668202,0.7047534340974598,0.009226141721562515,0.008509335458225816,-0.006010000000000001,0.00808,0.008730000000000002,1.4492,-0.0267,-9.887500000000001,5.74839855156386,12.858822655935262,16.729999542236328,16.799999237060547,16.729999542236328,16.65999984741211,13.58491387889168,13.641754276486129,13.58491387889168,13.528073481297227,13.58491387889168,0.05646638439494111,-1.899999976158142,38.125,0.0,0.0,0.0,0.0,0.0,,,,,
arenacam6_1769712318538390858.png,1769712318538390858,1769712318.5383909,42.30115516547543,-83.6974531212495,239.24522399902344,0.70935054033157,0.7047446743786687,0.009458981303505124,0.00820259342610013,0.00062,0.04091000000000001,0.00017,2.7444,-0.6475000000000001,-9.6257,5.802582584767013,12.980029087168722,16.899999618530273,16.94999885559082,16.899999618530273,16.889999389648438,13.722955508243064,13.763555349729195,13.722955508243064,13.714835230188905,13.731075399101057,0.05786168173342339,-1.8000000715255737,37.900001525878906,0.0,0.0,0.0,0.0,0.0,,,,,
arenacam6_1769712318599401218.png,1769712318599401218,1769712318.5994012,42.3011572786542,-83.69745314122653,239.25006103515625,0.7095114824739421,0.7045826213243868,0.010217106564705737,0.0072385563982098906,0.027950000000000003,0.043840000000000004,0.011980000000000001,2.8243,0.8369000000000001,-10.208,5.904528048368825,13.208074972518162,18.389999389648438,17.229999542236328,17.389999389648438,17.18000030517578,14.932849060188905,13.990918488891678,14.120839840188903,13.950318647405549,14.24873150916876,0.07878941774754278,-1.3000000715255737,38.20000076293945,0.0,0.0,0.0,0.0,0.0,,,,,
arenacam6_1769712318620343637.png,1769712318620343637,1769712318.6203434,42.301159424283796,-83.69745316331355,239.25465393066406,0.7095131881747343,0.7045828221888616,0.010154161527224072,0.007139711911705445,0.022960000000000005,0.00502,0.00031,2.6441000000000003,-0.4713,-10.821200000000001,5.98466952157758,13.387346639597752,18.350000381469727,17.369998931884766,17.440000534057617,17.369998931884766,14.900369496756936,14.104599284080582,14.161441230459708,14.104599284080582,14.317752323844452,0.06949888647050499,-1.399999976158142,37.900001525878906,0.0,0.0,0.0,0.0,0.0,,,,,
arenacam6_1769712318640688987.png,1769712318640688987,1769712318.640689,42.301161589207496,-83.69745318368604,239.259521484375,0.7095857193295642,0.7045172972870584,0.010122172804069738,0.006405182636614842,0.050760000000000007,0.022180000000000002,0.005190000000000001,3.2138,0.3826,-10.026200000000001,6.042319198868878,13.516305508717748,17.600000381469727,17.53999900817871,17.690000534057617,17.459999084472656,14.291362581756935,14.242640913431968,14.36444353545971,14.177680237783356,14.269031817107992,0.05569024079137236,-1.5,37.97500228881836,0.0,0.0,0.0,0.0,0.0,,,,,
arenacam6_1769712318661506064.png,1769712318661506064,1769712318.661506,42.301161589207496,-83.69745318368604,239.259521484375,0.7095768306072255,0.7045296718152345,0.010026219352953497,0.006175590887442375,0.04619,0.018770000000000002,-0.0027100000000000006,3.0762,-0.1883,-10.1331,6.07262828492765,13.584105115686059,17.56999969482422,17.59000015258789,18.170000076293945,17.44999885559082,14.267001747594453,14.283242303702774,14.754207589351388,14.169559959729195,14.368502900094452,0.0577437952465945,-1.5,37.82500076293945,0.0,0.0,0.0,0.0,0.0,,,,,
arenacam6_1769712318682227684.png,1769712318682227684,1769712318.6822276,42.301162692261805,-83.69745319390381,239.26263427734375,0.7096317447216909,0.7044785508321533,0.009851841690492592,0.005974907194532851,0.026960000000000005,0.010850000000000002,0.011540000000000002,1.3483,0.7035,-10.5873,6.105732930402826,13.658158221335297,17.779998779296875,17.579999923706055,18.139999389648438,17.670000076293945,14.437522940377809,14.275122025648614,14.729846755188905,14.348202979351388,14.44767367514168,0.05780541131622614,-1.600000023841858,37.60000228881836,0.0,0.0,0.0,0.0,0.0,,,,,
arenacam6_1769712318703183902.png,1769712318703183902,1769712318.703184,42.30116379930964,-83.69745320275747,239.26577758789062,0.7096091372915916,0.7045053945974481,0.009629748539600504,0.005855697946563807,0.022980000000000004,-0.018910000000000003,-0.0046300000000000004,2.4738,0.5820000000000001,-10.286100000000001,6.158354757617028,13.775870091503835,17.75,17.6299991607666,17.899999618530273,17.899999618530273,14.413163655,14.315721867134743,14.534964728243066,14.534964728243066,14.449703744655219,0.04891405397086066,-1.600000023841858,37.97500228881836,0.0,0.0,0.0,0.0,0.0,,,,,
arenacam6_1769712318744144034.png,1769712318744144034,1769712318.7441442,42.30116604015921,-83.69745321938292,239.27316284179688,0.7096227691436613,0.7044989879497516,0.009013432255496926,0.0059547904776804635,0.023180000000000003,-0.035,0.005640000000000001,1.9200000000000002,1.5007000000000001,-10.257200000000001,6.25153366568598,13.984305718119598,18.0,18.049999237060547,18.079999923706055,18.149999618530273,14.61616596,14.65676580148613,14.681126635648614,14.737967033243065,14.673006357594453,0.049248110943577145,-1.600000023841858,37.775001525878906,0.0,0.0,0.0,0.0,0.0,,,,,
arenacam6_1769712318806311999.png,1769712318806311999,1769712318.8063118,42.30116945805089,-83.69745324756533,239.28378295898438,0.7096271032753099,0.7045017217808677,0.008329102155249363,0.006109366757137788,-0.019600000000000003,-0.030620000000000005,0.0022600000000000003,3.0489,-1.5548000000000002,-9.951600000000001,6.367252149268613,14.243161022784932,18.5,18.35999870300293,18.869998931884766,18.440000534057617,15.02217057,14.90848822602642,15.322613114080582,14.97345045045971,15.056680590141678,0.05711650426863463,-1.5,37.85000228881836,0.0,0.0,0.0,0.0,0.0,,,,,
arenacam6_1769712318828380560.png,1769712318828380560,1769712318.8283806,42.30117176411571,-83.69745327041494,239.29014587402344,0.7097184132466198,0.7044067458341214,0.008287587481862027,0.006498170189693849,-0.012700000000000001,-0.0082,0.010600000000000002,0.7140000000000001,1.0083,-9.0851,6.387420770555167,14.288277018485676,18.59000015258789,18.56999969482422,18.60999870300293,18.619998931884766,15.095251523702775,15.079010967594453,15.111490531026423,15.119610809080582,15.101340957851058,0.05690426762537342,-1.5,37.82500076293945,0.0,0.0,0.0,0.0,0.0,,,,,
arenacam6_1769712318848086833.png,1769712318848086833,1769712318.8480868,42.30117176411571,-83.69745327041494,239.29014587402344,0.7097974450592907,0.7043152005369488,0.008754858257649092,0.007144070043683109,-0.04327000000000001,-0.008420000000000002,0.016620000000000003,1.6540000000000001,0.36160000000000003,-10.0028,6.4696762241211765,14.472277532785625,18.719999313354492,18.719999313354492,18.979999542236328,18.65999984741211,15.200812040837517,15.200812040837517,15.411934623891678,15.152091921297227,15.241412656715985,0.053145410056430586,-1.5,37.79999923706055,0.0,0.0,0.0,0.0,0.0,,,,,
arenacam6_1769712318909908243.png,1769712318909908243,1769712318.9099083,42.30117528086426,-83.69745331586991,239.29840087890625,0.7098743351758874,0.7042307921335477,0.009383841127157313,0.007025894622598823,0.005180000000000001,0.02228,0.004620000000000001,1.907,0.6672,-9.494200000000001,6.554998433873408,14.663138196668783,19.059999465942383,18.969999313354492,18.889999389648438,18.93000030517578,15.476895299540292,15.403814345837517,15.338853670188904,15.37133478240555,15.397724524493066,0.05009748376995922,-2.1000001430511475,37.35000228881836,0.0,0.0,0.0,0.0,0.0,,,,,
arenacam6_1769712318933389980.png,1769712318933389980,1769712318.9333901,42.30117765941141,-83.69745333504359,239.30328369140625,0.7099136801539596,0.7041969573842691,0.0094990871107938,0.006243339255642369,0.03146,0.04157,0.0016000000000000003,2.4572000000000003,-0.531,-9.6594,6.608143932769955,14.782021488970424,19.059999465942383,19.209999084472656,18.969999313354492,19.059999465942383,15.476895299540292,15.598696372783357,15.403814345837517,15.476895299540292,15.489075329425365,0.047832012758370575,-2.200000047683716,37.375,0.0,0.0,0.0,0.0,0.0,,,,,
arenacam6_1769712318951523821.png,1769712318951523821,1769712318.9515238,42.30117765941141,-83.69745333504359,239.30328369140625,0.7099282664295705,0.7041829335610369,0.00956510143534485,0.006063121325577478,0.016040000000000002,0.03483,0.0025900000000000003,2.4371,-0.3507,-10.0695,6.632238336998819,14.835919225566139,19.25,19.15999984741211,19.100000381469727,19.189998626708984,15.631177485000002,15.558096531297227,15.509376411756936,15.582455816675035,15.5702765611823,0.04949860702602596,-2.200000047683716,37.42499923706055,0.0,0.0,0.0,0.0,0.0,,,,,
arenacam6_1769712318971762358.png,1769712318971762358,1769712318.9717624,42.30118006660345,-83.69745335791924,239.3087921142578,0.7099673398049232,0.7041431611734306,0.009824786293591351,0.005679661723567539,0.0041400000000000005,0.02477,0.0013900000000000002,1.9384000000000001,-0.07730000000000001,-10.8308,6.694806515577332,14.975880486955557,19.19999885559082,19.19999885559082,19.209999084472656,19.299999237060547,15.590576094729194,15.590576094729194,15.598696372783357,15.671777326486131,15.612906472181969,0.04253679680345211,-2.200000047683716,37.625,0.0,0.0,0.0,0.0,0.0,,,,,
arenacam6_1769712319013377958.png,1769712319013377958,1769712319.0133781,42.30118250164965,-83.69745338596991,239.31642150878906,0.7100491305330525,0.7040554308187846,0.010078506761883698,0.005882709008807275,-0.006240000000000001,-0.01881,0.006350000000000001,2.4012000000000002,0.7707,-11.3649,6.792576310631774,15.194585652304642,19.479999542236328,19.549999237060547,19.529998779296875,19.479999542236328,15.817939233891678,15.874779631486131,15.85853907537781,15.817939233891678,15.842299293661824,0.04262792393150516,-2.1000001430511475,37.625,0.0,0.0,0.0,0.0,0.0,,,,,
arenacam6_1769712319054887203.png,1769712319054887203,1769712319.054887,42.301184974716236,-83.69745340524318,239.3260955810547,0.71019707090041,0.7039077787171847,0.009666795583742357,0.006364951614825681,0.023330000000000004,-0.03595000000000001,0.003910000000000001,2.553,0.4829,-10.144400000000001,6.899119138643691,15.43291556599762,19.809999465942383,19.920000076293945,20.389999389648438,19.81999969482422,16.08590221454029,16.175223724351387,16.556867500188904,16.094022492594455,16.228003982918757,0.05151900258386083,-2.1000001430511475,37.79999923706055,0.0,0.0,0.0,0.0,0.0,,,,,
arenacam6_1769712319075523251.png,1769712319075523251,1769712319.0755234,42.301184974716236,-83.69745340524318,239.3260955810547,0.7102427841546943,0.7038640778024005,0.009431969456284042,0.006448681085306367,0.021240000000000002,-0.04526,0.012160000000000002,2.2392000000000003,-0.13570000000000002,-10.566600000000001,6.921007979212432,15.48187958901946,19.85999870300293,20.100000381469727,20.09000015258789,20.079999923706055,16.12650205602642,16.321385631756936,16.313265353702775,16.305145075648614,16.266574529283687,0.05068473344933991,-2.1000001430511475,37.85000228881836,0.0,0.0,0.0,0.0,0.0,,,,,
arenacam6_1769712319096122914.png,1769712319096122914,1769712319.096123,42.30118747357095,-83.69745341979939,239.33651733398438,0.7103846088350402,0.703730727081507,0.008640347909614243,0.0064896594380215965,0.048150000000000005,-0.04454,0.00727,1.6008,0.5713,-9.977500000000001,6.964612314157217,15.579419870030847,19.889999389648438,20.18000030517578,20.18000030517578,20.119998931884766,16.150862890188904,16.38634630740555,16.38634630740555,16.337624639080584,16.315295036020146,0.047233797672072225,-2.1000001430511475,37.75,0.0,0.0,0.0,0.0,0.0,,,,,
arenacam6_1769712319117053436.png,1769712319117053436,1769712319.1170535,42.30118747357095,-83.69745341979939,239.33651733398438,0.7104223989991207,0.7036965231246181,0.008414023631423871,0.006357872992453152,0.050620000000000005,-0.013720000000000001,0.01007,1.3068,0.2325,-9.2635,6.977357837763443,15.607930841606558,20.170000076293945,20.079999923706055,20.270000457763672,20.079999923706055,16.37822602935139,16.305145075648614,16.459427261108324,16.305145075648614,16.361985860439237,0.048312298823273245,-2.0,37.525001525878906,0.0,0.0,0.0,0.0,0.0,,,,,
arenacam6_1769712319137962805.png,1769712319137962805,1769712319.1379628,42.30118998814341,-83.69745343073083,239.3465576171875,0.7105748677969591,0.7035493745215968,0.007897665409979557,0.006265919459750167,0.022970000000000004,-0.028220000000000002,0.01352,1.5906,1.2844,-8.4513,7.035321127500201,15.737591242950302,20.40999984741211,20.369998931884766,20.44999885559082,20.119998931884766,16.573108056297226,16.540626944080582,16.605587619729196,16.337624639080584,16.5142368147969,0.049349710502520364,-2.0,37.82500076293945,0.0,0.0,0.0,0.0,0.0,,,,,
arenacam6_1769712319158016917.png,1769712319158016917,1769712319.158017,42.30118998814341,-83.69745343073083,239.3465576171875,0.710630711673865,0.7034958290720265,0.007727683571664262,0.0061557299140282545,0.039310000000000005,-0.009290000000000001,0.013570000000000002,0.9336000000000001,1.5544,-8.3505,7.044298232065534,15.757672487236677,20.479999542236328,20.389999389648438,20.579999923706055,20.1299991607666,16.62994845389168,16.556867500188904,16.711149685648614,16.34574491713474,16.560927639215986,0.05097549480292384,-2.0,37.75,0.0,0.0,0.0,0.0,0.0,,,,,
arenacam6_1769712319179186137.png,1769712319179186137,1769712319.179186,42.30119253167359,-83.69745342324484,239.35455322265625,0.7107171993460552,0.7034194833257559,0.007220693145011052,0.005473081575480534,0.0695,0.0025400000000000006,0.00632,2.2427,1.2347000000000001,-8.2247,7.105924247257725,15.895526185660698,20.479999542236328,20.520000457763672,20.389999389648438,20.31999969482422,16.62994845389168,16.662429566108322,16.556867500188904,16.50002710259445,16.58731815569584,0.04352117457169839,-2.0,38.04999923706055,0.0,0.0,0.0,0.0,0.0,,,,,
arenacam6_1769712319199590307.png,1769712319199590307,1769712319.1995904,42.30119510047412,-83.69745340123309,239.36044311523438,0.7107796581175126,0.703371044690712,0.006425691321298153,0.004490165708697324,0.09630000000000001,0.0202,0.0027400000000000002,1.332,1.0891,-8.8856,7.149378311590594,15.992730320329464,20.68000030517578,20.60999870300293,20.389999389648438,20.420000076293945,16.79235091740555,16.735508971026423,16.556867500188904,16.581228334351387,16.666488930743064,0.042129054696629184,-2.1000001430511475,37.5,0.0,0.0,0.0,0.0,0.0,,,,,
arenacam6_1769712319220456121.png,1769712319220456121,1769712319.2204561,42.30119510047412,-83.69745340123309,239.36044311523438,0.7107556361364414,0.7034002226436538,0.006184260820060498,0.004038242594244226,0.09823000000000001,0.029310000000000006,-0.007180000000000001,1.5241,0.08020000000000001,-8.6392,7.164374594308938,16.026276104993435,20.59000015258789,20.689998626708984,20.44999885559082,20.579999923706055,16.719269963702775,16.800469646675033,16.605587619729196,16.711149685648614,16.709119228938903,0.04260772243482742,-2.4000000953674316,37.85000228881836,0.0,0.0,0.0,0.0,0.0,,,,,
arenacam6_1769712319240793236.png,1769712319240793236,1769712319.2407932,42.30119639056352,-83.69745338645129,239.36302185058594,0.7108234925376994,0.7033388954915494,0.005876846650124976,0.003134201443021183,0.08343000000000002,0.04505000000000001,0.015170000000000001,2.1673,0.4203,-8.9305,7.200624788185695,16.10736561368411,20.65999984741211,20.770000457763672,20.639999389648438,20.600000381469727,16.776110361297228,16.86543187110832,16.759869805188906,16.727390241756936,16.782200569837848,0.04189604758089231,-2.4000000953674316,38.025001525878906,0.0,0.0,0.0,0.0,0.0,,,,,
arenacam6_1769712319263660630.png,1769712319263660630,1769712319.2636604,42.30119768978631,-83.69745337609042,239.36529541015625,0.7108170359475897,0.70335028749405,0.005569557031302243,0.0025484354406261896,0.053500000000000006,0.012520000000000002,-0.00525,2.5179,-1.3767,-10.9595,7.253500246082058,16.2256448404708,21.010000228881836,20.689998626708984,20.760000228881836,20.719999313354492,17.06031389805416,16.800469646675033,16.857311593054163,16.824830480837516,16.885731404655218,0.0406816844984797,-2.4000000953674316,38.60000228881836,0.0,0.0,0.0,0.0,0.0,,,,,
arenacam6_1769712319303314499.png,1769712319303314499,1769712319.3033144,42.3012003134555,-83.6974533647001,239.3709259033203,0.7110079140893548,0.7031536776976207,0.0060071948065234665,0.0025622749991875736,-0.029640000000000003,-0.0008200000000000001,0.012040000000000002,3.053,0.6737000000000001,-10.1136,7.334846501682312,16.407611533473233,21.010000228881836,20.829999923706055,21.1299991607666,20.899999618530273,17.06031389805416,16.914151990648616,17.157754137134745,16.970992388243065,17.025803103520147,0.037677121303471804,-2.1000001430511475,39.10000228881836,0.0,0.0,0.0,0.0,0.0,,,,,
arenacam6_1769712319344252511.png,1769712319344252511,1769712319.3442523,42.30120296634402,-83.69745337413833,239.3783416748047,0.7112344558788877,0.7029217581412636,0.006057073682538765,0.003140471407602596,-0.017400000000000002,-0.008530000000000001,0.017350000000000004,1.7849000000000002,-0.034800000000000005,-11.0624,7.402770997555383,16.55955455527154,21.100000381469727,21.25,21.209999084472656,21.189998626708984,17.133394851756936,17.255195925000002,17.222714812783355,17.206474256675033,17.204444961553833,0.038943704924538566,-2.1000001430511475,38.775001525878906,0.0,0.0,0.0,0.0,0.0,,,,,
arenacam6_1769712319365647325.png,1769712319365647325,1769712319.3656473,42.30120564346341,-83.69745338085237,239.38665771484375,0.7114146484073821,0.7027424441912904,0.00558956226350942,0.003318426909633981,0.02238,-0.04161,0.017750000000000002,2.0158,-0.4747,-10.6014,7.468078957371584,16.705644542902792,21.1299991607666,21.28999900817871,21.309999465942383,21.34000015258789,17.157754137134745,17.28767548843197,17.30391604454029,17.328276878702773,17.269405637202446,0.033746743075481124,-2.200000047683716,39.04999923706055,0.0,0.0,0.0,0.0,0.0,,,,,
arenacam6_1769712319385885910.png,1769712319385885910,1769712319.385886,42.30120564346341,-83.69745338085237,239.38665771484375,0.7116038115052996,0.7025532707199732,0.005253573422242103,0.0033641073251863374,0.021150000000000002,-0.020460000000000006,0.023600000000000003,1.2109,-0.2614,-10.2349,7.491741907065267,16.758577141590578,21.510000228881836,21.34000015258789,21.35999870300293,21.40999984741211,17.46631850805416,17.328276878702773,17.34451588602642,17.385117276297226,17.381057137270147,0.03714396457529382,-2.200000047683716,39.25,0.0,0.0,0.0,0.0,0.0,,,,,
arenacam6_1769712319406825534.png,1769712319406825534,1769712319.4068255,42.301208348669086,-83.6974533881061,239.39569091796875,0.7117481773306386,0.7024092167190545,0.00494988961886443,0.0033649557796335268,0.024420000000000004,-0.022030000000000004,0.021200000000000004,2.3933,0.2008,-9.5896,7.533855396702619,16.85278249109996,21.639999389648438,21.439998626708984,21.44999885559082,21.489999771118164,17.571879025188903,17.409476561675035,17.417596839729196,17.45007795194584,17.462257594634746,0.03616465731143534,-2.200000047683716,39.72500228881836,0.0,0.0,0.0,0.0,0.0,,,,,
arenacam6_1769712319427042730.png,1769712319427042730,1769712319.4270427,42.301208348669086,-83.6974533881061,239.39569091796875,0.7119152375568981,0.702239820785906,0.004738757867382303,0.003670532762206857,-0.02806,-0.044610000000000004,0.024480000000000005,1.9916,-2.2425,-10.1118,7.578278089088765,16.952153388606224,21.639999389648438,21.579999923706055,21.619998931884766,21.649999618530273,17.571879025188903,17.523158905648614,17.55563846908058,17.579999303243067,17.557668925790292,0.03571909263108979,-2.0,39.97500228881836,0.0,0.0,0.0,0.0,0.0,,,,,
arenacam6_1769712319448452155.png,1769712319448452155,1769712319.448452,42.30121108210524,-83.69745341561975,239.40496826171875,0.7121033380175644,0.7020422718994022,0.005088415130351439,0.004426339574577183,-0.08645000000000001,-0.015160000000000003,0.025750000000000006,1.296,-0.2617,-9.8719,7.60188589592472,17.004962636029845,21.639999389648438,21.719999313354492,21.65999984741211,21.869998931884766,17.571879025188903,17.63683970083752,17.588119581297228,17.758640774080583,17.638869770351057,0.037277772841329285,-1.7000000476837158,39.85000228881836,0.0,0.0,0.0,0.0,0.0,,,,,
arenacam6_1769712319468557163.png,1769712319468557163,1769712319.4685571,42.301212454387084,-83.69745342783402,239.4093475341797,0.7123073526985969,0.7018236183413074,0.005557009318950178,0.005564501528506383,-0.05867000000000001,-0.027490000000000004,0.011930000000000003,1.0425,1.0828,-8.4946,7.6540279783809595,17.121601345959505,21.729999542236328,21.809999465942383,21.809999465942383,22.15999984741211,17.644959978891677,17.70992065454029,17.70992065454029,17.994124191297228,17.764731369817373,0.03756249260000666,-1.5,39.525001525878906,0.0,0.0,0.0,0.0,0.0,,,,,
arenacam6_1769712319489388974.png,1769712319489388974,1769712319.489389,42.301212454387084,-83.69745342783402,239.4093475341797,0.7123487971700916,0.7017790828585189,0.0056918543916493845,0.005736970120532714,-0.043480000000000005,-0.0051,0.012090000000000002,1.061,0.6264000000000001,-8.871400000000001,7.664568804306168,17.14518054110464,21.8799991607666,21.770000457763672,21.78999900817871,22.260000228881836,17.766761052134743,17.677441091108324,17.69368009843197,18.075325423054164,17.8033019161823,0.038385211138479924,-1.2000000476837158,39.70000076293945,0.0,0.0,0.0,0.0,0.0,,,,,
arenacam6_1769712319510181316.png,1769712319510181316,1769712319.5101814,42.301213835595036,-83.69745344422726,239.41371154785156,0.7123902779789506,0.7017347321253468,0.00580094237866046,0.005899715040660133,-0.03846,-0.0073500000000000015,0.012060000000000003,1.3963,0.2939,-9.332,7.678555389671859,17.17646769337257,21.979999542236328,22.06999969482422,21.939998626708984,22.15999984741211,17.84796228389168,17.921043237594454,17.815481171675035,17.994124191297228,17.8946527211146,0.0418121490729516,-1.100000023841858,39.97500228881836,0.0,0.0,0.0,0.0,0.0,,,,,
arenacam6_1769712319592553027.png,1769712319592553027,1769712319.592553,42.30122082840428,-83.697453456738,239.4341278076172,0.7126613384339215,0.7014611210847014,0.0052567315634628,0.006203150927946797,0.04640000000000001,-0.007230000000000001,-0.00239,1.2435,0.4892,-8.7958,7.838054859073822,17.5332584364566,22.60999870300293,22.329999923706055,22.709999084472656,22.479999542236328,18.359527411026423,18.132165820648613,18.440728642783355,18.25396689389168,18.296597192087518,0.04353661690423281,0.4000000059604645,40.57500076293945,0.0,0.0,0.0,0.0,0.0,,,,,
arenacam6_1769712319615396259.png,1769712319615396259,1769712319.6153963,42.30122224558127,-83.69745345037468,239.43759155273438,0.7127193759347467,0.7014058713984344,0.005015144195169008,0.0059785503000213715,0.02553,-0.006820000000000001,0.010920000000000003,2.2502,0.7324,-10.639800000000001,7.877593673320249,17.621704391597,22.600000381469727,22.579999923706055,22.600000381469727,22.75,18.351408681756936,18.33516812564861,18.351408681756936,18.473209755000003,18.37779881104062,0.04290699711227524,0.5,40.17499923706055,0.0,0.0,0.0,0.0,0.0,,,,,
arenacam6_1769712319635388210.png,1769712319635388210,1769712319.6353881,42.30122367049598,-83.69745344151902,239.44168090820312,0.7126927315735828,0.7014398114575557,0.004476151066573876,0.0055879635112464875,0.04519000000000001,0.00477,0.00096,0.9460000000000001,-0.2555,-9.7623,7.919062814176952,17.714468371544992,22.559999465942383,22.65999984741211,22.689998626708984,22.600000381469727,18.318927569540293,18.400128801297228,18.424488086675034,18.351408681756936,18.37373828481737,0.03721646619276329,0.9000000357627869,40.125,0.0,0.0,0.0,0.0,0.0,,,,,
arenacam6_1769712319820518173.png,1769712319820518173,1769712319.8205183,42.30123527434127,-83.69745338002265,239.4664764404297,0.7126845328684885,0.7014483405869457,0.005794982874690161,0.004171363245565867,0.006970000000000001,0.027930000000000007,0.0017000000000000001,3.0498000000000003,1.3312000000000002,-9.2117,8.264952523050365,18.488202896912284,23.389999389648438,23.40999984741211,23.760000228881836,23.719999313354492,18.992895160188905,19.009135716297227,19.29333925305416,19.260858140837517,19.13905706759445,0.03520375529797248,1.0,40.42499923706055,0.0,0.0,0.0,0.0,0.0,,,,,
arenacam6_1769712319841519894.png,1769712319841519894,1769712319.8415198,42.30123824302994,-83.69745336808238,239.4734344482422,0.7126337523218338,0.7015002867053776,0.005761446449518541,0.004157948867604562,0.006720000000000001,-0.003,-0.014700000000000003,2.7849,-0.39030000000000004,-10.4985,8.292501179718984,18.549827588960586,23.639999389648438,23.739999771118164,23.739999771118164,23.689998626708984,19.195897465188906,19.277098696945842,19.277098696945842,19.236497306675037,19.246648041438906,0.03756479401959583,1.100000023841858,40.375,0.0,0.0,0.0,0.0,0.0,,,,,
arenacam6_1769712319861753248.png,1769712319861753248,1769712319.8617532,42.30124123863874,-83.69745336096143,239.4816131591797,0.7125982777538368,0.7015376352044693,0.005726270958468303,0.0039813006539034974,0.01635,0.029220000000000003,-0.0075200000000000015,1.8737000000000001,-1.4754,-12.0336,8.329224145514527,18.631974660067268,23.84000015258789,23.670000076293945,23.869998931884766,23.760000228881836,19.358299928702774,19.220258299351386,19.382659214080583,19.29333925305416,19.313639173797227,0.036585736411016485,1.2000000476837158,40.32500076293945,0.0,0.0,0.0,0.0,0.0,,,,,
arenacam6_1769712319882827925.png,1769712319882827925,1769712319.882828,42.30124123863874,-83.69745336096143,239.4816131591797,0.7125821014821657,0.7015536283377486,0.00573112094069582,0.0040508599289061035,-0.010520000000000002,-0.008960000000000003,-0.004670000000000001,2.6943,-1.1372,-11.2531,8.355948399619908,18.69175521304576,23.85999870300293,23.829999923706055,23.989999771118164,23.94999885559082,19.374538936026422,19.350179650648617,19.48010100194584,19.447619889729197,19.41310986958752,0.038592130504592516,1.2000000476837158,40.25,0.0,0.0,0.0,0.0,0.0,,,,,
arenacam6_1769712319923576199.png,1769712319923576199,1769712319.9235764,42.30124425582081,-83.6974533552744,239.49008178710938,0.7125561611999393,0.7015826425470002,0.005534428373674827,0.0038578381706178273,0.01071,-0.006710000000000001,-0.005870000000000001,2.0496000000000003,-2.1067,-9.7138,8.434845665195875,18.86824366230326,24.079999923706055,24.189998626708984,24.10999870300293,24.25,19.553181955648615,19.642501916675034,19.57754124102642,19.691223585,19.616112174587517,0.03963636073761427,1.2000000476837158,40.17499923706055,0.0,0.0,0.0,0.0,0.0,,,,,
arenacam6_1769712319944877712.png,1769712319944877712,1769712319.9448779,42.301245776036474,-83.69745335655989,239.49383544921875,0.7125903022202713,0.7015455637316695,0.005758973965035722,0.003964518748389166,-0.021530000000000004,0.029960000000000007,0.0036700000000000005,1.0312000000000001,0.8874000000000001,-9.1967,8.450300324353172,18.902814807558585,24.18000030517578,24.229999542236328,24.28999900817871,24.239999771118164,19.63438318740555,19.67498302889168,19.72370314843197,19.68310330694584,19.67904316791876,0.041064167864025634,1.2000000476837158,40.17499923706055,0.0,0.0,0.0,0.0,0.0,,,,,
arenacam6_1769712319965067237.png,1769712319965067237,1769712319.9650671,42.30124730204363,-83.69745335913125,239.4976348876953,0.7125178050761773,0.7016156903759158,0.006062874896204215,0.004128197639010232,-0.04349000000000001,-0.009930000000000001,0.00048,2.3718,-1.2597,-11.014700000000001,8.5240456036094,19.067778572538014,24.149999618530273,24.3799991607666,24.299999237060547,24.399999618530273,19.610022353243064,19.796784102134744,19.73182342648613,19.813024658243066,19.73791363502675,0.03514489430110567,1.2000000476837158,40.29999923706055,0.0,0.0,0.0,0.0,0.0,,,,,
arenacam6_1769712319986192604.png,1769712319986192604,1769712319.9861927,42.30124883280999,-83.69745336298509,239.501708984375,0.7125718320899367,0.7015582829937217,0.006190120058782105,0.004363724160602642,-0.05130000000000001,-0.015060000000000002,0.015560000000000001,1.0694000000000001,0.6354000000000001,-10.610100000000001,8.534490161432217,19.091142421714185,24.51999855041504,24.51999855041504,24.399999618530273,24.420000076293945,19.910464897323646,19.910464897323646,19.813024658243066,19.82926521435139,19.865804916810436,0.04057706333043503,1.2000000476837158,40.32500076293945,0.0,0.0,0.0,0.0,0.0,,,,,
arenacam6_1769712320006667929.png,1769712320006667929,1769712320.006668,42.30125037453325,-83.69745336778604,239.50576782226562,0.7125128365319184,0.701613696445042,0.006523498045188006,0.004595945084358,-0.03144,-0.004300000000000001,-0.00661,2.4205,-0.9534,-9.2455,8.592991474577385,19.222006349141136,24.44999885559082,24.549999237060547,24.439998626708984,24.40999984741211,19.853624499729197,19.93482573148613,19.845504221675036,19.821144936297227,19.863774847296895,0.03338717543314276,1.0,40.400001525878906,0.0,0.0,0.0,0.0,0.0,,,,,
arenacam6_1769712320028388455.png,1769712320028388455,1769712320.0283883,42.30125191921882,-83.69745337865133,239.50970458984375,0.712525128404876,0.70159874121643,0.0066363310114079125,0.004806955985140581,-0.045910000000000006,-0.013510000000000003,0.0035100000000000005,2.4044000000000003,-0.9061,-9.9534,8.616702840838462,19.27504725278519,24.649999618530273,24.53999900817871,24.489999771118164,24.670000076293945,20.016026963243064,19.92670545343197,19.88610561194584,20.03226751935139,19.965276386993068,0.03580946521976193,1.0,40.42499923706055,0.0,0.0,0.0,0.0,0.0,,,,,
arenacam6_1769712320068581643.png,1769712320068581643,1769712320.0685816,42.3012565974971,-83.69745340825052,239.52157592773438,0.7125156940356009,0.7015938845790572,0.0073722328154869066,0.005749526723896005,-0.06575,0.013590000000000001,0.01284,1.8536000000000001,1.1291,-8.065800000000001,8.711916733821036,19.48803501855363,24.779998779296875,24.90999984741211,24.760000228881836,24.93000030517578,20.12158748037781,20.227149546297223,20.10534847305416,20.24339010240555,20.174368900533686,0.035218218836667155,0.800000011920929,40.45000076293945,0.0,0.0,0.0,0.0,0.0,,,,,
arenacam6_1769712320089432467.png,1769712320089432467,1769712320.0894325,42.30125816891144,-83.69745341781201,239.5254364013672,0.7125481907915292,0.7015597102121615,0.007436911746595471,0.005808713318773308,-0.017390000000000003,0.0007700000000000001,0.009400000000000002,2.0479000000000003,3.8452,-7.9914000000000005,8.732134764531827,19.533261540171825,24.889999389648438,24.739999771118164,24.94999885559082,25.029998779296875,20.210908990188905,20.08910791694584,20.259629109729193,20.32458978537781,20.221058950560437,0.03521160093894701,0.6000000238418579,40.35000228881836,0.0,0.0,0.0,0.0,0.0,,,,,
arenacam6_1769712320109864907.png,1769712320109864907,1769712320.109865,42.30125816891144,-83.69745341781201,239.5254364013672,0.7124486304589627,0.7016651113510468,0.007133339615366401,0.005668856657523259,0.02578,-0.027140000000000004,-0.01984,1.7610000000000001,-2.2199,-11.7178,8.775550946232384,19.63038093366507,25.03999900817871,25.119998931884766,24.959999084472656,25.0,20.332710063431968,20.397670739080585,20.267749387783354,20.3002305,20.324590172573977,0.03536402279990274,0.4000000059604645,40.35000228881836,0.0,0.0,0.0,0.0,0.0,,,,,
arenacam6_1769712320130841591.png,1769712320130841591,1769712320.1308415,42.30126132781575,-83.69745343143481,239.53338623046875,0.7124726183796944,0.7016355666575094,0.0074060042932042654,0.0059540541471225445,-0.050050000000000004,0.014210000000000002,0.018280000000000005,0.3294,0.6149,-11.1846,8.785637569066276,19.652944103747117,25.0,25.15999984741211,25.06999969482422,25.15999984741211,20.3002305,20.430151851297225,20.357070897594454,20.430151851297225,20.379401275047226,0.03696429234547096,0.30000001192092896,40.57500076293945,0.0,0.0,0.0,0.0,0.0,,,,,
arenacam6_1769712320153291921.png,1769712320153291921,1769712320.153292,42.30126132781575,-83.69745343143481,239.53338623046875,0.7125341279237245,0.7015721239235543,0.007542394833136787,0.005897775644355303,0.006120000000000001,-0.00384,-0.0024600000000000004,3.7842000000000002,1.1002,-8.7935,8.846567384894353,19.789240445965575,25.28999900817871,25.229999542236328,25.170000076293945,25.239999771118164,20.53571236843197,20.486992248891678,20.43827212935139,20.49511252694584,20.48902231840522,0.03536173479474338,0.30000001192092896,40.32500076293945,0.0,0.0,0.0,0.0,0.0,,,,,
arenacam6_1769712320171916693.png,1769712320171916693,1769712320.1719167,42.3012645135063,-83.69745345912325,239.5426483154297,0.7124537002134588,0.7016535483290415,0.007423611704725447,0.006075620023816496,-0.011090000000000001,-0.011580000000000002,-0.003790000000000001,0.4511,-1.0469,-10.2471,8.870952432119676,19.84378833350579,25.299999237060547,25.31999969482422,25.28999900817871,25.31999969482422,20.54383264648613,20.560073202594452,20.53571236843197,20.560073202594452,20.54992285502675,0.03558466305189669,0.20000000298023224,40.35000228881836,0.0,0.0,0.0,0.0,0.0,,,,,
arenacam6_1769712320193037756.png,1769712320193037756,1769712320.1930377,42.3012645135063,-83.69745345912325,239.5426483154297,0.712493818770502,0.7016101656286913,0.007582584191539424,0.006183697703302766,-0.011720000000000001,0.00289,0.0035600000000000002,2.1193,1.8677000000000001,-10.8521,8.903573296893269,19.91675925075243,25.56999969482422,25.43000030517578,25.489999771118164,25.43000030517578,20.763075507594454,20.64939471240555,20.69811483194584,20.64939471240555,20.68999494108785,0.038823368832266565,0.20000000298023224,40.54999923706055,0.0,0.0,0.0,0.0,0.0,,,,,
arenacam6_1769712320213464784.png,1769712320213464784,1769712320.2134647,42.30126772383464,-83.69745346897912,239.55209350585938,0.7124610730583456,0.7016479192036763,0.007280684354664211,0.006033944732070433,0.0013000000000000002,-0.013560000000000003,-0.0023500000000000005,2.1967000000000003,-1.387,-10.0052,8.967273934314262,20.059253754624947,25.459999084472656,25.420000076293945,25.51999855041504,25.510000228881836,20.673753997783358,20.641274434351388,20.72247411732365,20.714355388054162,20.68796448437814,0.03134267792032058,0.10000000149011612,40.625,0.0,0.0,0.0,0.0,0.0,,,,,
arenacam6_1769712320234207692.png,1769712320234207692,1769712320.2342076,42.30126772383464,-83.69745346897912,239.55209350585938,0.7124998995918709,0.701607802423442,0.007232268954624678,0.006170814037903246,-0.012400000000000001,-0.026340000000000002,0.011840000000000002,1.4282000000000001,0.8902,-10.294500000000001,8.981212412961332,20.090433295049724,25.649999618530273,25.51999855041504,25.829999923706055,25.639999389648438,20.828036183243064,20.72247411732365,20.974198090648613,20.819915905188903,20.83615607410106,0.03711830243278427,0.10000000149011612,40.45000076293945,0.0,0.0,0.0,0.0,0.0,,,,,
arenacam6_1769712320256096613.png,1769712320256096613,1769712320.2560966,42.301270962139434,-83.69745348030428,239.5616912841797,0.712494855923379,0.7016175085429229,0.006832255233827559,0.006105102551501503,0.018160000000000003,-0.01786,-0.005640000000000001,1.9801000000000002,-0.6734,-9.432400000000001,9.037507528073673,20.216362089849124,25.719999313354492,25.65999984741211,25.809999465942383,25.81999969482422,20.884876580837517,20.83615646129723,20.95795753454029,20.966077812594452,20.911267097317374,0.03437339539031953,0.0,40.5,0.0,0.0,0.0,0.0,0.0,,,,,
arenacam6_1769712320275847490.png,1769712320275847490,1769712320.2758474,42.301272591590454,-83.69745348093349,239.56700134277344,0.7125362427916435,0.7015756819350679,0.006736146757368485,0.006187855248449409,0.0018000000000000004,-0.02542,0.011490000000000002,1.9401000000000002,-0.46790000000000004,-10.016300000000001,9.05673101389917,20.259363874231614,25.809999465942383,25.779998779296875,25.84000015258789,25.90999984741211,20.95795753454029,20.93359670037781,20.982318368702774,21.039158766297227,20.97825784247953,0.035484528177229406,0.0,40.5,0.0,0.0,0.0,0.0,0.0,,,,,
arenacam6_1769712320316840743.png,1769712320316840743,1769712320.3168406,42.30127586630328,-83.69745349106073,239.576904296875,0.7126285840975712,0.701480017888697,0.0064118372226434715,0.006721158634815298,-0.00905,-0.00229,0.014010000000000002,0.9248000000000001,1.0095,-8.7288,9.113376941823276,20.38607741624216,25.969999313354492,26.03999900817871,25.959999084472656,26.170000076293945,21.08787888583752,21.144719283431968,21.079758607783358,21.25028134935139,21.14065953160106,0.03701458107667655,0.0,40.32500076293945,0.0,0.0,0.0,0.0,0.0,,,,,
arenacam6_1769712320359232798.png,1769712320359232798,1769712320.3592327,42.30127916727775,-83.69745350173831,239.58584594726562,0.7126225472180004,0.7014843258828367,0.006210608588750817,0.007090421580437822,-0.022910000000000003,-0.04131,0.0065000000000000014,0.5795,-0.0471,-9.657300000000001,9.187572053288473,20.55204742888312,26.219999313354492,26.260000228881836,26.329999923706055,26.1299991607666,21.290881190837517,21.323362303054164,21.380202700648614,21.217800237134743,21.303061607918757,0.03654206139969232,-0.10000000149011612,40.67499923706055,0.0,0.0,0.0,0.0,0.0,,,,,
arenacam6_1769712320379912874.png,1769712320379912874,1769712320.3799129,42.30128082311991,-83.69745350763714,239.58985900878906,0.7126236189426477,0.7014784459117838,0.006543679357674095,0.007262775415547702,-0.02593,0.008640000000000002,-0.007820000000000002,1.5292000000000001,0.38270000000000004,-8.4749,9.229908028949666,20.646750466278668,26.369998931884766,26.31999969482422,26.34000015258789,26.40999984741211,21.412682264080583,21.372082422594453,21.388322978702774,21.445163376297227,21.40456276041876,0.03670370770343688,-0.10000000149011612,40.60000228881836,0.0,0.0,0.0,0.0,0.0,,,,,
arenacam6_1769712320400725984.png,1769712320400725984,1769712320.400726,42.30128248726117,-83.69745351374912,239.59388732910156,0.7126460152539951,0.7014510289112436,0.006766716403679616,0.007504833847118027,-0.04093000000000001,-0.015790000000000002,0.00506,1.4321000000000002,-0.4738,-9.598600000000001,9.266719739810657,20.729096054772054,26.399999618530273,26.439998626708984,26.5,26.439998626708984,21.437043098243066,21.469522661675033,21.51824433,21.469522661675033,21.47358318789828,0.03591507951717166,-0.10000000149011612,40.625,0.0,0.0,0.0,0.0,0.0,,,,,
arenacam6_1769712320420472817.png,1769712320420472817,1769712320.4204729,42.30128415474027,-83.69745351952362,239.59754943847656,0.7126384047751779,0.7014548683915577,0.007134298951599939,0.007528175591835062,-0.01657,0.030730000000000004,-0.0056700000000000006,1.2049,0.4133,-9.8751,9.28266040456693,20.764754365391948,26.489999771118164,26.56999969482422,26.510000228881836,26.53999900817871,21.510124051945837,21.575084727594454,21.526364608054163,21.550723893431968,21.540574320256606,0.03736234685047355,-0.10000000149011612,40.54999923706055,0.0,0.0,0.0,0.0,0.0,,,,,
arenacam6_1769712320442318919.png,1769712320442318919,1769712320.442319,42.301285826407785,-83.69745352638624,239.60110473632812,0.7126267615595233,0.7014648415797169,0.007443380959996374,0.00740073081616878,-0.00837,0.02091,0.00521,1.9185,1.5011,-9.4562,9.321830884555606,20.85237637889782,26.6299991607666,26.689998626708984,26.69999885559082,26.69999885559082,21.623804847134743,21.672524966675034,21.680645244729195,21.680645244729195,21.66440507581704,0.03894178208585268,-0.10000000149011612,40.525001525878906,0.0,0.0,0.0,0.0,0.0,,,,,
arenacam6_1769712320461811637.png,1769712320461811637,1769712320.4618118,42.30128750603543,-83.69745353183392,239.60472106933594,0.7126147274060891,0.7014811281161095,0.007486982899373107,0.006958611065453062,0.030750000000000003,0.040130000000000006,-0.008270000000000001,1.7589000000000001,-1.2883,-9.791,9.353411121869783,20.923019474955392,26.619998931884766,26.739999771118164,26.779998779296875,26.729999542236328,21.61568456908058,21.71312635694584,21.74560592037781,21.705006078891678,21.694855731323976,0.03688933412753654,-0.10000000149011612,40.525001525878906,0.0,0.0,0.0,0.0,0.0,,,,,
arenacam6_1769712320483466606.png,1769712320483466606,1769712320.4834664,42.301290879972726,-83.69745353647264,239.61228942871094,0.7126872639903294,0.7014075725394476,0.007827483497340769,0.006558310178458985,0.021730000000000003,0.05281000000000001,0.018680000000000006,2.3228,1.7004000000000001,-10.6308,9.400128974805538,21.0275245089015,26.76999855041504,26.76999855041504,26.849998474121094,26.8799991607666,21.737485642323648,21.737485642323648,21.80244631797226,21.82680715213474,21.77605618868857,0.03559770811206036,-0.10000000149011612,40.47500228881836,0.0,0.0,0.0,0.0,0.0,,,,,
arenacam6_1769712320525029647.png,1769712320525029647,1769712320.5250297,42.30129428152664,-83.69745354365052,239.62091064453125,0.7127245665629419,0.7013734820424262,0.007849158885627245,0.0061091415221120795,-0.00395,0.026780000000000005,0.014110000000000001,0.7598,-0.14750000000000002,-10.118,9.461422793232947,21.164635103094508,26.899999618530273,26.979999542236328,26.989999771118164,27.06999969482422,21.843047708243066,21.908008383891676,21.91612866194584,21.98108933759445,21.91206852291876,0.03531520464130127,0.0,40.25,0.0,0.0,0.0,0.0,0.0,,,,,
arenacam6_1769712320544544401.png,1769712320544544401,1769712320.5445445,42.30129428152664,-83.69745354365052,239.62091064453125,0.7127515642155727,0.7013452791413262,0.008011501664723693,0.005985229778841363,-0.005070000000000001,0.04043000000000001,0.00817,2.5611,0.5206000000000001,-10.1372,9.48685337680744,21.221521792715638,27.099998474121094,27.06999969482422,27.18000030517578,27.119998931884766,22.00544862297226,21.98108933759445,22.070410847405547,22.02168917908058,22.019659496763207,0.03760982420787244,0.0,40.32500076293945,0.0,0.0,0.0,0.0,0.0,,,,,
arenacam6_1769712320572016360.png,1769712320572016360,1769712320.5720165,42.301297708628496,-83.69745354268798,239.6298828125,0.7127810164879044,0.7013204390561563,0.007780356419434156,0.0056859784150451904,0.03177000000000001,-0.005320000000000001,-0.0009500000000000001,1.7195,-1.0746,-10.7378,9.551085948155896,21.36520620086785,27.309999465942383,27.099998474121094,27.349998474121094,27.19999885559082,22.175971364540292,22.00544862297226,22.20845092797226,22.086649854729195,22.119130192553506,0.035287466200772374,0.0,40.17499923706055,0.0,0.0,0.0,0.0,0.0,,,,,
arenacam6_1769712320585893045.png,1769712320585893045,1769712320.5858932,42.301297708628496,-83.69745354268798,239.6298828125,0.7127887682158325,0.7013123394661073,0.00780366629167418,0.005681303577533118,-0.0026000000000000003,0.0039000000000000007,0.0022400000000000007,1.5377,-1.4938,-10.1647,9.566130446204454,21.398859840332594,27.15999984741211,27.349998474121094,27.479999542236328,27.279998779296875,22.054170291297226,22.20845092797226,22.314012993891676,22.151610530377805,22.182061185884745,0.03660014371774947,0.0,40.32500076293945,0.0,0.0,0.0,0.0,0.0,,,,,
arenacam6_1769712320607067325.png,1769712320607067325,1769712320.6070673,42.30130115733223,-83.69745353946884,239.63882446289062,0.7128865128693033,0.7012131400224919,0.007909281164745974,0.005513193294154355,0.029650000000000003,0.026560000000000004,0.007170000000000001,2.0576000000000003,2.3237,-8.826600000000001,9.607317041902407,21.49099178371317,27.35999870300293,27.40999984741211,27.510000228881836,27.35999870300293,22.216571206026423,22.257172596297227,22.338373828054163,22.216571206026423,22.257172209101057,0.03565123625278814,0.0,40.20000076293945,0.0,0.0,0.0,0.0,0.0,,,,,
arenacam6_1769712320627077770.png,1769712320627077770,1769712320.6270778,42.30130115733223,-83.69745353946884,239.63882446289062,0.7128371792404377,0.701268022699147,0.007686168509361378,0.005219103927930768,0.026720000000000004,0.0021300000000000004,-0.0049900000000000005,2.0767,-1.8858000000000001,-10.4506,9.650872485243479,21.588422697140548,27.479999542236328,27.420000076293945,27.439998626708984,27.44999885559082,22.314012993891676,22.26529287435139,22.281531881675036,22.289652159729197,22.287622477411826,0.03238771956989197,-0.10000000149011612,39.900001525878906,0.0,0.0,0.0,0.0,0.0,,,,,
arenacam6_1769712320648082591.png,1769712320648082591,1769712320.6480827,42.30130463341425,-83.69745353304033,239.64788818359375,0.7129348601194866,0.7011673776261644,0.007794177673337858,0.005238756880402167,-0.006830000000000001,0.0216,0.016640000000000002,0.7999,1.1432,-9.8598,9.668578289385264,21.628029518657474,27.3799991607666,27.529998779296875,27.559999465942383,27.53999900817871,22.23281176213474,22.354612835377807,22.37897366954029,22.362733113431972,22.332282845121203,0.03256206608448553,-0.10000000149011612,40.125,0.0,0.0,0.0,0.0,0.0,,,,,
arenacam6_1769712320668553370.png,1769712320668553370,1769712320.6685536,42.30130463341425,-83.69745353304033,239.64788818359375,0.7129236733803959,0.7011798879942884,0.007791625719835538,0.005088337131288517,0.009020000000000002,-0.00884,-0.00619,2.4970000000000003,0.1193,-8.780000000000001,9.719723246537377,21.742437719109322,27.85999870300293,27.709999084472656,27.68000030517578,27.779998779296875,22.622575816026423,22.500774742783356,22.47641545740555,22.557615140377806,22.539345289148283,0.036652172140687,0.0,40.07500076293945,0.0,0.0,0.0,0.0,0.0,,,,,
arenacam6_1769712320689441503.png,1769712320689441503,1769712320.6894414,42.30130813301096,-83.69745353707994,239.65664672851562,0.712909895503731,0.7011920513321593,0.007883424079096073,0.005199967908270511,-0.028010000000000004,0.00455,0.0017400000000000002,1.5621,-2.3343000000000003,-10.5944,9.749255470119298,21.808499531328664,27.639999389648438,27.889999389648438,27.849998474121094,27.709999084472656,22.443934345188907,22.646936650188906,22.614455537972262,22.500774742783356,22.55152531903336,0.03407046810521344,0.0,39.95000076293945,0.0,0.0,0.0,0.0,0.0,,,,,
arenacam6_1769712320709944531.png,1769712320709944531,1769712320.7099445,42.30130813301096,-83.69745353707994,239.65664672851562,0.7129818587717195,0.7011077489654689,0.00841890936350811,0.005823690249826106,-0.08599000000000002,-0.006280000000000001,0.00807,1.6154000000000002,0.6242,-10.725100000000001,9.780560565736359,21.87852715191829,27.979999542236328,27.889999389648438,27.889999389648438,27.849998474121094,22.72001760389168,22.646936650188906,22.646936650188906,22.614455537972262,22.657086610560437,0.035585551679784014,0.10000000149011612,39.775001525878906,0.0,0.0,0.0,0.0,0.0,,,,,
arenacam6_1769712320730908095.png,1769712320730908095,1769712320.7309082,42.30131165580406,-83.69745354725318,239.66622924804688,0.7130120147554253,0.7010713171232202,0.0087449667776233,0.006033297405303977,-0.023740000000000004,0.025390000000000006,0.004890000000000001,2.5817,1.3218,-10.035400000000001,9.814699995404332,21.95489500771977,27.889999389648438,27.829999923706055,27.85999870300293,27.889999389648438,22.646936650188906,22.598216530648617,22.622575816026423,22.646936650188906,22.628666411763213,0.030688892103857997,0.10000000149011612,39.79999923706055,0.0,0.0,0.0,0.0,0.0,,,,,
arenacam6_1769712320751947885.png,1769712320751947885,1769712320.7519479,42.301313426032436,-83.69745354598311,239.67124938964844,0.7130067614493751,0.7010697314054063,0.008898324126260416,0.006588600941699932,-0.041460000000000004,-0.008280000000000001,0.0061,0.3799,0.2733,-10.5283,9.849624895969418,22.033019914789833,27.979999542236328,28.09000015258789,28.010000228881836,28.010000228881836,22.72001760389168,22.809339113702777,22.74437843805416,22.74437843805416,22.75452839842569,0.03274669048665183,0.10000000149011612,39.42499923706055,0.0,0.0,0.0,0.0,0.0,,,,,
arenacam6_1769712320772841048.png,1769712320772841048,1769712320.772841,42.301315202114814,-83.69745354238356,239.67640686035156,0.7130255919120033,0.7010484001879123,0.00908858979447121,0.0065607475225193225,-0.022450000000000005,0.030570000000000007,0.00619,0.6502,1.8568,-9.4563,9.85565080320349,22.046499507718018,28.099998474121094,27.979999542236328,28.119998931884766,28.19999885559082,22.81745784297226,22.72001760389168,22.833698399080582,22.898659074729196,22.81745823016843,0.034969665918188786,0.0,39.42499923706055,0.0,0.0,0.0,0.0,0.0,,,,,
arenacam6_1769712320794988190.png,1769712320794988190,1769712320.7949884,42.30131698133087,-83.69745354690826,239.68185424804688,0.7129455400537719,0.7011381393930413,0.008703628020608107,0.006181687890769668,0.03917,-0.00505,-0.010870000000000001,1.6033000000000002,-1.3969,-10.9123,9.926471784726903,22.204921794127,28.28999900817871,28.34000015258789,28.170000076293945,28.279998779296875,22.97174002843197,23.012341418702775,22.874299789351387,22.96361975037781,22.955500246715985,0.033802346144155615,0.0,39.57500076293945,0.0,0.0,0.0,0.0,0.0,,,,,
arenacam6_1769712320813326260.png,1769712320813326260,1769712320.8133264,42.301318770817076,-83.69745353786962,239.6873016357422,0.7129343484069917,0.7011505483737478,0.008622436267901715,0.006178751451304079,0.011940000000000001,-0.011120000000000001,-0.0034700000000000004,1.3938000000000001,-0.4897,-11.649700000000001,9.940097329248404,22.235401319688926,28.439998626708984,28.40999984741211,28.25,28.349998474121094,23.093541101675036,23.069181816297224,22.939260465,23.020460147972262,23.03061088273613,0.03576322062345984,0.0,39.67499923706055,0.0,0.0,0.0,0.0,0.0,,,,,
arenacam6_1769712320835226269.png,1769712320835226269,1769712320.8352263,42.30132056789045,-83.69745353413312,239.69346618652344,0.7129427931309585,0.7011506556529281,0.008042535303986985,0.005970714026031098,0.04526,-0.04029,-0.011460000000000001,2.1302000000000003,-0.3734,-10.2959,9.99911178256157,22.36741311088328,28.59000015258789,28.229999542236328,28.5,28.5,23.215343723702777,22.923019908891682,23.142262770000002,23.142262770000002,23.105722293148617,0.03300825082477232,0.0,39.125,0.0,0.0,0.0,0.0,0.0,,,,,
arenacam6_1769712320854965172.png,1769712320854965172,1769712320.8549652,42.30132236189698,-83.69745353330788,239.69944763183594,0.7129308432975762,0.7011648321823181,0.007860881279207876,0.005974724367127595,0.024990000000000005,-0.026430000000000002,-0.0039900000000000005,1.0715000000000001,-0.5804,-10.025400000000001,10.009523562794806,22.390703638558215,28.43000030517578,28.44999885559082,28.639999389648438,28.40999984741211,23.08542237240555,23.101661379729194,23.255943565188904,23.069181816297224,23.128052283405218,0.03293101711985692,0.10000000149011612,38.67499923706055,0.0,0.0,0.0,0.0,0.0,,,,,
arenacam6_1769712320875849904.png,1769712320875849904,1769712320.87585,42.30132417023239,-83.69745352724675,239.7055206298828,0.7129728907345338,0.7011304889095799,0.0073111434680793565,0.005678184590610102,0.061090000000000005,-0.024710000000000003,0.006020000000000001,1.9971,1.9473,-9.1018,10.057893858467706,22.49890508776075,28.51999855041504,28.60999870300293,28.81999969482422,28.619998931884766,23.158501777323647,23.23158273102642,23.402105472594453,23.239703009080582,23.25797324750628,0.03373800443997854,0.10000000149011612,38.150001525878906,0.0,0.0,0.0,0.0,0.0,,,,,
arenacam6_1769712320896130380.png,1769712320896130380,1769712320.8961303,42.301325984460526,-83.69745351880776,239.71148681640625,0.7129148466333938,0.7011964952386613,0.006772689493268561,0.005479707266845468,0.03979,-0.03531,-0.013570000000000002,1.4619,-1.6084,-10.500200000000001,10.090268924877643,22.571326168815798,28.689998626708984,28.56999969482422,28.799999237060547,28.649999618530273,23.296543406675035,23.199103167594455,23.38586491648613,23.264063843243065,23.28639383349967,0.031680356720545665,0.10000000149011612,37.625,0.0,0.0,0.0,0.0,0.0,,,,,
arenacam6_1769712320916962677.png,1769712320916962677,1769712320.9169626,42.30132779733188,-83.69745351140901,239.7177276611328,0.712947556879801,0.7011635734713655,0.006673852303034281,0.0055573439181863,-0.005920000000000001,-0.012300000000000002,0.008260000000000002,1.9481000000000002,-0.1598,-10.9174,10.114843382885569,22.626297756912045,28.6299991607666,28.719999313354492,28.76999855041504,28.829999923706055,23.247823287134747,23.32090424083752,23.36150408232365,23.410225750648614,23.33511434023613,0.03132711285510914,0.0,38.0,0.0,0.0,0.0,0.0,0.0,,,,,
arenacam6_1769712320937526015.png,1769712320937526015,1769712320.937526,42.301329620795876,-83.69745350747601,239.7235565185547,0.7129427432187514,0.7011701405540348,0.0063893197478209285,0.0056793908402720675,0.022490000000000003,-0.033850000000000005,-0.006590000000000001,2.0867,1.1747,-9.2323,10.15889563679316,22.724840005768094,28.78999900817871,28.849998474121094,28.729999542236328,28.920000076293945,23.37774463843197,23.42646475797226,23.32902451889168,23.48330670435139,23.404135154911824,0.029892186214349983,0.0,38.125,0.0,0.0,0.0,0.0,0.0,,,,,
arenacam6_1769712320958293633.png,1769712320958293633,1769712320.9582937,42.30133145170065,-83.6974535057483,239.72930908203125,0.7128914234135582,0.7012230137507355,0.006177442372148069,0.005826029133618333,-0.012120000000000002,-0.017920000000000005,-0.00512,1.0045,-2.4328000000000003,-8.572000000000001,10.181148484228542,22.774618290310197,28.8799991607666,28.959999084472656,28.989999771118164,28.969999313354492,23.450825592134745,23.515786267783355,23.54014710194584,23.52390654583752,23.507666376925364,0.03218706356659567,0.0,38.0,0.0,0.0,0.0,0.0,0.0,,,,,
arenacam6_1769712320979374282.png,1769712320979374282,1769712320.9793744,42.301333283429685,-83.6974535059703,239.73497009277344,0.7129407158290089,0.7011630917925183,0.006610904461177358,0.006492331120814616,-0.08989000000000001,-0.014120000000000002,0.007100000000000001,0.8479,-0.5887,-8.1907,10.202785144431134,22.823018200983782,29.059999465942383,28.94999885559082,28.920000076293945,29.059999465942383,23.59698749954029,23.507665989729194,23.48330670435139,23.59698749954029,23.54623692329029,0.031688128009087546,0.0,38.25,0.0,0.0,0.0,0.0,0.0,,,,,
