image_filename,timestamp_ns,timestamp_sec,latitude,longitude,altitude,orientation_x,orientation_y,orientation_z,orientation_w,angular_velocity_x,angular_velocity_y,angular_velocity_z,linear_acceleration_x,linear_acceleration_y,linear_acceleration_z,vehicle_speed_mps,vehicle_speed_mph,wheel_speed_fl_rads,wheel_speed_fr_rads,wheel_speed_rl_rads,wheel_speed_rr_rads,wheel_speed_fl_mph,wheel_speed_fr_mph,wheel_speed_rl_mph,wheel_speed_rr_mph,avg_wheel_speed_mph,wheel_slip,steering_angle_deg,throttle_pedal,brake_pedal,brake_torque_actual,abs_active,esc_active,trac_active,marwis_road_condition,marwis_friction,marwis_surface_temp_c,marwis_ice_percent,marwis_water_film_height
frame_00000.png,1769712385620625486,1769712385.6206255,42.30115590583248,-83.69745221379719,239.27272033691406,0.7147039076961033,0.6993080833980635,0.00998017725158977,0.008180762805127532,0.0015400000000000001,-0.012960000000000001,0.00248,1.7631000000000001,0.2185,-10.226700000000001,1.1615609309953139,2.5983421089806575,3.68999981880188,3.6499998569488525,3.68999981880188,3.669999837875366,2.9963138746654563,2.9638335368411495,2.9963138746654563,2.9800737057533024,2.984133747981341,0.14847607544336464,-2.0,24.725000381469727,0.0,0.0,0.0,0.0,0.0,,,,,
frame_00001.png,1769712385641064865,1769712385.641065,42.30115590583248,-83.69745221379719,239.27272033691406,0.7147039076961033,0.6993080833980635,0.00998017725158977,0.008180762805127532,0.0015400000000000001,-0.012960000000000001,0.00248,1.7631000000000001,0.2185,-10.226700000000001,1.1615609309953139,2.5983421089806575,3.68999981880188,3.6499998569488525,3.68999981880188,3.669999837875366,2.9963138746654563,2.9638335368411495,2.9963138746654563,2.9800737057533024,2.984133747981341,0.14847607544336464,-2.0,24.725000381469727,0.0,0.0,0.0,0.0,0.0,,,,,
frame_00002.png,1769712385661730270,1769712385.6617303,42.30115590583248,-83.69745221379719,239.27272033691406,0.7147039076961033,0.6993080833980635,0.00998017725158977,0.008180762805127532,0.0015400000000000001,-0.012960000000000001,0.00248,1.7631000000000001,0.2185,-10.226700000000001,1.1615609309953139,2.5983421089806575,3.68999981880188,3.6499998569488525,3.68999981880188,3.669999837875366,2.9963138746654563,2.9638335368411495,2.9963138746654563,2.9800737057533024,2.984133747981341,0.14847607544336464,-2.0,24.725000381469727,0.0,0.0,0.0,0.0,0.0,,,,,
frame_00003.png,1769712385682380832,1769712385.682381,42.30115590583248,-83.69745221379719,239.27272033691406,0.7147039076961033,0.6993080833980635,0.00998017725158977,0.008180762805127532,0.0015400000000000001,-0.012960000000000001,0.00248,1.7631000000000001,0.2185,-10.226700000000001,1.1615609309953139,2.5983421089806575,3.68999981880188,3.6499998569488525,3.68999981880188,3.669999837875366,2.9963138746654563,2.9638335368411495,2.9963138746654563,2.9800737057533024,2.984133747981341,0.14847607544336464,-2.0,24.725000381469727,0.0,0.0,0.0,0.0,0.0,,,,,
frame_00004.png,1769712385703183387,1769712385.7031834,42.30115590583248,-83.69745221379719,239.27272033691406,0.7147039076961033,0.6993080833980635,0.00998017725158977,0.008180762805127532,0.0015400000000000001,-0.012960000000000001,0.00248,1.7631000000000001,0.2185,-10.226700000000001,1.1615609309953139,2.5983421089806575,3.68999981880188,3.6499998569488525,3.68999981880188,3.669999837875366,2.9963138746654563,2.9638335368411495,2.9963138746654563,2.9800737057533024,2.984133747981341,0.14847607544336464,-2.0,24.725000381469727,0.0,0.0,0.0,0.0,0.0,,,,,
frame_00005.png,1769712385723843795,1769712385.7238438,42.30115590583248,-83.69745221379719,239.27272033691406,0.7147039076961033,0.6993080833980635,0.00998017725158977,0.008180762805127532,0.0015400000000000001,-0.012960000000000001,0.00248,1.7631000000000001,0.2185,-10.226700000000001,1.1615609309953139,2.5983421089806575,3.68999981880188,3.6499998569488525,3.68999981880188,3.669999837875366,2.9963138746654563,2.9638335368411495,2.9963138746654563,2.9800737057533024,2.984133747981341,0.14847607544336464,-2.0,24.725000381469727,0.0,0.0,0.0,0.0,0.0,,,,,
frame_00006.png,1769712385744518431,1769712385.7445185,42.30115590583248,-83.69745221379719,239.27272033691406,0.7147039076961033,0.6993080833980635,0.00998017725158977,0.008180762805127532,0.0015400000000000001,-0.012960000000000001,0.00248,1.7631000000000001,0.2185,-10.226700000000001,1.1615609309953139,2.5983421089806575,3.68999981880188,3.6499998569488525,3.68999981880188,3.669999837875366,2.9963138746654563,2.9638335368411495,2.9963138746654563,2.9800737057533024,2.984133747981341,0.14847607544336464,-2.0,24.725000381469727,0.0,0.0,0.0,0.0,0.0,,,,,
frame_00007.png,1769712385765214327,1769712385.7652142,42.30115590583248,-83.69745221379719,239.27272033691406,0.7147039076961033,0.6993080833980635,0.00998017725158977,0.008180762805127532,0.0015400000000000001,-0.012960000000000001,0.00248,1.7631000000000001,0.2185,-10.226700000000001,1.1615609309953139,2.5983421089806575,3.68999981880188,3.6499998569488525,3.68999981880188,3.669999837875366,2.9963138746654563,2.9638335368411495,2.9963138746654563,2.9800737057533024,2.984133747981341,0.14847607544336464,-2.0,24.725000381469727,0.0,0.0,0.0,0.0,0.0,,,,,
frame_00008.png,1769712385785953681,1769712385.7859538,42.30115590583248,-83.69745221379719,239.27272033691406,0.7147039076961033,0.6993080833980635,0.00998017725158977,0.008180762805127532,0.0015400000000000001,-0.012960000000000001,0.00248,1.7631000000000001,0.2185,-10.226700000000001,1.1615609309953139,2.5983421089806575,3.68999981880188,3.6499998569488525,3.68999981880188,3.669999837875366,2.9963138746654563,2.9638335368411495,2.9963138746654563,2.9800737057533024,2.984133747981341,0.14847607544336464,-2.0,24.725000381469727,0.0,0.0,0.0,0.0,0.0,,,,,
frame_00009.png,1769712385806623418,1769712385.8066235,42.30115590583248,-83.69745221379719,239.27272033691406,0.7147039076961033,0.6993080833980635,0.00998017725158977,0.008180762805127532,0.0015400000000000001,-0.012960000000000001,0.00248,1.7631000000000001,0.2185,-10.226700000000001,1.1615609309953139,2.5983421089806575,3.68999981880188,3.6499998569488525,3.68999981880188,3.669999837875366,2.9963138746654563,2.9638335368411495,2.9963138746654563,2.9800737057533024,2.984133747981341,0.14847607544336464,-2.0,24.725000381469727,0.0,0.0,0.0,0.0,0.0,,,,,
frame_00010.png,1769712385827233882,1769712385.8272338,42.30115590583248,-83.69745221379719,239.27272033691406,0.7147039076961033,0.6993080833980635,0.00998017725158977,0.008180762805127532,0.0015400000000000001,-0.012960000000000001,0.00248,1.7631000000000001,0.2185,-10.226700000000001,1.1615609309953139,2.5983421089806575,3.68999981880188,3.6499998569488525,3.68999981880188,3.669999837875366,2.9963138746654563,2.9638335368411495,2.9963138746654563,2.9800737057533024,2.984133747981341,0.14847607544336464,-2.0,24.725000381469727,0.0,0.0,0.0,0.0,0.0,,,,,
frame_00011.png,1769712385847800091,1769712385.8478,42.30115590583248,-83.69745221379719,239.27272033691406,0.7147039076961033,0.6993080833980635,0.00998017725158977,0.008180762805127532,0.0015400000000000001,-0.012960000000000001,0.00248,1.7631000000000001,0.2185,-10.226700000000001,1.1615609309953139,2.5983421089806575,3.68999981880188,3.6499998569488525,3.68999981880188,3.669999837875366,2.9963138746654563,2.9638335368411495,2.9963138746654563,2.9800737057533024,2.984133747981341,0.14847607544336464,-2.0,24.725000381469727,0.0,0.0,0.0,0.0,0.0,,,,,
frame_00012.png,1769712385868546430,1769712385.8685462,42.30115590583248,-83.69745221379719,239.27272033691406,0.7147039076961033,0.6993080833980635,0.00998017725158977,0.008180762805127532,0.0015400000000000001,-0.012960000000000001,0.00248,1.7631000000000001,0.2185,-10.226700000000001,1.1615609309953139,2.5983421089806575,3.68999981880188,3.6499998569488525,3.68999981880188,3.669999837875366,2.9963138746654563,2.9638335368411495,2.9963138746654563,2.9800737057533024,2.984133747981341,0.14847607544336464,-2.0,24.725000381469727,0.0,0.0,0.0,0.0,0.0,,,,,
frame_00013.png,1769712385889148112,1769712385.8891482,42.30115590583248,-83.69745221379719,239.27272033691406,0.7147039076961033,0.6993080833980635,0.00998017725158977,0.008180762805127532,0.0015400000000000001,-0.012960000000000001,0.00248,1.7631000000000001,0.2185,-10.226700000000001,1.1615609309953139,2.5983421089806575,3.68999981880188,3.6499998569488525,3.68999981880188,3.669999837875366,2.9963138746654563,2.9638335368411495,2.9963138746654563,2.9800737057533024,2.984133747981341,0.14847607544336464,-2.0,24.725000381469727,0.0,0.0,0.0,0.0,0.0,,,,,
frame_00014.png,1769712385909853801,1769712385.9098537,42.30115590583248,-83.69745221379719,239.27272033691406,0.7147039076961033,0.6993080833980635,0.00998017725158977,0.008180762805127532,0.0015400000000000001,-0.012960000000000001,0.00248,1.7631000000000001,0.2185,-10.226700000000001,1.1615609309953139,2.5983421089806575,3.68999981880188,3.6499998569488525,3.68999981880188,3.669999837875366,2.9963138746654563,2.9638335368411495,2.9963138746654563,2.9800737057533024,2.984133747981341,0.14847607544336464,-2.0,24.725000381469727,0.0,0.0,0.0,0.0,0.0,,,,,
frame_00015.png,1769712385930509123,1769712385.930509,42.30115590583248,-83.69745221379719,239.27272033691406,0.7147039076961033,0.6993080833980635,0.00998017725158977,0.008180762805127532,0.0015400000000000001,-0.012960000000000001,0.00248,1.7631000000000001,0.2185,-10.226700000000001,1.1615609309953139,2.5983421089806575,3.68999981880188,3.6499998569488525,3.68999981880188,3.669999837875366,2.9963138746654563,2.9638335368411495,2.9963138746654563,2.9800737057533024,2.984133747981341,0.14847607544336464,-2.0,24.725000381469727,0.0,0.0,0.0,0.0,0.0,,,,,
frame_00016.png,1769712385951313870,1769712385.951314,42.30115590583248,-83.69745221379719,239.27272033691406,0.7147039076961033,0.6993080833980635,0.00998017725158977,0.008180762805127532,0.0015400000000000001,-0.012960000000000001,0.00248,1.7631000000000001,0.2185,-10.226700000000001,1.1615609309953139,2.5983421089806575,3.68999981880188,3.6499998569488525,3.68999981880188,3.669999837875366,2.9963138746654563,2.9638335368411495,2.9963138746654563,2.9800737057533024,2.984133747981341,0.14847607544336464,-2.0,24.725000381469727,0.0,0.0,0.0,0.0,0.0,,,,,
frame_00017.png,1769712385971898226,1769712385.971898,42.30115590583248,-83.69745221379719,239.27272033691406,0.7147039076961033,0.6993080833980635,0.00998017725158977,0.008180762805127532,0.0015400000000000001,-0.012960000000000001,0.00248,1.7631000000000001,0.2185,-10.226700000000001,1.1615609309953139,2.5983421089806575,3.68999981880188,3.6499998569488525,3.68999981880188,3.669999837875366,2.9963138746654563,2.9638335368411495,2.9963138746654563,2.9800737057533024,2.984133747981341,0.14847607544336464,-2.0,24.725000381469727,0.0,0.0,0.0,0.0,0.0,,,,,
frame_00018.png,1769712385992685190,1769712385.9926853,42.30115590583248,-83.69745221379719,239.27272033691406,0.7147039076961033,0.6993080833980635,0.00998017725158977,0.008180762805127532,0.0015400000000000001,-0.012960000000000001,0.00248,1.7631000000000001,0.2185,-10.226700000000001,1.1615609309953139,2.5983421089806575,3.68999981880188,3.6499998569488525,3.68999981880188,3.669999837875366,2.9963138746654563,2.9638335368411495,2.9963138746654563,2.9800737057533024,2.984133747981341,0.14847607544336464,-2.0,24.725000381469727,0.0,0.0,0.0,0.0,0.0,,,,,
frame_00019.png,1769712386013322266,1769712386.0133224,42.30115590583248,-83.69745221379719,239.27272033691406,0.7147039076961033,0.6993080833980635,0.00998017725158977,0.008180762805127532,0.0015400000000000001,-0.012960000000000001,0.00248,1.7631000000000001,0.2185,-10.226700000000001,1.1615609309953139,2.5983421089806575,3.68999981880188,3.6499998569488525,3.68999981880188,3.669999837875366,2.9963138746654563,2.9638335368411495,2.9963138746654563,2.9800737057533024,2.984133747981341,0.14847607544336464,-2.0,24.725000381469727,0.0,0.0,0.0,0.0,0.0,,,,,
frame_00020.png,1769712386034213359,1769712386.0342133,42.30115590583248,-83.69745221379719,239.27272033691406,0.7147039076961033,0.6993080833980635,0.00998017725158977,0.008180762805127532,0.0015400000000000001,-0.012960000000000001,0.00248,1.7631000000000001,0.2185,-10.226700000000001,1.1615609309953139,2.5983421089806575,3.68999981880188,3.6499998569488525,3.68999981880188,3.669999837875366,2.9963138746654563,2.9638335368411495,2.9963138746654563,2.9800737057533024,2.984133747981341,0.14847607544336464,-2.0,24.725000381469727,0.0,0.0,0.0,0.0,0.0,,,,,
frame_00021.png,1769712386054665951,1769712386.054666,42.30115590583248,-83.69745221379719,239.27272033691406,0.7147039076961033,0.6993080833980635,0.00998017725158977,0.008180762805127532,0.0015400000000000001,-0.012960000000000001,0.00248,1.7631000000000001,0.2185,-10.226700000000001,1.1615609309953139,2.5983421089806575,3.68999981880188,3.6499998569488525,3.68999981880188,3.669999837875366,2.9963138746654563,2.9638335368411495,2.9963138746654563,2.9800737057533024,2.984133747981341,0.14847607544336464,-2.0,24.725000381469727,0.0,0.0,0.0,0.0,0.0,,,,,
frame_00022.png,1769712386075442389,1769712386.0754423,42.30115590583248,-83.69745221379719,239.27272033691406,0.7147039076961033,0.6993080833980635,0.00998017725158977,0.008180762805127532,0.0015400000000000001,-0.012960000000000001,0.00248,1.7631000000000001,0.2185,-10.226700000000001,1.1615609309953139,2.5983421089806575,3.68999981880188,3.6499998569488525,3.68999981880188,3.669999837875366,2.9963138746654563,2.9638335368411495,2.9963138746654563,2.9800737057533024,2.984133747981341,0.14847607544336464,-2.0,24.725000381469727,0.0,0.0,0.0,0.0,0.0,,,,,
frame_00023.png,1769712386096005954,1769712386.096006,42.30115590583248,-83.69745221379719,239.27272033691406,0.7147039076961033,0.6993080833980635,0.00998017725158977,0.008180762805127532,0.0015400000000000001,-0.012960000000000001,0.00248,1.7631000000000001,0.2185,-10.226700000000001,1.1615609309953139,2.5983421089806575,3.68999981880188,3.6499998569488525,3.68999981880188,3.669999837875366,2.9963138746654563,2.9638335368411495,2.9963138746654563,2.9800737057533024,2.984133747981341,0.14847607544336464,-2.0,24.725000381469727,0.0,0.0,0.0,0.0,0.0,,,,,
frame_00024.png,1769712386117100239,1769712386.1171002,42.30115590583248,-83.69745221379719,239.27272033691406,0.7147039076961033,0.6993080833980635,0.00998017725158977,0.008180762805127532,0.0015400000000000001,-0.012960000000000001,0.00248,1.7631000000000001,0.2185,-10.226700000000001,1.1615609309953139,2.5983421089806575,3.68999981880188,3.6499998569488525,3.68999981880188,3.669999837875366,2.9963138746654563,2.9638335368411495,2.9963138746654563,2.9800737057533024,2.984133747981341,0.14847607544336464,-2.0,24.725000381469727,0.0,0.0,0.0,0.0,0.0,,,,,
frame_00025.png,1769712386137523959,1769712386.137524,42.30115590583248,-83.69745221379719,239.27272033691406,0.7147039076961033,0.6993080833980635,0.00998017725158977,0.008180762805127532,0.0015400000000000001,-0.012960000000000001,0.00248,1.7631000000000001,0.2185,-10.226700000000001,1.1615609309953139,2.5983421089806575,3.68999981880188,3.6499998569488525,3.68999981880188,3.669999837875366,2.9963138746654563,2.9638335368411495,2.9963138746654563,2.9800737057533024,2.984133747981341,0.14847607544336464,-2.0,24.725000381469727,0.0,0.0,0.0,0.0,0.0,,,,,
frame_00026.png,1769712386158262345,1769712386.1582623,42.30115590583248,-83.69745221379719,239.27272033691406,0.7147039076961033,0.6993080833980635,0.00998017725158977,0.008180762805127532,0.0015400000000000001,-0.012960000000000001,0.00248,1.7631000000000001,0.2185,-10.226700000000001,1.1615609309953139,2.5983421089806575,3.68999981880188,3.6499998569488525,3.68999981880188,3.669999837875366,2.9963138746654563,2.9638335368411495,2.9963138746654563,2.9800737057533024,2.984133747981341,0.14847607544336464,-2.0,24.725000381469727,0.0,0.0,0.0,0.0,0.0,,,,,
frame_00027.png,1769712386178959455,1769712386.1789594,42.30115590583248,-83.69745221379719,239.27272033691406,0.7147039076961033,0.6993080833980635,0.00998017725158977,0.008180762805127532,0.0015400000000000001,-0.012960000000000001,0.00248,1.7631000000000001,0.2185,-10.226700000000001,1.1615609309953139,2.5983421089806575,3.68999981880188,3.6499998569488525,3.68999981880188,3.669999837875366,2.9963138746654563,2.9638335368411495,2.9963138746654563,2.9800737057533024,2.984133747981341,0.14847607544336464,-2.0,24.725000381469727,0.0,0.0,0.0,0.0,0.0,,,,,
frame_00028.png,1769712386199655137,1769712386.199655,42.30115590583248,-83.69745221379719,239.27272033691406,0.7147039076961033,0.6993080833980635,0.00998017725158977,0.008180762805127532,0.0015400000000000001,-0.012960000000000001,0.00248,1.7631000000000001,0.2185,-10.226700000000001,1.1615609309953139,2.5983421089806575,3.68999981880188,3.6499998569488525,3.68999981880188,3.669999837875366,2.9963138746654563,2.9638335368411495,2.9963138746654563,2.9800737057533024,2.984133747981341,0.14847607544336464,-2.0,24.725000381469727,0.0,0.0,0.0,0.0,0.0,,,,,
frame_00029.png,1769712386220249469,1769712386.2202494,42.30115590583248,-83.69745221379719,239.27272033691406,0.7147039076961033,0.6993080833980635,0.00998017725158977,0.008180762805127532,0.0015400000000000001,-0.012960000000000001,0.00248,1.7631000000000001,0.2185,-10.226700000000001,1.1615609309953139,2.5983421089806575,3.68999981880188,3.6499998569488525,3.68999981880188,3.669999837875366,2.9963138746654563,2.9638335368411495,2.9963138746654563,2.9800737057533024,2.984133747981341,0.14847607544336464,-2.0,24.725000381469727,0.0,0.0,0.0,0.0,0.0,,,,,
frame_00030.png,1769712386240919403,1769712386.2409194,42.30115590583248,-83.69745221379719,239.27272033691406,0.7147039076961033,0.6993080833980635,0.00998017725158977,0.008180762805127532,0.0015400000000000001,-0.012960000000000001,0.00248,1.7631000000000001,0.2185,-10.226700000000001,1.1615609309953139,2.5983421089806575,3.68999981880188,3.6499998569488525,3.68999981880188,3.669999837875366,2.9963138746654563,2.9638335368411495,2.9963138746654563,2.9800737057533024,2.984133747981341,0.14847607544336464,-2.0,24.725000381469727,0.0,0.0,0.0,0.0,0.0,,,,,
frame_00031.png,1769712386261677694,1769712386.2616775,42.30115590583248,-83.69745221379719,239.27272033691406,0.7147039076961033,0.6993080833980635,0.00998017725158977,0.008180762805127532,0.0015400000000000001,-0.012960000000000001,0.00248,1.7631000000000001,0.2185,-10.226700000000001,1.1615609309953139,2.5983421089806575,3.68999981880188,3.6499998569488525,3.68999981880188,3.669999837875366,2.9963138746654563,2.9638335368411495,2.9963138746654563,2.9800737057533024,2.984133747981341,0.14847607544336464,-2.0,24.725000381469727,0.0,0.0,0.0,0.0,0.0,,,,,
frame_00032.png,1769712386282327396,1769712386.2823274,42.30115590583248,-83.69745221379719,239.27272033691406,0.7147039076961033,0.6993080833980635,0.00998017725158977,0.008180762805127532,0.0015400000000000001,-0.012960000000000001,0.00248,1.7631000000000001,0.2185,-10.226700000000001,1.1615609309953139,2.5983421089806575,3.68999981880188,3.6499998569488525,3.68999981880188,3.669999837875366,2.9963138746654563,2.9638335368411495,2.9963138746654563,2.9800737057533024,2.984133747981341,0.14847607544336464,-2.0,24.725000381469727,0.0,0.0,0.0,0.0,0.0,,,,,
frame_00033.png,1769712386303171786,1769712386.3031719,42.30115590583248,-83.69745221379719,239.27272033691406,0.7147039076961033,0.6993080833980635,0.00998017725158977,0.008180762805127532,0.0015400000000000001,-0.012960000000000001,0.00248,1.7631000000000001,0.2185,-10.226700000000001,1.1615609309953139,2.5983421089806575,3.68999981880188,3.6499998569488525,3.68999981880188,3.669999837875366,2.9963138746654563,2.9638335368411495,2.9963138746654563,2.9800737057533024,2.984133747981341,0.14847607544336464,-2.0,24.725000381469727,0.0,0.0,0.0,0.0,0.0,,,,,
frame_00034.png,1769712386323733839,1769712386.3237338,42.30115590583248,-83.69745221379719,239.27272033691406,0.7147039076961033,0.6993080833980635,0.00998017725158977,0.008180762805127532,0.0015400000000000001,-0.012960000000000001,0.00248,1.7631000000000001,0.2185,-10.226700000000001,1.1615609309953139,2.5983421089806575,3.68999981880188,3.6499998569488525,3.68999981880188,3.669999837875366,2.9963138746654563,2.9638335368411495,2.9963138746654563,2.9800737057533024,2.984133747981341,0.14847607544336464,-2.0,24.725000381469727,0.0,0.0,0.0,0.0,0.0,,,,,
frame_00035.png,1769712386344323771,1769712386.3443239,42.30115590583248,-83.69745221379719,239.27272033691406,0.7147039076961033,0.6993080833980635,0.00998017725158977,0.008180762805127532,0.0015400000000000001,-0.012960000000000001,0.00248,1.7631000000000001,0.2185,-10.226700000000001,1.1615609309953139,2.5983421089806575,3.68999981880188,3.6499998569488525,3.68999981880188,3.669999837875366,2.9963138746654563,2.9638335368411495,2.9963138746654563,2.9800737057533024,2.984133747981341,0.14847607544336464,-2.0,24.725000381469727,0.0,0.0,0.0,0.0,0.0,,,,,
frame_00036.png,1769712386365184796,1769712386.3651848,42.30115590583248,-83.69745221379719,239.27272033691406,0.7147039076961033,0.6993080833980635,0.00998017725158977,0.008180762805127532,0.0015400000000000001,-0.012960000000000001,0.00248,1.7631000000000001,0.2185,-10.226700000000001,1.1615609309953139,2.5983421089806575,3.68999981880188,3.6499998569488525,3.68999981880188,3.669999837875366,2.9963138746654563,2.9638335368411495,2.9963138746654563,2.9800737057533024,2.984133747981341,0.14847607544336464,-2.0,24.725000381469727,0.0,0.0,0.0,0.0,0.0,,,,,
frame_00037.png,1769712386385892987,1769712386.3858929,42.30115590583248,-83.69745221379719,239.27272033691406,0.7147039076961033,0.6993080833980635,0.00998017725158977,0.008180762805127532,0.0015400000000000001,-0.012960000000000001,0.00248,1.7631000000000001,0.2185,-10.226700000000001,1.1615609309953139,2.5983421089806575,3.68999981880188,3.6499998569488525,3.68999981880188,3.669999837875366,2.9963138746654563,2.9638335368411495,2.9963138746654563,2.9800737057533024,2.984133747981341,0.14847607544336464,-2.0,24.725000381469727,0.0,0.0,0.0,0.0,0.0,,,,,
frame_00038.png,1769712386406454378,1769712386.4064543,42.30115590583248,-83.69745221379719,239.27272033691406,0.7147039076961033,0.6993080833980635,0.00998017725158977,0.008180762805127532,0.0015400000000000001,-0.012960000000000001,0.00248,1.7631000000000001,0.2185,-10.226700000000001,1.1615609309953139,2.5983421089806575,3.68999981880188,3.6499998569488525,3.68999981880188,3.669999837875366,2.9963138746654563,2.9638335368411495,2.9963138746654563,2.9800737057533024,2.984133747981341,0.14847607544336464,-2.0,24.725000381469727,0.0,0.0,0.0,0.0,0.0,,,,,
frame_00039.png,1769712386427104731,1769712386.4271047,42.30115590583248,-83.69745221379719,239.27272033691406,0.7147039076961033,0.6993080833980635,0.00998017725158977,0.008180762805127532,0.0015400000000000001,-0.012960000000000001,0.00248,1.7631000000000001,0.2185,-10.226700000000001,1.1615609309953139,2.5983421089806575,3.68999981880188,3.6499998569488525,3.68999981880188,3.669999837875366,2.9963138746654563,2.9638335368411495,2.9963138746654563,2.9800737057533024,2.984133747981341,0.14847607544336464,-2.0,24.725000381469727,0.0,0.0,0.0,0.0,0.0,,,,,
frame_00040.png,1769712386447840324,1769712386.4478402,42.30115590583248,-83.69745221379719,239.27272033691406,0.7147039076961033,0.6993080833980635,0.00998017725158977,0.008180762805127532,0.0015400000000000001,-0.012960000000000001,0.00248,1.7631000000000001,0.2185,-10.226700000000001,1.1615609309953139,2.5983421089806575,3.68999981880188,3.6499998569488525,3.68999981880188,3.669999837875366,2.9963138746654563,2.9638335368411495,2.9963138746654563,2.9800737057533024,2.984133747981341,0.14847607544336464,-2.0,24.725000381469727,0.0,0.0,0.0,0.0,0.0,,,,,
frame_00041.png,1769712386468568289,1769712386.4685683,42.30115590583248,-83.69745221379719,239.27272033691406,0.7147039076961033,0.6993080833980635,0.00998017725158977,0.008180762805127532,0.0015400000000000001,-0.012960000000000001,0.00248,1.7631000000000001,0.2185,-10.226700000000001,1.1615609309953139,2.5983421089806575,3.68999981880188,3.6499998569488525,3.68999981880188,3.669999837875366,2.9963138746654563,2.9638335368411495,2.9963138746654563,2.9800737057533024,2.984133747981341,0.14847607544336464,-2.0,24.725000381469727,0.0,0.0,0.0,0.0,0.0,,,,,
frame_00042.png,1769712386489200709,1769712386.4892006,42.30115590583248,-83.69745221379719,239.27272033691406,0.7147039076961033,0.6993080833980635,0.00998017725158977,0.008180762805127532,0.0015400000000000001,-0.012960000000000001,0.00248,1.7631000000000001,0.2185,-10.226700000000001,1.1615609309953139,2.5983421089806575,3.68999981880188,3.6499998569488525,3.68999981880188,3.669999837875366,2.9963138746654563,2.9638335368411495,2.9963138746654563,2.9800737057533024,2.984133747981341,0.14847607544336464,-2.0,24.725000381469727,0.0,0.0,0.0,0.0,0.0,,,,,
frame_00043.png,1769712386509951049,1769712386.5099509,42.30115590583248,-83.69745221379719,239.27272033691406,0.7147039076961033,0.6993080833980635,0.00998017725158977,0.008180762805127532,0.0015400000000000001,-0.012960000000000001,0.00248,1.7631000000000001,0.2185,-10.226700000000001,1.1615609309953139,2.5983421089806575,3.68999981880188,3.6499998569488525,3.68999981880188,3.669999837875366,2.9963138746654563,2.9638335368411495,2.9963138746654563,2.9800737057533024,2.984133747981341,0.14847607544336464,-2.0,24.725000381469727,0.0,0.0,0.0,0.0,0.0,,,,,
frame_00044.png,1769712386530625926,1769712386.530626,42.30115590583248,-83.69745221379719,239.27272033691406,0.7147039076961033,0.6993080833980635,0.00998017725158977,0.008180762805127532,0.0015400000000000001,-0.012960000000000001,0.00248,1.7631000000000001,0.2185,-10.226700000000001,1.1615609309953139,2.5983421089806575,3.68999981880188,3.6499998569488525,3.68999981880188,3.669999837875366,2.9963138746654563,2.9638335368411495,2.9963138746654563,2.9800737057533024,2.984133747981341,0.14847607544336464,-2.0,24.725000381469727,0.0,0.0,0.0,0.0,0.0,,,,,
frame_00045.png,1769712386572079002,1769712386.5720792,42.30115590583248,-83.69745221379719,239.27272033691406,0.7147039076961033,0.6993080833980635,0.00998017725158977,0.008180762805127532,0.0015400000000000001,-0.012960000000000001,0.00248,1.7631000000000001,0.2185,-10.226700000000001,1.1615609309953139,2.5983421089806575,3.7799999713897705,3.7699999809265137,3.7899999618530273,3.7899999618530273,3.06939482836823,3.0612747439121537,3.0775149128243067,3.0775149128243067,3.0714248494822494,0.18207099783607192,-1.399999976158142,24.774999618530273,0.0,0.0,0.0,0.0,0.0,,,,,
frame_00046.png,1769712386592777015,1769712386.592777,42.30115590583248,-83.69745221379719,239.27272033691406,0.7147039076961033,0.6993080833980635,0.00998017725158977,0.008180762805127532,0.0015400000000000001,-0.012960000000000001,0.00248,1.7631000000000001,0.2185,-10.226700000000001,1.1615609309953139,2.5983421089806575,3.9099998474121094,3.8999998569488525,4.019999980926514,3.8899998664855957,3.174955926297226,3.1668358418411495,3.2642770489121533,3.158715757385073,3.1911961436089,0.2281662728626686,-1.100000023841858,24.575000762939453,0.0,0.0,0.0,0.0,0.0,,,,,
frame_00047.png,1769712386612098290,1769712386.6120982,42.30115590583248,-83.69745221379719,239.27272033691406,0.7147039076961033,0.6993080833980635,0.00998017725158977,0.008180762805127532,0.0015400000000000001,-0.012960000000000001,0.00248,1.7631000000000001,0.2185,-10.226700000000001,1.1615609309953139,2.5983421089806575,4.079999923706055,4.079999923706055,4.110000133514404,4.119999885559082,3.312997555648613,3.312997555648613,3.3373580026149274,3.3454778934729195,3.3272077518462684,0.2805118080280616,-1.100000023841858,24.600000381469727,0.0,0.0,0.0,0.0,0.0,,,,,
frame_00048.png,1769712386632627582,1769712386.6326275,42.30115590583248,-83.69745221379719,239.27272033691406,0.7147039076961033,0.6993080833980635,0.00998017725158977,0.008180762805127532,0.0015400000000000001,-0.012960000000000001,0.00248,1.7631000000000001,0.2185,-10.226700000000001,1.1615609309953139,2.5983421089806575,4.199999809265137,4.170000076293945,4.230000019073486,4.199999809265137,3.410438569121532,3.386078509351387,3.4347990160878465,3.410438569121532,3.4104386659205748,0.3125441234751442,-1.0,24.850000381469727,0.0,0.0,0.0,0.0,0.0,,,,,
frame_00049.png,1769712386674458791,1769712386.674459,42.30115590583248,-83.69745221379719,239.27272033691406,0.714822000873276,0.6991954126220586,0.009628648302871624,0.007910193907555796,0.010380000000000002,0.0031000000000000003,5.000000000000001e-05,2.4129,0.049,-10.286900000000001,1.4380869642842906,3.216914253886101,4.389999866485596,4.409999847412109,4.409999847412109,4.400000095367432,3.564720367385073,3.580960536297226,3.580960536297226,3.572840645439234,3.57487052135469,0.11127317647219535,-1.0,24.950000762939453,0.0,0.0,0.0,0.0,0.0,,,,,
frame_00050.png,1769712386694535369,1769712386.6945355,42.30115590583248,-83.69745221379719,239.27272033691406,0.7148533816649019,0.6991648920625496,0.009560332474445573,0.007854710204428284,0.00839,0.004380000000000001,0.00459,2.0446,0.0978,-9.9367,1.4784544007813478,3.3072137872838283,4.599999904632568,4.569999694824219,4.589999675750732,4.610000133514404,3.735242334560766,3.710881887594452,3.727122056506605,3.7433626126149275,3.7291522228191876,0.1275812398816503,-0.9000000357627869,24.625,0.0,0.0,0.0,0.0,0.0,,,,,
frame_00051.png,1769712386715171233,1769712386.7151713,42.30115590583248,-83.69745221379719,239.27272033691406,0.7148598721070509,0.6991609033806147,0.009485893676609907,0.007707934629319772,0.011960000000000002,0.0036700000000000005,-0.00029,2.1247000000000003,-0.166,-9.759400000000001,1.537102138859892,3.438405258501247,4.75,4.759999752044678,4.769999980926514,4.769999980926514,3.8570437950000005,3.8651636858579925,3.8732839639121535,3.8732839639121535,3.8671938521705753,0.12470565899966989,-0.800000011920929,25.075000762939453,0.0,0.0,0.0,0.0,0.0,,,,,
frame_00052.png,1769712386738052076,1769712386.7380521,42.30115590583248,-83.69745221379719,239.27272033691406,0.714865908929026,0.6991548441286715,0.00951103971076872,0.00766657068777046,0.0024200000000000003,0.00941,0.0017600000000000003,2.2892,-0.068,-9.5853,1.5597379617748757,3.4890402362126904,4.869999885559082,4.849999904632568,4.849999904632568,4.880000114440918,3.9544848084729196,3.9382446395607666,3.9382446395607666,3.962605086527081,3.948394793530383,0.13165642303291875,-0.800000011920929,25.125,0.0,0.0,0.0,0.0,0.0,,,,,
frame_00053.png,1769712386756514376,1769712386.7565143,42.30115590583248,-83.69745221379719,239.27272033691406,0.7148879032376203,0.699133216009571,0.009550787995255433,0.007537541064768834,0.0036300000000000004,0.005870000000000001,0.0018100000000000002,2.3812,0.2202,-10.257900000000001,1.6160295245500205,3.614961084646923,4.96999979019165,4.920000076293945,5.019999980926514,4.929999828338623,4.035685653033686,3.995085424351387,4.0762862689121535,4.00320531520938,4.027565665376651,0.11413804217204385,-0.800000011920929,25.024999618530273,0.0,0.0,0.0,0.0,0.0,,,,,
frame_00054.png,1769712386777367311,1769712386.7773674,42.30115590583248,-83.69745221379719,239.27272033691406,0.7148976250503721,0.6991240036936397,0.009571187248913688,0.007443489192523171,0.0026800000000000005,0.008700000000000001,0.0004700000000000001,2.3759,-0.251,-10.1935,1.6599553836178083,3.71322059583002,5.099999904632568,5.089999675750732,5.109999656677246,5.089999675750732,4.141246944560766,4.133126666506605,4.149366835418759,4.133126666506605,4.1392167782481835,0.11472417849253577,-0.800000011920929,25.625,0.0,0.0,0.0,0.0,0.0,,,,,
frame_00055.png,1769712386797909255,1769712386.7979093,42.30115590583248,-83.69745221379719,239.27272033691406,0.714901591859842,0.6991206620065961,0.009606718773941552,0.0073297248325955,0.00834,0.020510000000000004,0.00029,2.141,0.1867,-10.1065,1.6998340687833262,3.802426821824174,5.170000076293945,5.159999847412109,5.259999752044678,5.179999828338623,4.198087729351387,4.1899674512972265,4.271168295857993,4.206207620209379,4.216357774178997,0.10885967613605348,-0.800000011920929,25.825000762939453,0.0,0.0,0.0,0.0,0.0,,,,,
frame_00056.png,1769712386819397623,1769712386.8193977,42.30115590583248,-83.69745221379719,239.27272033691406,0.7149046563686495,0.6991187049852163,0.009593262946924952,0.007234497097128606,0.005360000000000001,0.013800000000000002,0.0007600000000000002,2.2414,0.1705,-10.0701,1.7427132577807463,3.8983449948600626,5.359999656677246,5.339999675750732,5.349999904632568,5.329999923706055,4.352369140418759,4.336128971506605,4.344249249560766,4.328009080648613,4.340189110533686,0.11334146060858935,-0.800000011920929,26.075000762939453,0.0,0.0,0.0,0.0,0.0,,,,,
frame_00057.png,1769712386839274142,1769712386.8392742,42.30115590583248,-83.69745221379719,239.27272033691406,0.7149115850538156,0.6991121421271567,0.009576541685925102,0.007206117925556321,0.006780000000000001,0.0019400000000000003,0.0023100000000000004,2.2479,0.0029000000000000002,-9.677800000000001,1.7649608690543745,3.948111566422493,5.46999979019165,5.409999847412109,5.529999732971191,5.409999847412109,4.441690263033686,4.392969756297226,4.490410769770146,4.392969756297226,4.429510136349571,0.12193134915974238,-0.800000011920929,26.774999618530273,0.0,0.0,0.0,0.0,0.0,,,,,
frame_00058.png,1769712386860005013,1769712386.8600051,42.30115590583248,-83.69745221379719,239.27272033691406,0.7149229693947269,0.6991015820594637,0.009564710359321327,0.007116326968568423,0.00408,0.00021000000000000004,0.0035900000000000003,1.8953,0.3406,-9.9398,1.8259210351512902,4.084475800371328,5.639999866485596,5.549999713897705,5.569999694824219,5.549999713897705,4.579731892385073,4.506650938682299,4.522891107594452,4.506650938682299,4.52898121933603,0.10882802119290107,-0.699999988079071,26.899999618530273,0.0,0.0,0.0,0.0,0.0,,,,,
frame_00059.png,1769712386881050598,1769712386.8810506,42.30116058968058,-83.6974521806783,239.28375244140625,0.7149341318791648,0.6990904980932375,0.009591179822418416,0.0070478237455340815,-0.0008600000000000002,0.00239,-0.0007800000000000001,2.6260000000000003,-0.2311,-9.956800000000001,1.8714046882644157,4.186220003366202,5.710000038146973,5.639999866485596,5.71999979019165,5.62999963760376,4.636572677175694,4.579731892385073,4.644692568033686,4.571611614330912,4.608152187981341,0.10079073347216753,-0.6000000238418579,27.125,0.0,0.0,0.0,0.0,0.0,,,,,
frame_00060.png,1769712386901548380,1769712386.9015484,42.30116128887908,-83.69745218418323,239.28421020507812,0.7149319922560206,0.6990929147039739,0.009597565665170999,0.0070163945757186685,4e-05,1e-05,-0.0009500000000000001,2.5623,0.0534,-10.1904,1.9330336443380338,4.324080280365521,5.779999732971191,5.739999771118164,5.819999694824219,5.759999752044678,4.693413074770145,4.660932736945839,4.725893412594452,4.677172905857993,4.689353032542107,0.0844740912501534,-0.30000001192092896,27.850000381469727,0.0,0.0,0.0,0.0,0.0,,,,,
frame_00061.png,1769712386923023174,1769712386.923023,42.30116128887908,-83.69745218418323,239.28421020507812,0.7149305340744578,0.6990948522525268,0.009560387302350188,0.007022677314050099,0.004950000000000001,-0.005730000000000001,0.0004700000000000001,1.741,0.6295000000000001,-9.3529,1.9503044154426536,4.36271395908029,5.900000095367432,5.900000095367432,5.929999828338623,5.909999847412109,4.790854475439234,4.790854475439234,4.815214535209379,4.798974366297227,4.798974463096268,0.09999750341366566,0.10000000149011612,28.80000114440918,0.0,0.0,0.0,0.0,0.0,,,,,
frame_00062.png,1769712386942805734,1769712386.9428058,42.301161643465186,-83.69745218125229,239.2853240966797,0.7149254183842141,0.6990993127515959,0.009573925293658046,0.00708074945708726,-0.007420000000000001,-0.01124,0.00124,1.8453000000000002,0.4964,-9.555900000000001,1.9918917205118898,4.4557422652818675,6.049999713897705,5.96999979019165,6.049999713897705,5.980000019073486,4.912655548682299,4.847694873033686,4.912655548682299,4.855815151087847,4.882205280371532,0.0957108804098854,0.5,28.950000762939453,0.0,0.0,0.0,0.0,0.0,,,,,
frame_00063.png,1769712386965364420,1769712386.9653645,42.301162386357774,-83.6974521843437,239.28591918945312,0.7148980138740189,0.6991269484419035,0.009565870008732944,0.007129786271075336,-9e-05,-0.008140000000000001,-0.00198,1.7777,0.6451,-9.8766,2.054949042775876,4.596797711747068,6.150000095367432,6.239999771118164,6.179999828338623,6.190000057220459,4.993856780439234,5.0669373469458385,5.01821684020938,5.02633711826354,5.0263370214644985,0.0934431612293374,0.9000000357627869,29.399999618530273,0.0,0.0,0.0,0.0,0.0,,,,,
frame_00064.png,1769712386986510250,1769712386.9865103,42.301162386357774,-83.6974521843437,239.28591918945312,0.7148987459358126,0.6991263536870873,0.0095570608325751,0.00712651582771064,0.00223,-0.00027000000000000006,0.0011400000000000002,2.3641,-0.3044,-9.841000000000001,2.0784290711747073,4.64932112647355,6.309999942779541,6.269999980926514,6.349999904632568,6.349999904632568,5.12377813173646,5.091297793912154,5.1562584695607665,5.1562584695607665,5.131898216192536,0.10379517279870373,1.2000000476837158,29.725000381469727,0.0,0.0,0.0,0.0,0.0,,,,,
frame_00065.png,1769712387004994545,1769712387.0049946,42.30116276228441,-83.69745217982042,239.28695678710938,0.7148878602320132,0.6991370215460991,0.0095347635747518,0.007201435976003397,-0.0036300000000000004,-0.0028700000000000006,-0.00037000000000000005,1.5011,0.6459,-9.345,2.1127597040730497,4.726116692429168,6.359999656677246,6.349999904632568,6.429999828338623,6.359999656677246,5.164378360418758,5.1562584695607665,5.221219145209379,5.164378360418758,5.176558583901915,0.0953090921758906,1.5,29.649999618530273,0.0,0.0,0.0,0.0,0.0,,,,,
frame_00066.png,1769712387046367931,1769712387.046368,42.30116354882906,-83.69745218235131,239.28765869140625,0.7148517967475337,0.6991742971224759,0.009421482234126201,0.007310718338600066,0.00651,-0.015380000000000001,-0.00051,2.0300000000000002,0.1525,-10.3817,2.2004478618093164,4.9222698399957325,6.659999847412109,6.559999942779541,6.909999847412109,6.649999618530273,5.407981281297226,5.32678043673646,5.610983586297227,5.399861003243066,5.436401576893495,0.10445013248160487,1.8000000715255737,29.975000381469727,0.0,0.0,0.0,0.0,0.0,,,,,
frame_00067.png,1769712387087726076,1769712387.087726,42.30116436370304,-83.69745217852139,239.2892303466797,0.7148211209258399,0.69920856681059,0.009182514133913128,0.007336662128435156,0.014480000000000002,-0.009500000000000001,-0.00269,2.3454,0.6372,-10.046000000000001,2.2848461959247075,5.111063849511815,6.869999885559082,6.869999885559082,7.21999979019165,6.809999942779541,5.578503248472919,5.578503248472919,5.862706398033686,5.529782741736461,5.637373909178996,0.10297465951583674,1.899999976158142,30.274999618530273,0.0,0.0,0.0,0.0,0.0,,,,,
frame_00068.png,1769712387110320087,1769712387.11032,42.30116478014721,-83.69745217896953,239.28977966308594,0.7148164527667101,0.6992183694478955,0.008808746469821322,0.007315508613503323,0.01648,-0.016560000000000002,0.0010600000000000002,2.0118,0.1487,-10.1239,2.3483016050678382,5.253009792440451,7.0,6.989999771118164,7.0,6.980000019073486,5.6840645400000005,5.675944261945839,5.6840645400000005,5.667824371087846,5.6779744282584215,0.08089926587030788,1.8000000715255737,30.524999618530273,0.0,0.0,0.0,0.0,0.0,,,,,
frame_00069.png,1769712387152128191,1769712387.1521282,42.30116564026233,-83.69745217305412,239.29144287109375,0.7148293135414026,0.6992106566021047,0.008418615524589357,0.007255143598166925,0.009830000000000002,-0.00623,0.0017400000000000002,2.0758,0.0309,-9.652000000000001,2.4263910946141816,5.427691295186247,7.199999809265137,7.159999847412109,7.199999809265137,7.21999979019165,5.846466229121533,5.813985891297226,5.846466229121533,5.862706398033686,5.842406186893495,0.07640723636494455,1.399999976158142,30.600000381469727,0.0,0.0,0.0,0.0,0.0,,,,,
frame_00070.png,1769712387172489714,1769712387.1724896,42.301166522641196,-83.69745216792835,239.2930145263672,0.7148318126967881,0.6992092907982007,0.008323539779482823,0.007250234730038874,0.006940000000000001,-0.00338,0.0021100000000000003,1.7543000000000002,0.6903,-9.6464,2.461179144752732,5.505510076063176,7.269999980926514,7.329999923706055,7.399999618530273,7.339999675750732,5.903307013912154,5.952027520648613,6.008867918243065,5.960147411506605,5.9560874660776095,0.08184117071612508,1.2000000476837158,30.475000381469727,0.0,0.0,0.0,0.0,0.0,,,,,
frame_00071.png,1769712387191222634,1769712387.1912224,42.301166522641196,-83.69745216792835,239.2930145263672,0.7148404948170174,0.6992012459236108,0.00827851640204125,0.007221553490299066,0.010440000000000001,-0.0024100000000000002,0.00237,2.1468000000000003,0.1273,-10.1072,2.4824665126854653,5.553128640886625,7.480000019073486,7.409999847412109,7.519999980926514,7.449999809265137,6.073828981087847,6.016988196297226,6.106309318912153,6.049468534121532,6.06164875760469,0.09157362445629819,1.100000023841858,30.725000381469727,0.0,0.0,0.0,0.0,0.0,,,,,
frame_00072.png,1769712387233040532,1769712387.2330406,42.30116790709686,-83.6974521640752,239.29527282714844,0.7148317573084693,0.6992086601500379,0.008346430533395916,0.0072900899737662695,0.0023000000000000004,0.0023100000000000004,-0.005860000000000001,2.3804000000000003,-0.2796,-10.2986,2.5867638448602785,5.7864355151217515,7.730000019073486,7.769999980926514,7.669999599456787,7.769999980926514,6.276831286087847,6.309311623912153,6.2281103921552186,6.309311623912153,6.2808912315168435,0.08545082980756043,0.4000000059604645,31.30000114440918,0.0,0.0,0.0,0.0,0.0,,,,,
frame_00073.png,1769712387255216792,1769712387.2552168,42.30116838811724,-83.69745216573084,239.29617309570312,0.7148304197690208,0.6992075606633301,0.00843797835381525,0.007420148609138904,-0.012540000000000003,-0.00232,0.00218,1.949,0.43210000000000004,-9.9049,2.6452106610501267,5.917177536129471,7.859999656677246,7.859999656677246,7.909999847412109,7.889999866485596,6.382392190418759,6.382392190418759,6.422992806297226,6.406752637385073,6.398632456129954,0.08136563708977561,-0.10000000149011612,31.30000114440918,0.0,0.0,0.0,0.0,0.0,,,,,
frame_00074.png,1769712387296991185,1769712387.2969913,42.301169357241974,-83.69745216305492,239.29835510253906,0.7147867705457261,0.6992495849584519,0.008597559650956812,0.00748148088901196,-0.011910000000000002,0.0059900000000000005,-0.0015,1.9657,-0.14980000000000002,-9.9585,2.724983909394915,6.095625506281861,8.119999885559082,8.09000015258789,8.010000228881836,8.079999923706055,6.59351477347292,6.569154713702774,6.504194038054162,6.5610344356486126,6.556974490219617,0.07568525715077346,-0.800000011920929,31.524999618530273,0.0,0.0,0.0,0.0,0.0,,,,,
frame_00075.png,1769712387318035659,1769712387.3180356,42.301169859496376,-83.69745216687411,239.29928588867188,0.7147617696584132,0.6992728621624512,0.008738340099928308,0.007531154639574285,-0.01238,0.0073500000000000015,-0.0037700000000000003,2.0105,0.17750000000000002,-10.2714,2.764482233349142,6.18398088706803,8.229999542236328,8.220000267028809,8.239999771118164,8.309999465942383,6.682835508891679,6.674716005229855,6.690955786945839,6.747796184540291,6.6990758714019165,0.08329504792148629,-1.0,31.325000762939453,0.0,0.0,0.0,0.0,0.0,,,,,
frame_00076.png,1769712387338662249,1769712387.3386621,42.301169859496376,-83.69745216687411,239.29928588867188,0.7147575861386262,0.6992762205113522,0.008812644431288867,0.007529793009823403,-0.010160000000000002,0.01081,-0.0009500000000000001,1.8007000000000002,0.26990000000000003,-9.3125,2.782295126322943,6.223827259876845,8.279999732971191,8.309999465942383,8.399999618530273,8.420000076293945,6.723436124770146,6.747796184540291,6.820877138243064,6.837117694351387,6.782306785476222,0.08973249132406473,-1.2000000476837158,31.30000114440918,0.0,0.0,0.0,0.0,0.0,,,,,
frame_00077.png,1769712387358847932,1769712387.358848,42.301169859496376,-83.69745216687411,239.29928588867188,0.7147192084477333,0.6993127449649947,0.008976111679898303,0.007587306800168775,-0.015920000000000004,0.0006000000000000001,-0.0053100000000000005,1.947,0.22030000000000002,-9.5616,2.8265774729104507,6.322884212252304,8.4399995803833,8.470000267028809,8.519999504089355,8.559999465942383,6.853357476067372,6.877718310229855,6.918318151715985,6.950798489540291,6.900048106888375,0.09128174346727082,-1.2000000476837158,31.67500114440918,0.0,0.0,0.0,0.0,0.0,,,,,
frame_00078.png,1769712387379471304,1769712387.3794713,42.3011724494492,-83.69745218543126,239.3055419921875,0.7146957569806789,0.6993343980439514,0.009125886839003547,0.007621866944545177,-0.011580000000000002,0.00436,-0.0015500000000000002,1.7301000000000002,0.2419,-10.028400000000001,2.863359998053964,6.4051645140468345,8.569999694824219,8.539999961853027,8.679999351501465,8.569999694824219,6.958918767594452,6.934558707824307,7.04823950301321,6.958918767594452,6.975158936506605,0.08898981770253447,-1.2000000476837158,31.450000762939453,0.0,0.0,0.0,0.0,0.0,,,,,
frame_00079.png,1769712387397980004,1769712387.39798,42.3011724494492,-83.69745218543126,239.3055419921875,0.7146697701552371,0.6993592808250783,0.009245203578809043,0.007631655185868623,-0.007410000000000001,-0.0015700000000000002,-0.006,2.4861,-0.2877,-10.2333,2.9117877762821918,6.513494548276687,8.6899995803833,8.630000114440918,8.760000228881836,8.699999809265137,7.056359781067372,7.00763966152708,7.113200953054162,7.064480059121533,7.060420113692537,0.08396806988355479,-1.100000023841858,31.350000381469727,0.0,0.0,0.0,0.0,0.0,,,,,
frame_00080.png,1769712387418578993,1769712387.4185789,42.3011724494492,-83.69745218543126,239.3055419921875,0.7146591262604389,0.699366348212272,0.009412034757661638,0.007775464141623043,-0.013310000000000002,0.0032500000000000007,0.0021500000000000004,1.7007,0.8399000000000001,-9.3263,2.9700238346908465,6.643765116773342,8.84000015258789,8.779999732971191,8.869999885559082,8.789999961853027,7.1781616287027745,7.129440734770146,7.2025216884729195,7.137561012824307,7.161921266192537,0.07799134080026689,-1.0,31.524999618530273,0.0,0.0,0.0,0.0,0.0,,,,,
frame_00081.png,1769712387441097162,1769712387.4410973,42.30117299546671,-83.69745219099414,239.30682373046875,0.714646195783169,0.6993800698573369,0.009401578382321946,0.007742290546849585,0.005370000000000001,-0.00623,-0.00237,2.0196,0.2421,-9.386700000000001,3.0129155451415635,6.739711299548969,9.0,8.869999885559082,9.010000228881836,8.949999809265137,7.30808298,7.2025216884729195,7.316203258054162,7.267482364121533,7.273572572662154,0.07921129695108915,-0.800000011920929,31.5,0.0,0.0,0.0,0.0,0.0,,,,,
frame_00082.png,1769712387459972253,1769712387.4599724,42.30117409700513,-83.69745219982528,239.30950927734375,0.7146799603987297,0.6993438549109589,0.009516306210131024,0.007756720883519618,-0.005300000000000001,0.01699,0.007750000000000001,1.9842000000000002,1.0467,-9.4181,3.074294674215157,6.877012728538854,9.029999732971191,9.039999961853027,9.149999618530273,9.09999942779541,7.332443039770145,7.340563317824307,7.4298840532430654,7.389283437364598,7.3730434620505285,0.07212880840734832,-0.699999988079071,31.725000381469727,0.0,0.0,0.0,0.0,0.0,,,,,
frame_00083.png,1769712387480890164,1769712387.48089,42.30117409700513,-83.69745219982528,239.30950927734375,0.7146877663489917,0.6993368057155229,0.009482748573082745,0.007714031513917837,0.010830000000000001,0.0010700000000000002,0.0021100000000000003,2.3018,0.9481,-9.967,3.097058592073612,6.927934246953146,9.109999656677246,9.09999942779541,9.210000038146973,9.179999351501465,7.397403715418759,7.389283437364598,7.478604947175694,7.45424411301321,7.4298840532430654,0.07245302689047212,-0.6000000238418579,31.600000381469727,0.0,0.0,0.0,0.0,0.0,,,,,
frame_00084.png,1769712387501403800,1769712387.5014038,42.30117523311008,-83.69745220646793,239.31167602539062,0.714726270005035,0.6993008093527228,0.009369269478689518,0.007546773665096385,0.004920000000000001,-0.0082,0.00708,1.3353000000000002,0.3267,-9.284,3.151965216612231,7.050757071648564,9.359999656677246,9.260000228881836,9.289999961853027,9.319999694824219,7.600406020418759,7.519205563054161,7.543565622824306,7.567925682594453,7.55777572222292,0.0719098169773998,-0.6000000238418579,31.30000114440918,0.0,0.0,0.0,0.0,0.0,,,,,
frame_00085.png,1769712387522308281,1769712387.5223083,42.30117523311008,-83.69745220646793,239.31167602539062,0.7147645863282188,0.6992614980304958,0.009475543568006907,0.007426814747119674,0.00286,0.03202000000000001,0.012700000000000001,2.2441,0.7104,-9.5774,3.1742741666681,7.10066085438654,9.469999313354492,9.40999984741211,9.399999618530273,9.399999618530273,7.689726755837517,7.641006636297226,7.632886358243065,7.632886358243065,7.649126527155218,0.07724149681502608,-0.6000000238418579,31.325000762939453,0.0,0.0,0.0,0.0,0.0,,,,,
frame_00086.png,1769712387542758587,1769712387.5427587,42.301176394743614,-83.69745220566244,239.31349182128906,0.7148120480215218,0.6992151099765982,0.009496706642376517,0.007195731140058318,0.008560000000000002,0.01203,0.00395,2.2882000000000002,-0.4471,-10.2001,3.2353182621989567,7.237212833443334,9.529999732971191,9.469999313354492,9.420000076293945,9.5,7.738447649770146,7.689726755837517,7.649126914351387,7.714087590000001,7.697847227489763,0.06364803753149643,-0.6000000238418579,31.625,0.0,0.0,0.0,0.0,0.0,,,,,
frame_00087.png,1769712387563676078,1769712387.563676,42.301176394743614,-83.69745220566244,239.31349182128906,0.7148389422558341,0.6991869095299296,0.009572806529447855,0.007163347799470426,-0.006010000000000001,0.015370000000000002,0.00799,1.4379000000000002,0.0108,-9.360800000000001,3.249360863453016,7.26862528989259,9.59000015258789,9.619999885559082,9.519999504089355,9.579999923706055,7.787168543702775,7.81152860347292,7.730327371715985,7.779048265648614,7.777018196135073,0.06994347431135706,-0.6000000238418579,31.42500114440918,0.0,0.0,0.0,0.0,0.0,,,,,
frame_00088.png,1769712387584127872,1769712387.584128,42.30117698501175,-83.69745220503819,239.31442260742188,0.7148889848017792,0.699132705676721,0.009898509253854609,0.007015609508827402,-0.004560000000000001,0.030590000000000003,0.0018400000000000003,2.4093,0.4413,-9.8232,3.3164074142272373,7.418604401181477,9.619999885559082,9.699999809265137,9.670000076293945,9.710000038146973,7.81152860347292,7.876489279121533,7.852129219351387,7.884609557175694,7.856189164780384,0.05898478203383076,-0.6000000238418579,31.774999618530273,0.0,0.0,0.0,0.0,0.0,,,,,
frame_00089.png,1769712387605278062,1769712387.605278,42.30117758123306,-83.69745220209548,239.31552124023438,0.7148775472365004,0.6991437148256705,0.009954245567515368,0.007005103287477897,-0.006250000000000001,0.009520000000000002,-0.00316,2.0155000000000003,-0.0533,-9.8818,3.3361552743959293,7.462779179507231,9.739999771118164,9.809999465942383,9.889999389648438,9.819999694824219,7.908969616945839,7.965810014540291,8.030770690188904,7.973930292594452,7.969870153567372,0.06794934726899222,-0.5,31.950000762939453,0.0,0.0,0.0,0.0,0.0,,,,,
frame_00090.png,1769712387625610030,1769712387.6256099,42.30117819274425,-83.69745220237178,239.31671142578125,0.7148675748449513,0.6991504837715746,0.010180058595582606,0.0070226693116971235,-0.016950000000000003,0.005230000000000001,-0.0009100000000000001,2.4358,0.0579,-11.0169,3.3805823459715767,7.562159872997659,9.889999389648438,9.979999542236328,10.039999961853027,9.989999771118164,8.030770690188904,8.103851643891678,8.152572537824307,8.11197192194584,8.099791698462681,0.07109500916328859,-0.4000000059604645,32.07500076293945,0.0,0.0,0.0,0.0,0.0,,,,,
frame_00091.png,1769712387667250465,1769712387.6672504,42.301179424642726,-83.69745219341515,239.32008361816406,0.7147960923567309,0.6992218271705154,0.010239199588256337,0.007109258165606412,0.0030900000000000003,0.00027000000000000006,-0.006970000000000001,2.2901000000000002,0.2311,-10.726,3.465719499788655,7.752606577857234,10.179999351501465,10.139999389648438,10.229999542236328,10.260000228881836,8.26625333301321,8.233772995188904,8.306853948891678,8.331214783054161,8.284523765036989,0.06861139951290711,0.0,32.375,0.0,0.0,0.0,0.0,0.0,,,,,
frame_00092.png,1769712387687669072,1769712387.687669,42.30118005929724,-83.69745219134363,239.32273864746094,0.7147042466661432,0.6993171970892285,0.010020194409336857,0.007272781905491404,0.005090000000000001,-0.026270000000000005,-0.008650000000000001,2.3255,0.7899,-11.196200000000001,3.5293859477299296,7.895024601914989,10.229999542236328,10.300000190734863,10.34999942779541,10.25,8.306853948891678,8.363695120878468,8.404294962364597,8.323094505,8.349484634283685,0.05756283929228847,0.30000001192092896,31.875,0.0,0.0,0.0,0.0,0.0,,,,,
frame_00093.png,1769712387708558209,1769712387.7085583,42.30118133688841,-83.69745217960013,239.3285369873047,0.714630886936755,0.6993961503099652,0.009717311013025557,0.0073002900122731,0.019560000000000004,-0.020780000000000003,-0.011910000000000002,2.5050000000000003,-0.47800000000000004,-10.776200000000001,3.5719766632751444,7.990297477146702,10.40999984741211,10.399999618530273,10.449999809265137,10.429999351501465,8.453015856297226,8.444895578243065,8.485496194121533,8.46925563801321,8.463165816668758,0.05918031723781515,0.699999988079071,31.950000762939453,0.0,0.0,0.0,0.0,0.0,,,,,
frame_00094.png,1769712387729088939,1769712387.729089,42.30118199280651,-83.69745217839481,239.33184814453125,0.7145691346809322,0.6994614844579217,0.009380034832071489,0.007523195319379137,0.0018600000000000003,-0.028470000000000002,-0.0038300000000000005,2.1362,0.2291,-9.8999,3.62576536947382,8.110619585590767,10.529999732971191,10.489999771118164,10.519999504089355,10.559999465942383,8.550456869770146,8.51797653194584,8.542336591715985,8.57481692954029,8.546396730743066,0.05372920534042745,1.100000023841858,31.899999618530273,0.0,0.0,0.0,0.0,0.0,,,,,
frame_00095.png,1769712387750442467,1769712387.7504425,42.30118199280651,-83.69745217839481,239.33184814453125,0.7145503645205618,0.6994818198415472,0.009274992050312958,0.00754551503582984,0.011540000000000002,-0.018030000000000004,-0.005710000000000001,1.8695000000000002,0.6771,-9.4013,3.6441313500969468,8.151703182285864,10.639999389648438,10.639999389648438,10.630000114440918,10.639999389648438,8.639777605188904,8.639777605188904,8.631658101527082,8.639777605188904,8.637747729273448,0.05962490734988825,1.600000023841858,31.75,0.0,0.0,0.0,0.0,0.0,,,,,
frame_00096.png,1769712387770629332,1769712387.7706294,42.301183310932394,-83.69745217019975,239.3379669189453,0.7145226747137877,0.6995122691374316,0.00907794653274347,0.007584426992493249,0.00821,-0.013260000000000003,-0.0014700000000000002,1.3919000000000001,-0.4263,-9.2165,3.6776702958415775,8.226727791579858,10.779999732971191,10.679999351501465,10.739999771118164,10.800000190734863,8.753459174770146,8.67225794301321,8.72097883694584,8.769699730878468,8.729098921401917,0.061065728993274955,1.899999976158142,32.025001525878906,0.0,0.0,0.0,0.0,0.0,,,,,
frame_00097.png,1769712387791119543,1769712387.7911196,42.30118398660835,-83.69745216971988,239.3406219482422,0.7145216495604695,0.6995130557794302,0.009072325536271063,0.007615117390659842,-3e-05,0.0016800000000000003,0.0005400000000000001,1.8907,0.7027,-8.8976,3.736307653539749,8.357896042509207,10.829999923706055,10.869999885559082,10.90999984741211,10.899999618530273,8.794059790648614,8.826540128472919,8.859020466297226,8.850900188243065,8.832630143415455,0.05680067070608404,2.299999952316284,32.0,0.0,0.0,0.0,0.0,0.0,,,,,
frame_00098.png,1769712387834927091,1769712387.834927,42.30118534483599,-83.69745216476502,239.34548950195312,0.7145278635899421,0.6995092678193705,0.009034012621784285,0.007423139790574249,0.012520000000000002,0.005560000000000001,0.0018100000000000002,2.008,0.4525,-9.8474,3.8124840147337093,8.528297991918425,11.109999656677246,11.059999465942383,11.09000015258789,11.170000076293945,9.021422155418758,8.980821539540292,9.005182373702773,9.070143049351387,9.019392279503302,0.05758409099333153,2.700000047683716,31.875,0.0,0.0,0.0,0.0,0.0,,,,,
frame_00099.png,1769712387856443162,1769712387.8564432,42.30118604087463,-83.69745216086834,239.3477325439453,0.7145305288205639,0.6995080535425028,0.008989683115797672,0.007334303652133481,0.01913,0.00619,0.0013000000000000002,1.7895,0.7667,-9.4472,3.8302982131226093,8.56814728486249,11.199999809265137,11.210000038146973,11.380000114440918,11.25,9.094503109121534,9.102623387175694,9.240665016527082,9.135103725,9.143223809456078,0.06711795508109274,2.700000047683716,31.899999618530273,0.0,0.0,0.0,0.0,0.0,,,,,
frame_00100.png,1769712387874004279,1769712387.8740041,42.30118673834516,-83.69745215678044,239.3501434326172,0.7145230815153686,0.6995215905898362,0.00879646336881009,0.006995177813946714,0.026390000000000004,0.008530000000000001,0.0014100000000000002,1.8998000000000002,0.32480000000000003,-9.5608,3.8889399965697105,8.69932543592665,11.300000190734863,11.34999942779541,11.40999984741211,11.329999923706055,9.175704340878468,9.216304182364599,9.265025076297226,9.200064400648614,9.214274500047226,0.05919413728263687,2.700000047683716,31.899999618530273,0.0,0.0,0.0,0.0,0.0,,,,,
frame_00101.png,1769712387897546920,1769712387.897547,42.30118673834516,-83.69745215678044,239.3501434326172,0.7145136749649812,0.699533070333057,0.008735882735115476,0.00688303358133578,0.02452,0.0070100000000000015,-0.00289,2.0435000000000003,0.0815,-9.6465,3.909119700633633,8.7444662231354,11.479999542236328,11.670000076293945,11.609999656677246,11.619999885559082,9.321865473891679,9.476147659351389,9.427426765418758,9.435547043472921,9.415246735533687,0.07670914327778994,2.700000047683716,31.75,0.0,0.0,0.0,0.0,0.0,,,,,
frame_00102.png,1769712387917799441,1769712387.9177995,42.30118815919442,-83.697452139683,239.35426330566406,0.7144751612362407,0.6995782981892074,0.008516334093759854,0.006551391664663857,0.027870000000000002,0.007570000000000001,-0.004710000000000001,2.0832,0.2204,-9.5525,3.96961616719957,8.879793189055407,11.579999923706055,11.699999809265137,11.630000114440918,11.649999618530273,9.403066705648614,9.500507719121533,9.44366732152708,9.459907103243065,9.451787212385074,0.064415241566061,2.700000047683716,31.899999618530273,0.0,0.0,0.0,0.0,0.0,,,,,
frame_00103.png,1769712387938238929,1769712387.9382389,42.30118815919442,-83.697452139683,239.35426330566406,0.7144472279329483,0.6996083913725964,0.008450645312116901,0.006468679446568238,0.021130000000000003,0.00234,-0.0082,2.0459,0.0603,-9.2726,3.9897816664948818,8.924902201049061,11.6899995803833,11.75,11.699999809265137,11.739999771118164,9.49238744106737,9.541108335,9.500507719121533,9.532988056945838,9.516747888033684,0.06631396889873546,2.700000047683716,32.0,0.0,0.0,0.0,0.0,0.0,,,,,
frame_00104.png,1769712387958423639,1769712387.9584236,42.301189602261864,-83.69745212129897,239.35797119140625,0.714357536359653,0.6997047555823427,0.008279260012506676,0.006165964260868603,0.023820000000000004,0.0015200000000000003,-0.01012,2.0154,0.396,-9.674800000000001,4.047146340866066,9.053223535736938,11.619999885559082,11.809999465942383,11.84000015258789,11.809999465942383,9.435547043472921,9.58982845454029,9.614189288702775,9.58982845454029,9.557348310314069,0.0556845605973535,2.9000000953674316,32.025001525878906,0.0,0.0,0.0,0.0,0.0,,,,,
frame_00105.png,1769712387980522545,1769712387.9805224,42.301189602261864,-83.69745212129897,239.35797119140625,0.7143261300707969,0.6997388535972533,0.008204900127369288,0.006032932817490523,0.0296,0.008220000000000002,-0.008760000000000002,2.0488,0.41200000000000003,-9.533000000000001,4.067493618753331,9.098739175534076,12.09999942779541,11.929999351501465,11.989999771118164,11.949999809265137,9.825311097364597,9.687269468013211,9.73599036194584,9.703510024121533,9.738020237861296,0.0702604009186465,3.1000001430511475,32.025001525878906,0.0,0.0,0.0,0.0,0.0,,,,,
frame_00106.png,1769712387998216660,1769712387.9982166,42.30119108076365,-83.69745209759725,239.36135864257812,0.7142562295269029,0.6998147629280072,0.008003859298438509,0.0057683972089454605,0.033080000000000005,0.0073500000000000015,-0.009330000000000001,1.9341000000000002,0.8139000000000001,-9.227500000000001,4.10689536158629,9.186878510146837,12.210000038146973,12.079999923706055,12.139999389648438,11.84999942779541,9.914632607175696,9.809071315648612,9.857791435188904,9.622308792364597,9.800951037594452,0.06684234767765529,3.200000047683716,32.025001525878906,0.0,0.0,0.0,0.0,0.0,,,,,
frame_00107.png,1769712388018821355,1769712388.0188215,42.30119182684279,-83.6974520805912,239.36257934570312,0.7141190816301337,0.6999669239600538,0.007384437103311609,0.005070769399375002,0.07582000000000001,-0.005390000000000001,-0.015710000000000002,2.1139,0.8337,-9.482700000000001,4.1756234435269395,9.340619105763153,12.219999313354492,12.179999351501465,12.25999927520752,12.059999465942383,9.922752110837518,9.890271773013211,9.955232448661823,9.79283075954029,9.890271773013211,0.05884542138228533,3.6000001430511475,32.07500076293945,0.0,0.0,0.0,0.0,0.0,,,,,
frame_00108.png,1769712388039524154,1769712388.039524,42.30119334957031,-83.69745204340309,239.3649139404297,0.7140727999583728,0.7000192975119621,0.007084696042452269,0.004777714145357517,0.08409000000000001,-0.0016200000000000001,-0.013410000000000002,1.5325,0.3836,-9.525,4.190758440081818,9.374475184956623,12.389999389648438,12.34000015258789,12.300000190734863,12.139999389648438,10.060793740188904,10.020193898702775,9.987713560878468,9.857791435188904,9.981623158739762,0.06476607615938217,3.700000047683716,32.0,0.0,0.0,0.0,0.0,0.0,,,,,
frame_00109.png,1769712388060539055,1769712388.0605392,42.30119334957031,-83.69745204340309,239.3649139404297,0.713937987199196,0.7001703718168445,0.006254900489830068,0.0038570822761493846,0.08408000000000002,-0.0026500000000000004,-0.011870000000000002,1.3418,0.8404,-9.47,4.246020184224455,9.498092390899053,12.34000015258789,12.319999694824219,12.399999618530273,12.329999923706055,10.020193898702775,10.003953342594452,10.068914018243065,10.012073620648613,10.026283720047227,0.05561025387100669,3.799999952316284,31.875,0.0,0.0,0.0,0.0,0.0,,,,,
frame_00110.png,1769712388080845677,1769712388.0808456,42.30119334957031,-83.69745204340309,239.3649139404297,0.7138884918583989,0.7002253248040968,0.00597145033749293,0.003472387651832781,0.09475000000000001,0.013550000000000001,-0.014570000000000001,0.9545,0.8262,-9.8354,4.2551589878209395,9.518535346216172,12.710000038146973,12.50999927520752,12.4399995803833,12.359999656677246,10.320637217175694,10.158234753661825,10.101394356067372,10.03643368041876,10.154175001830913,0.06677914537213137,3.799999952316284,31.899999618530273,0.0,0.0,0.0,0.0,0.0,,,,,
frame_00111.png,1769712388102801353,1769712388.1028013,42.301194895307134,-83.69745200639743,239.36679077148438,0.713765182684585,0.7003600648833613,0.005425679751490212,0.0023675943591005793,0.06371000000000002,0.018400000000000003,-0.0066900000000000015,2.1208,-1.04,-9.623700000000001,4.313586009256257,9.649233087545692,12.819999694824219,12.59000015258789,12.519999504089355,12.609999656677246,10.409957952594452,10.223196203702775,10.166355031715984,10.23943598541876,10.259736293357992,0.06326960912575315,3.799999952316284,31.825000762939453,0.0,0.0,0.0,0.0,0.0,,,,,
frame_00112.png,1769712388122561955,1769712388.122562,42.30119567220132,-83.6974519889175,239.3677215576172,0.7137437751909889,0.7003834881332931,0.005398969153701514,0.0019089417052556537,0.024870000000000003,0.03150000000000001,-0.00393,1.4576,-0.5638000000000001,-10.0827,4.344014610697447,9.717300043253548,12.630000114440918,12.739999771118164,12.609999656677246,12.609999656677246,10.255676541527082,10.34499727694584,10.23943598541876,10.23943598541876,10.26988644732761,0.05686624902127073,3.799999952316284,32.0,0.0,0.0,0.0,0.0,0.0,,,,,
frame_00113.png,1769712388143151907,1769712388.1431518,42.3011972575245,-83.69745197593942,239.3709259033203,0.7136771005998308,0.7004498980505892,0.00566899436392051,0.001672992301258365,-0.02085,0.01182,-0.00302,2.5583,-1.5283,-11.647,4.411505605374406,9.868273348886223,12.710000038146973,12.739999771118164,12.670000076293945,12.859999656677246,10.320637217175694,10.34499727694584,10.288156879351387,10.442438290418758,10.34905741597292,0.04872018134164883,3.700000047683716,32.125,0.0,0.0,0.0,0.0,0.0,,,,,
frame_00114.png,1769712388164645335,1769712388.1646454,42.3011972575245,-83.69745197593942,239.3709259033203,0.713669818486761,0.7004556644101769,0.005836247396068219,0.001786223139152341,-0.03959000000000001,0.008100000000000001,-0.0019100000000000002,2.1245000000000003,-1.3139,-11.2097,4.432228300564333,9.91462877466438,12.739999771118164,12.799999237060547,12.699999809265137,12.84000015258789,10.34499727694584,10.39371739648613,10.312516939121533,10.426198508702774,10.369357530314069,0.045864425787851326,3.700000047683716,31.774999618530273,0.0,0.0,0.0,0.0,0.0,,,,,
frame_00115.png,1769712388184262829,1769712388.184263,42.30119886568576,-83.69745197795154,239.375732421875,0.7136721141515316,0.7004512325585698,0.006022540692982492,0.0019782045558346924,-0.05346000000000001,-0.00036,0.00075,2.0722,-0.7888000000000001,-10.9959,4.452331146270327,9.959597634337944,12.869999885559082,12.899999618530273,12.90999984741211,12.969999313354492,10.45055856847292,10.474918628243065,10.483038906297226,10.531759025837516,10.485068782212682,0.05276027879510496,3.6000001430511475,32.20000076293945,0.0,0.0,0.0,0.0,0.0,,,,,
frame_00116.png,1769712388206217216,1769712388.2062173,42.30119886568576,-83.69745197795154,239.375732421875,0.7136125804318574,0.7005039615269365,0.0065852455541931506,0.0028141562581262825,-0.07305000000000002,-0.01844,-0.007250000000000001,2.4723,-1.1085,-10.981,4.517888917547245,10.106246435218136,13.1899995803833,13.029999732971191,13.049999237060547,13.019999504089355,10.710401271067372,10.580479919770147,10.59671970148613,10.572359641715984,10.614990133509908,0.05033953026505543,3.700000047683716,32.20000076293945,0.0,0.0,0.0,0.0,0.0,,,,,
frame_00117.png,1769712388225792334,1769712388.2257922,42.30119968897711,-83.69745198892912,239.37916564941406,0.7135849015373454,0.7005242096709797,0.006851126679167445,0.003934720576140315,-0.04896000000000001,-0.04053000000000001,-0.00524,1.4018000000000002,0.8567,-10.1867,4.578885568100593,10.24269228270694,13.170000076293945,13.15999984741211,13.25999927520752,13.199999809265137,10.694161489351387,10.686041211297226,10.767241668661823,10.718521549121533,10.716491479607992,0.046257290937167135,3.700000047683716,32.07500076293945,0.0,0.0,0.0,0.0,0.0,,,,,
frame_00118.png,1769712388246812074,1769712388.246812,42.30120134127537,-83.69745200415117,239.38607788085938,0.7134890376452803,0.7006203062471249,0.00676346274573272,0.004339954594657961,-0.01682,-0.03495000000000001,-0.012280000000000001,1.9801000000000002,0.0019,-9.9419,4.614207947939421,10.321706327063609,13.25,13.25,13.420000076293945,13.269999504089355,10.759122165,10.759122165,10.897163794351389,10.775361946715984,10.797692517766842,0.04611506815062092,3.799999952316284,32.0,0.0,0.0,0.0,0.0,0.0,,,,,
frame_00119.png,1769712388267208047,1769712388.2672079,42.30120134127537,-83.69745200415117,239.38607788085938,0.7134656460870918,0.7006446457961272,0.00660448356319322,0.0044981071143151445,-0.00026000000000000003,-0.04478000000000001,-0.007060000000000001,2.2412,0.45070000000000005,-9.954500000000001,4.6362024957284556,10.370906810794812,13.469999313354492,13.449999809265137,13.539999961853027,13.449999809265137,10.937763635837516,10.921523854121533,10.994604807824306,10.921523854121533,10.943854037976223,0.05524562486522823,3.799999952316284,32.07500076293945,0.0,0.0,0.0,0.0,0.0,,,,,
frame_00120.png,1769712388308479047,1769712388.308479,42.30120302343472,-83.69745201957845,239.3933563232422,0.7132810013228873,0.7008383204757176,0.005840873359092199,0.004663250261090441,0.029680000000000005,-0.025660000000000002,-0.0076500000000000005,1.5205,0.781,-9.4526,4.690992358183652,10.49346844571534,13.679999351501465,13.569999694824219,13.59000015258789,13.619999885559082,11.108285603013211,11.018964867594454,11.035205423702774,11.059565483472921,11.05550534444584,0.05356064123488071,3.799999952316284,31.80000114440918,0.0,0.0,0.0,0.0,0.0,,,,,
frame_00121.png,1769712388329131578,1769712388.3291316,42.30120387047085,-83.6974520272696,239.39691162109375,0.7131294125573658,0.7009968014753534,0.005376920924965142,0.004584101687026234,0.00455,-0.016210000000000002,-0.00969,1.661,-0.8471000000000001,-9.4489,4.742842862469294,10.609454912772062,13.649999618530273,13.75999927520752,13.569999694824219,13.75999927520752,11.083925543243065,11.173246278661823,11.018964867594454,11.173246278661823,11.112345742040292,0.04740025132326365,3.799999952316284,32.025001525878906,0.0,0.0,0.0,0.0,0.0,,,,,
frame_00122.png,1769712388351973193,1769712388.351973,42.301205586645246,-83.69745204468178,239.40338134765625,0.7131012875386198,0.7010241712445912,0.005387989121305134,0.0047575849782869484,-0.014550000000000002,-0.01213,-0.0041600000000000005,1.4964000000000002,0.525,-9.027800000000001,4.774125892339995,10.67943317361103,13.769999504089355,13.829999923706055,13.719999313354492,13.75999927520752,11.181366556715986,11.230087450648613,11.140765940837518,11.173246278661823,11.181366556715984,0.04700000224218219,3.700000047683716,32.125,0.0,0.0,0.0,0.0,0.0,,,,,
frame_00123.png,1769712388370533386,1769712388.3705335,42.301205586645246,-83.69745204468178,239.40338134765625,0.7130710777566653,0.7010541211186997,0.005434334772457103,0.004819267062136011,-0.015350000000000003,-0.0020100000000000005,-0.0089,1.3592,0.6441,-8.791,4.787612653455623,10.709602249021023,13.75,14.019999504089355,13.75999927520752,13.969999313354492,11.165126775000001,11.384368861715986,11.173246278661823,11.343768245837518,11.266627540303832,0.052011762746252056,3.6000001430511475,31.825000762939453,0.0,0.0,0.0,0.0,0.0,,,,,
frame_00124.png,1769712388391436051,1769712388.391436,42.30120645196719,-83.69745205546772,239.40625,0.7129764129539005,0.7011444891715496,0.005856639444232137,0.00517103956434652,-0.050010000000000006,0.0027700000000000003,-0.00474,1.8245,-0.24810000000000001,-9.2912,4.84338211083597,10.834355179013414,13.960000038146973,14.039999961853027,13.920000076293945,14.029999732971191,11.335648742175692,11.400609417824308,11.303168404351387,11.392489139770145,11.357978926030384,0.04832994104081526,3.5,32.07500076293945,0.0,0.0,0.0,0.0,0.0,,,,,
frame_00125.png,1769712388411859232,1769712388.4118593,42.30120820657567,-83.69745207698708,239.41148376464844,0.712909811104079,0.701200896030974,0.006533473299116331,0.005849646447017353,-0.06698000000000001,-0.0009800000000000002,-0.008620000000000001,1.7793,0.010100000000000001,-9.7239,4.897845350897876,10.956186179237497,14.130000114440918,14.019999504089355,14.019999504089355,14.139999389648438,11.47369037152708,11.384368861715986,11.384368861715986,11.481809875188905,11.431059492536988,0.04334293937058132,3.200000047683716,32.0,0.0,0.0,0.0,0.0,0.0,,,,,
frame_00126.png,1769712388432992050,1769712388.432992,42.30120820657567,-83.69745207698708,239.41148376464844,0.7128868743814771,0.7012196425347802,0.006774322806828994,0.00611766364813913,-0.07200000000000001,-0.00319,-0.0059900000000000005,1.8416000000000001,-0.3047,-9.8457,4.916172998625224,10.997184027544709,14.139999389648438,14.229999542236328,14.119999885559082,14.170000076293945,11.481809875188905,11.554890828891677,11.46557009347292,11.506170709351387,11.502110376726222,0.04591414928738315,2.9000000953674316,32.0,0.0,0.0,0.0,0.0,0.0,,,,,
frame_00127.png,1769712388453274697,1769712388.4532747,42.301209989020755,-83.69745210307171,239.41647338867188,0.7128388443135636,0.701257447838653,0.007304875506315925,0.006738893259191965,-0.08335000000000002,-0.012010000000000002,-0.007760000000000001,2.3324000000000003,0.050100000000000006,-9.9967,4.959188204292169,11.093406461709325,14.25,14.34999942779541,14.25,14.289999961853027,11.571131385000001,11.652331842364598,11.571131385000001,11.603611722824308,11.599551583797226,0.04562576191857226,2.700000047683716,32.45000076293945,0.0,0.0,0.0,0.0,0.0,,,,,
frame_00128.png,1769712388494699725,1769712388.4946997,42.30121178919165,-83.69745212349837,239.42169189453125,0.7127040202059923,0.7013799959012434,0.007806672145177206,0.007624749294631137,-0.021920000000000002,-0.006300000000000001,-0.00936,1.6869,1.4233,-9.344100000000001,5.019488779543271,11.228295230511526,14.739999771118164,14.559999465942383,14.50999927520752,14.549999237060547,11.96901571694584,11.822853809540293,11.782253193661825,11.81473353148613,11.84721406290852,0.05512135365973974,2.1000001430511475,32.60000228881836,0.0,0.0,0.0,0.0,0.0,,,,,
frame_00129.png,1769712388515444631,1769712388.5154448,42.301212703820106,-83.69745212706127,239.42420959472656,0.7125612565553627,0.7015304828000598,0.007436268865612063,0.0074926139574654875,0.032080000000000004,-0.01725,-0.011460000000000001,1.2608000000000001,0.42410000000000003,-9.760900000000001,5.0728384121919845,11.347635157768739,14.920000076293945,14.589999198913574,14.609999656677246,14.710000038146973,12.115177624351388,11.847213869310437,11.863454425418759,11.944655657175694,11.94262539406407,0.05243297198253619,1.899999976158142,32.54999923706055,0.0,0.0,0.0,0.0,0.0,,,,,
frame_00130.png,1769712388537926373,1769712388.5379264,42.301212703820106,-83.69745212706127,239.42420959472656,0.7125420754029889,0.7015530936472572,0.007284888666813546,0.007346970224259385,0.04202,-0.00103,-0.005930000000000001,0.8768,0.9441,-10.0751,5.081558345757139,11.367141125957975,14.65999984741211,14.739999771118164,14.630000114440918,14.889999389648438,11.904055041297227,11.96901571694584,11.879694981527082,12.090816790188905,11.960895632489763,0.05223428652397844,1.5,32.45000076293945,0.0,0.0,0.0,0.0,0.0,,,,,
frame_00131.png,1769712388558804018,1769712388.558804,42.30121453757327,-83.69745212805195,239.42921447753906,0.7124019243852651,0.7017078564647884,0.006735919257699115,0.006649037487997917,0.06449,0.004540000000000001,-0.015290000000000003,2.027,0.6775,-9.5495,5.134936102540588,11.486543965217145,14.699999809265137,14.789999961853027,14.809999465942383,14.859999656677246,11.936535379121532,12.009616332824306,12.025856114540291,12.066456730418759,12.009616139226221,0.04553782021755298,1.3000000715255737,32.275001525878906,0.0,0.0,0.0,0.0,0.0,,,,,
frame_00132.png,1769712388598719194,1769712388.5987191,42.30121640067464,-83.69745211696147,239.4343719482422,0.7122366888856229,0.7018904445059172,0.006005480399832366,0.005712890835446001,0.04528000000000001,0.00969,-0.014810000000000002,2.1997,0.1864,-10.0479,5.201302305393915,11.635001179027864,15.130000114440918,14.989999771118164,14.880000114440918,14.920000076293945,12.28569959152708,12.172018021945838,12.082697286527083,12.115177624351388,12.163898131087848,0.045457404251348345,1.100000023841858,32.45000076293945,0.0,0.0,0.0,0.0,0.0,,,,,
frame_00133.png,1769712388619091160,1769712388.6190913,42.30121640067464,-83.69745211696147,239.4343719482422,0.712196726105707,0.7019334586308515,0.005845955587802516,0.005573848052158544,0.04227000000000001,-0.003110000000000001,-0.011730000000000003,1.9001000000000001,1.0451000000000001,-9.7257,5.220235174293326,11.677352870783714,15.119999885559082,15.170000076293945,15.029999732971191,15.029999732971191,12.27757931347292,12.318179929351386,12.204498359770147,12.204498359770147,12.251188990591151,0.0491409419718019,1.100000023841858,32.22500228881836,0.0,0.0,0.0,0.0,0.0,,,,,
frame_00134.png,1769712388641445819,1769712388.6414459,42.30121829020282,-83.69745209083496,239.43948364257812,0.7119874677510525,0.7021530777381021,0.0053647186215329415,0.0051108690519737,0.04109,0.006180000000000001,-0.021540000000000004,1.8128000000000002,0.0441,-9.621,5.274299309174058,11.798291096663817,15.130000114440918,15.15999984741211,15.25999927520752,15.210000038146973,12.28569959152708,12.310059651297227,12.391260108661823,12.350660267175694,12.334419904665456,0.045441225649470444,1.100000023841858,32.375,0.0,0.0,0.0,0.0,0.0,,,,,
frame_00135.png,1769712388682412064,1769712388.6824121,42.301220201353026,-83.69745206213868,239.4442901611328,0.7117072105906692,0.7024431157028578,0.00488433935663564,0.0047601285654205365,0.025590000000000005,-0.0006100000000000001,-0.022770000000000002,1.8693000000000002,0.11900000000000001,-10.1989,5.344720591023234,11.955819278883514,15.329999923706055,15.449999809265137,15.6899995803833,15.339999198913574,12.448101280648613,12.545542294121534,12.74042432106737,12.456220784310437,12.54757217003699,0.04949496787716052,1.100000023841858,32.375,0.0,0.0,0.0,0.0,0.0,,,,,
frame_00136.png,1769712388722274092,1769712388.722274,42.30122311581548,-83.69745201995806,239.4535369873047,0.7114079845661462,0.7027526487540388,0.004107124579387335,0.004530528932248166,0.009320000000000002,-0.017390000000000003,-0.016330000000000004,1.9943000000000002,-0.9046000000000001,-9.7986,5.425742782660963,12.137061060245616,15.559999465942383,15.539999961853027,15.679999351501465,15.609999656677246,12.634863029540291,12.618623247824306,12.732304043013212,12.675463645418759,12.665313491449142,0.043523916422715615,0.9000000357627869,32.525001525878906,0.0,0.0,0.0,0.0,0.0,,,,,
frame_00137.png,1769712388743211447,1769712388.7432115,42.30122311581548,-83.69745201995806,239.4535369873047,0.7113956129384982,0.7027656464567885,0.004012381523753551,0.004541899001321088,0.011760000000000001,-0.015080000000000001,-0.0037200000000000006,1.4879,0.23750000000000002,-9.3537,5.4406385103178865,12.170381909270494,15.719999313354492,15.59999942779541,15.639999389648438,15.670000076293945,12.764784380837519,12.667343367364598,12.699823705188903,12.724184539351388,12.714033998185602,0.04467009276849349,0.800000011920929,32.35000228881836,0.0,0.0,0.0,0.0,0.0,,,,,
frame_00138.png,1769712388763717812,1769712388.763718,42.301225089345756,-83.6974520171992,239.459228515625,0.7113062113998467,0.7028564270483552,0.003935395377877327,0.00456390666387522,-0.019600000000000003,0.00651,-0.0027900000000000004,0.9473,-1.9288,-8.5817,5.481652676427751,12.262128138008293,15.829999923706055,15.75,15.649999618530273,15.769999504089355,12.854105890648613,12.789145215000001,12.707943983243066,12.805384996715986,12.789145021401918,0.04297923471865028,0.6000000238418579,32.67499923706055,0.0,0.0,0.0,0.0,0.0,,,,,
frame_00139.png,1769712388784749717,1769712388.7847497,42.301225089345756,-83.6974520171992,239.459228515625,0.7113413253544141,0.7028190020881394,0.004134949061947407,0.004676680779458368,-0.04454,0.012620000000000003,0.007710000000000002,1.6971,-1.6714,-8.6677,5.49875813558066,12.300392023805802,15.769999504089355,15.769999504089355,15.839999198913574,15.839999198913574,12.805384996715986,12.805384996715986,12.862225394310435,12.862225394310435,12.83380519551321,0.04336554238881632,0.4000000059604645,32.29999923706055,0.0,0.0,0.0,0.0,0.0,,,,,
frame_00140.png,1769712388805088196,1769712388.8050883,42.301226081315036,-83.69745202788492,239.46145629882812,0.7113636833363703,0.7027901416822876,0.004708069150953627,0.005055775823006943,-0.04467000000000001,0.00795,0.00015000000000000001,1.5483,-0.8206,-9.534,5.5475136235768066,12.409455125123902,15.90999984741211,15.929999351501465,15.899999618530273,15.949999809265137,12.919066566297225,12.93530634801321,12.910946288243066,12.951546904121534,12.929216526668759,0.04188430485497785,0.30000001192092896,32.525001525878906,0.0,0.0,0.0,0.0,0.0,,,,,
frame_00141.png,1769712388826743894,1769712388.8267438,42.30122809004061,-83.69745204745767,239.46510314941406,0.7114114237273128,0.7027375099322649,0.005210182470859251,0.00516065142184307,-0.033220000000000006,0.049710000000000004,0.010190000000000001,2.6885000000000003,-0.3302,-9.8134,5.582013218281426,12.486628648502453,15.9399995803833,15.969999313354492,16.029998779296875,16.029998779296875,12.943426626067373,12.967786685837519,13.016506805377809,13.016506805377809,12.986056730665128,0.03999703172261572,0.20000000298023224,32.375,0.0,0.0,0.0,0.0,0.0,,,,,
frame_00142.png,1769712388846342895,1769712388.8463428,42.30122809004061,-83.69745204745767,239.46510314941406,0.7114259117205898,0.7027213290054859,0.005281025248832401,0.005293077140221773,-0.029280000000000004,-0.00855,0.0018800000000000004,2.1089,-0.1297,-9.733600000000001,5.603171602601101,12.533958684722508,16.279998779296875,16.09000015258789,16.25,16.170000076293945,13.219509110377807,13.065228473702776,13.195149825,13.130189149351388,13.152519139607993,0.04935076542413055,0.20000000298023224,32.67499923706055,0.0,0.0,0.0,0.0,0.0,,,,,
frame_00143.png,1769712388867340864,1769712388.8673408,42.301230123211525,-83.69745207012548,239.469482421875,0.7114674480887966,0.7026757254981136,0.0056111749137127435,0.005423082315706552,-0.013380000000000003,0.023940000000000003,0.0055000000000000005,1.1273,1.0869,-10.515,5.64607705502767,12.629935607473598,16.1299991607666,16.219999313354492,16.350000381469727,16.170000076293945,13.097708037134742,13.170788990837517,13.276351056756935,13.130189149351388,13.168759308520146,0.042662426618209036,0.10000000149011612,32.60000228881836,0.0,0.0,0.0,0.0,0.0,,,,,
frame_00144.png,1769712388887878205,1769712388.8878782,42.301230123211525,-83.69745207012548,239.469482421875,0.7114573173390839,0.7026862974520124,0.005579127865607704,0.005415377190498702,0.005580000000000001,-0.0034500000000000004,-0.0029500000000000004,2.1531000000000002,0.79,-10.8766,5.667558204122922,12.67798764913073,16.28999900817871,16.31999969482422,16.399999618530273,16.44999885559082,13.22762938843197,13.251990222594452,13.316950898243064,13.357550739729195,13.28853031224967,0.048157695055082494,0.10000000149011612,32.35000228881836,0.0,0.0,0.0,0.0,0.0,,,,,
frame_00145.png,1769712388908441036,1769712388.908441,42.30123114741938,-83.69745207974006,239.47195434570312,0.7114388222911372,0.7027055008439212,0.00548963856940503,0.005444730394683929,-0.004570000000000001,0.00468,-0.00021000000000000004,0.9983000000000001,0.10360000000000001,-9.9948,5.711501702916632,12.776286619322331,16.399999618530273,16.40999984741211,16.44999885559082,16.399999618530273,13.316950898243064,13.325071176297227,13.357550739729195,13.316950898243064,13.329130928128137,0.04327112605392768,0.10000000149011612,32.22500228881836,0.0,0.0,0.0,0.0,0.0,,,,,
frame_00146.png,1769712388929279992,1769712388.92928,42.301233214899334,-83.69745209209712,239.4776611328125,0.711420042853746,0.7027254466897169,0.00544073227984591,0.005372860780893889,0.01584,0.00012,-0.0072000000000000015,1.5312000000000001,1.1426,-10.1409,5.740471245355929,12.841089747586492,16.5,16.619998931884766,16.399999618530273,16.529998779296875,13.39815213,13.495592369080581,13.316950898243064,13.422511415377807,13.408301703175363,0.04417163704470481,0.10000000149011612,32.42499923706055,0.0,0.0,0.0,0.0,0.0,,,,,
frame_00147.png,1769712388949844838,1769712388.9498448,42.30123425420801,-83.69745209846111,239.48057556152344,0.7113713628442978,0.70277607952329,0.005425136508773962,0.0052090372221551984,-0.0009400000000000002,0.0134,-0.0038800000000000006,1.5816000000000001,-0.6881,-9.5031,5.7877750320960795,12.946905480297005,16.6299991607666,16.53999900817871,16.510000228881836,16.53999900817871,13.503712647134742,13.43063169343197,13.406272408054162,13.43063169343197,13.442812110513211,0.038303101151923286,0.10000000149011612,32.125,0.0,0.0,0.0,0.0,0.0,,,,,
frame_00148.png,1769712388970882485,1769712388.9708827,42.30123529816024,-83.69745210964723,239.48342895507812,0.7113587081132058,0.7027876957535154,0.005532059939586067,0.005257318879410677,-0.02185,0.00846,-0.0033700000000000006,1.6367,-1.2334,-9.473700000000001,5.8041244749457395,12.983478202985124,16.60999870300293,16.68000030517578,16.53999900817871,16.69999885559082,13.487472091026422,13.544314037405549,13.43063169343197,13.560553044729195,13.505742716648284,0.040225316013014316,0.10000000149011612,32.45000076293945,0.0,0.0,0.0,0.0,0.0,,,,,
frame_00149.png,1769712388991207037,1769712388.991207,42.30123635364478,-83.69745211823405,239.48590087890625,0.7113988419612683,0.7027377384837956,0.006310890507558681,0.005615267388892408,-0.053160000000000006,0.023840000000000004,0.0004900000000000001,2.0429,0.6697000000000001,-9.3923,5.850363832289394,13.086912871001436,16.690000534057617,16.729999542236328,16.68000030517578,16.779998779296875,13.55243431545971,13.58491387889168,13.544314037405549,13.625513720377807,13.576793988033685,0.03743290123966131,0.0,32.375,0.0,0.0,0.0,0.0,0.0,,,,,
frame_00150.png,1769712389012852613,1769712389.0128527,42.30123635364478,-83.69745211823405,239.48590087890625,0.7114147829107441,0.7027187349934287,0.006522171164106067,0.005731267625938114,-0.04611000000000001,0.013670000000000002,0.00502,2.1327000000000003,-0.0089,-9.8893,5.871554224597541,13.134314507171224,16.75,16.779998779296875,16.959999084472656,16.84000015258789,13.601154435,13.625513720377807,13.771675627783356,13.674235388702774,13.668144792965984,0.040643939621157504,0.0,32.5,0.0,0.0,0.0,0.0,0.0,,,,,
frame_00151.png,1769712389032646077,1769712389.0326462,42.301238472518676,-83.69745214196374,239.49114990234375,0.7114867634134082,0.7026387840139421,0.006921484206804035,0.006117004438180619,-0.059710000000000006,0.00217,0.010190000000000001,1.1103,0.3789,-10.5951,5.900360714196575,13.198752896014886,16.719999313354492,16.809999465942383,17.0,17.029998779296875,13.576793600837517,13.649874554540292,13.80415674,13.828516025377809,13.714835230188903,0.039100840680928166,0.0,32.42499923706055,0.0,0.0,0.0,0.0,0.0,,,,,
frame_00152.png,1769712389073944429,1769712389.0739443,42.30124061909764,-83.69745215197071,239.49761962890625,0.7115344370661548,0.7025869970019618,0.007119360120839201,0.0062905662849383585,0.00020000000000000004,-0.021030000000000004,0.004710000000000001,1.4089,0.5244,-10.5832,5.969705623060344,13.353873296448606,17.190000534057617,17.09000015258789,17.139999389648438,17.10999870300293,13.95843892545971,13.877237693702774,13.917837535188903,13.89347670102642,13.911747713844452,0.041776225145419774,0.0,32.525001525878906,0.0,0.0,0.0,0.0,0.0,,,,,
frame_00153.png,1769712389095044027,1769712389.0950441,42.30124169962679,-83.69745215940765,239.5010986328125,0.7115653047117194,0.7025612198387249,0.006775555894057552,0.006053210021772103,0.038810000000000004,-0.0103,-0.0021300000000000004,1.7013,0.6981,-9.854800000000001,6.0130083831417025,13.450738972585,17.18000030517578,17.219999313354492,17.31999969482422,17.209999084472656,13.950318647405549,13.982798210837517,14.06399944259445,13.974677932783356,13.99294855840522,0.04031076559625001,0.0,32.47500228881836,0.0,0.0,0.0,0.0,0.0,,,,,
frame_00154.png,1769712389116149540,1769712389.1161494,42.30124169962679,-83.69745215940765,239.5010986328125,0.7115564702782563,0.7025728534278974,0.00659997637148917,0.0059342685503006734,0.04116000000000001,-0.007970000000000001,-0.005470000000000001,1.6076000000000001,-0.1643,-9.8373,6.029059008081663,13.486643257538196,17.420000076293945,17.270000457763672,17.40999984741211,17.279998779296875,14.145200674351388,14.023399601108322,14.137080396297227,14.031518330377809,14.084299750533686,0.04431469577586977,0.0,32.275001525878906,0.0,0.0,0.0,0.0,0.0,,,,,
frame_00155.png,1769712389136079171,1769712389.136079,42.30124387873606,-83.69745216027879,239.50787353515625,0.7115813514157212,0.7025517422638549,0.006302781722358593,0.005771022609379996,0.01565,-0.008820000000000001,0.00102,1.0489,0.8444,-8.9677,6.072296871005573,13.583363762627208,17.329999923706055,17.35999870300293,17.399999618530273,17.420000076293945,14.072119720648613,14.09647900602642,14.128960118243066,14.145200674351388,14.110689879817372,0.03882146767217045,0.0,32.35000228881836,0.0,0.0,0.0,0.0,0.0,,,,,
frame_00156.png,1769712389157012463,1769712389.1570125,42.30124387873606,-83.69745216027879,239.50787353515625,0.7115719197081671,0.7025632613853864,0.0062079366178222125,0.0056327930294240635,0.03311000000000001,0.005920000000000001,-0.003,0.5445,1.7085000000000001,-8.718300000000001,6.077598604715476,13.595223422832238,17.520000457763672,17.44999885559082,17.520000457763672,17.40999984741211,14.226401906108324,14.169559959729195,14.226401906108324,14.137080396297227,14.189861042060768,0.043738716219247825,0.0,32.32500076293945,0.0,0.0,0.0,0.0,0.0,,,,,
frame_00157.png,1769712389177330756,1769712389.1773307,42.30124607762328,-83.69745216735365,239.51344299316406,0.7115122458607629,0.7026286426420503,0.006137058930371928,0.005064685266492492,0.007450000000000001,0.014710000000000003,-0.0011800000000000003,1.9271,-1.0765,-9.7406,6.128797214629559,13.709751641293447,17.53999900817871,17.520000457763672,17.579999923706055,17.559999465942383,14.242640913431968,14.226401906108324,14.275122025648614,14.258881469540292,14.2507615786823,0.03946168767633562,0.0,32.17499923706055,0.0,0.0,0.0,0.0,0.0,,,,,
frame_00158.png,1769712389198126521,1769712389.1981266,42.30124718021636,-83.6974521631978,239.51614379882812,0.7115543234712058,0.7025856527556126,0.006251517727658257,0.004976325703293441,0.0035200000000000006,0.02065,0.0005700000000000001,1.2447000000000001,0.9082,-9.8869,6.155265632395269,13.768959903730273,17.6299991607666,17.600000381469727,17.6299991607666,17.600000381469727,14.315721867134743,14.291362581756935,14.315721867134743,14.291362581756935,14.303542224445838,0.038825178114632763,-0.10000000149011612,32.025001525878906,0.0,0.0,0.0,0.0,0.0,,,,,
frame_00159.png,1769712389218789621,1769712389.2187896,42.30124718021636,-83.6974521631978,239.51614379882812,0.7115311751877428,0.7026095002187625,0.006290545569511826,0.004868878179713027,0.00986,0.020710000000000006,-0.0064600000000000005,1.3372000000000002,0.4555,-9.5794,6.168430499478192,13.798408921502748,17.6299991607666,17.670000076293945,17.69999885559082,17.770000457763672,14.315721867134743,14.348202979351388,14.372562264729195,14.429404211108324,14.366472830580914,0.04116879796140291,-0.10000000149011612,32.22500228881836,0.0,0.0,0.0,0.0,0.0,,,,,
frame_00160.png,1769712389260269345,1769712389.2602694,42.3012505316015,-83.69745217288262,239.52395629882812,0.7115336836757732,0.7026050777928983,0.006541570458978312,0.004809314956452017,-0.011360000000000002,0.0035600000000000002,-0.0008400000000000001,0.8686,0.2457,-10.1843,6.249029857791106,13.978704850087237,18.020000457763672,17.799999237060547,17.94999885559082,17.829999923706055,14.632406516108324,14.45376349648613,14.575564569729195,14.478124330648614,14.534964728243065,0.0397933774352748,-0.20000000298023224,32.32500076293945,0.0,0.0,0.0,0.0,0.0,,,,,
frame_00161.png,1769712389280851422,1769712389.2808514,42.30125166177829,-83.69745218245185,239.5267791748047,0.7115176803142946,0.7026187788789754,0.006748352215864393,0.004888957880098564,-0.027860000000000003,0.00117,-0.0008600000000000002,2.5348,-1.0695000000000001,-9.7649,6.292397305490033,14.075715228542874,17.81999969482422,17.90999984741211,17.889999389648438,17.93000030517578,14.470004052594453,14.543085006297225,14.526844450188904,14.559325562405549,14.524814767871533,0.03190598360628738,-0.20000000298023224,32.375,0.0,0.0,0.0,0.0,0.0,,,,,
frame_00162.png,1769712389301786922,1769712389.301787,42.30125280129806,-83.69745219060896,239.52981567382812,0.7115819537304959,0.7025497093528829,0.0068260205129288334,0.005332396949484502,-0.03577,-0.030760000000000003,0.007970000000000001,1.3202,0.3869,-10.3792,6.328200512994171,14.155804855537182,18.209999084472656,18.079999923706055,17.969999313354492,17.989999771118164,14.786687152783356,14.681126635648614,14.591805125837517,14.60804568194584,14.666916149053831,0.0361061273966858,-0.20000000298023224,32.150001525878906,0.0,0.0,0.0,0.0,0.0,,,,,
frame_00163.png,1769712389322204381,1769712389.3222044,42.301255085429,-83.69745221188478,239.53591918945312,0.7115863719498805,0.7025383274883442,0.007112241491307038,0.005843773272095264,-0.04396000000000001,-0.013130000000000003,0.0024900000000000005,1.7149,-0.4811,-9.3329,6.367635320458135,14.244018153745621,18.079999923706055,18.0,18.020000457763672,18.06999969482422,14.681126635648614,14.61616596,14.632406516108324,14.673006357594453,14.650676367337848,0.02854940292850522,-0.20000000298023224,32.67499923706055,0.0,0.0,0.0,0.0,0.0,,,,,
frame_00164.png,1769712389343053268,1769712389.3430533,42.301255085429,-83.69745221188478,239.53591918945312,0.7116162995201005,0.7025055760808231,0.007183508582896051,0.006046076174591481,-0.038790000000000005,-0.01835,0.00855,1.677,0.6354000000000001,-9.2682,6.384148062098099,14.280956166029721,18.1299991607666,18.139999389648438,18.309999465942383,18.15999984741211,14.721726477134743,14.729846755188905,14.86788838454029,14.746087311297225,14.76638723204029,0.03399149611321323,-0.20000000298023224,32.25,0.0,0.0,0.0,0.0,0.0,,,,,
frame_00165.png,1769712389363566825,1769712389.3635669,42.30125739145909,-83.69745223562782,239.5413360595703,0.7116371131173116,0.7024829163325376,0.007241635629698027,0.006158750554996494,0.0006500000000000001,0.0049700000000000005,0.0004500000000000001,1.3482,-0.2442,-9.6712,6.418710319509819,14.358269862124297,18.25,18.299999237060547,18.270000457763672,18.270000457763672,14.819168265,14.859768106486131,14.835408821108322,14.835408821108322,14.837438503425695,0.033372310584954046,-0.20000000298023224,32.25,0.0,0.0,0.0,0.0,0.0,,,,,
frame_00166.png,1769712389384488267,1769712389.384488,42.30125739145909,-83.69745223562782,239.5413360595703,0.7116582254745477,0.7024611475456393,0.007247577022300266,0.006195073089744948,-0.00595,-0.004850000000000001,0.006210000000000001,1.7375,-0.7016,-10.332500000000001,6.435790871492535,14.396478032076512,18.270000457763672,18.270000457763672,18.420000076293945,18.399999618530273,14.835408821108322,14.835408821108322,14.957209894351388,14.940969338243065,14.892249218702775,0.03443697726080256,-0.20000000298023224,32.25,0.0,0.0,0.0,0.0,0.0,,,,,
frame_00167.png,1769712389405099499,1769712389.4050996,42.30125855106384,-83.69745224680554,239.54409790039062,0.7117320005293329,0.7023855152999214,0.007265497262521775,0.006273744408714432,0.015280000000000002,0.00591,0.006730000000000001,1.2649000000000001,1.8965,-10.369,6.473092692355012,14.47991996723662,18.53999900817871,18.389999389648438,18.43000030517578,18.520000457763672,15.05465013343197,14.932849060188905,14.965330172405547,15.038411126108322,14.997810123033686,0.03576609242101362,-0.10000000149011612,32.125,0.0,0.0,0.0,0.0,0.0,,,,,
frame_00168.png,1769712389425903088,1769712389.425903,42.3012597177029,-83.69745225538912,239.5474090576172,0.7117225629029581,0.7023970659705887,0.007145592085363525,0.006188350709442759,0.029120000000000004,-0.00502,-0.0030400000000000006,1.9781000000000002,0.135,-10.728,6.492695212144032,14.52376962785347,18.53999900817871,18.469999313354492,18.520000457763672,18.549999237060547,15.05465013343197,14.997809735837517,15.038411126108322,15.06277041148613,15.038410351715985,0.035434376683829,-0.10000000149011612,32.275001525878906,0.0,0.0,0.0,0.0,0.0,,,,,
frame_00169.png,1769712389446386360,1769712389.4463863,42.301260883867705,-83.69745227123387,239.5508270263672,0.7117588220603361,0.7023593069780733,0.007148773949524566,0.006299059579198094,-0.01984,0.0032400000000000003,0.008190000000000001,1.6495000000000002,-0.5628000000000001,-9.9289,6.529948905372037,14.607103904382926,18.649999618530273,18.639999389648438,18.6299991607666,18.6299991607666,15.143971643243065,15.135851365188906,15.127731087134743,15.127731087134743,15.133821295675363,0.036058988471656755,0.0,32.25,0.0,0.0,0.0,0.0,0.0,,,,,
frame_00170.png,1769712389467414016,1769712389.467414,42.3012620606362,-83.69745228327052,239.55462646484375,0.7117677030255939,0.7023479741700709,0.007247412591640248,0.006444774596053875,-0.03461,-0.006490000000000001,0.0027600000000000003,1.8468,0.388,-9.7273,6.548259782365108,14.648064237563805,18.649999618530273,18.639999389648438,18.719999313354492,18.69999885559082,15.143971643243065,15.135851365188906,15.200812040837517,15.184571484729195,15.166301633499671,0.03537924107452284,0.0,32.35000228881836,0.0,0.0,0.0,0.0,0.0,,,,,
frame_00171.png,1769712389487775312,1769712389.4877753,42.301263242891146,-83.69745229213076,239.5582275390625,0.711759245716603,0.7023522818116141,0.007380480891726495,0.006751064564789795,-0.020620000000000003,-0.018000000000000002,-0.007980000000000001,1.7273,-0.6846,-9.895000000000001,6.59578411912691,14.754373327439751,18.739999771118164,18.729999542236328,18.690000534057617,18.770000457763672,15.21705259694584,15.20893231889168,15.17645275545971,15.241413431108322,15.210962775601386,0.030946041423018853,0.10000000149011612,32.125,0.0,0.0,0.0,0.0,0.0,,,,,
frame_00172.png,1769712389508697440,1769712389.5086973,42.301265618014575,-83.69745231552133,239.565673828125,0.7117780506276185,0.7023291755649101,0.0075452285802585254,0.006986080498575224,-0.022260000000000002,0.004750000000000001,0.005170000000000001,0.7237,1.2177,-9.9306,6.611087135215556,14.788605256249086,18.829999923706055,18.760000228881836,18.81999969482422,18.809999465942383,15.290133550648614,15.233293153054163,15.282013272594453,15.273892994540292,15.26983324270938,0.03254045788103955,0.10000000149011612,32.22500228881836,0.0,0.0,0.0,0.0,0.0,,,,,
frame_00173.png,1769712389529208486,1769712389.5292087,42.30126681607354,-83.69745232074621,239.56935119628906,0.7117343857828102,0.702374986830819,0.007353368613504871,0.007033486959313634,0.01086,-0.024930000000000004,-0.005540000000000001,1.0671000000000002,0.049,-9.8361,6.66582088535688,14.91104137129022,18.869998931884766,18.8799991607666,18.939998626708984,18.869998931884766,15.322613114080582,15.330733392134745,15.379453511675035,15.322613114080582,15.338853282992737,0.028690947939171242,0.10000000149011612,31.899999618530273,0.0,0.0,0.0,0.0,0.0,,,,,
frame_00174.png,1769712389550219611,1769712389.5502195,42.30126801256687,-83.697452326732,239.5731658935547,0.7117295900685618,0.7023803151694245,0.007320265801443406,0.007021195904764768,0.006430000000000001,-0.0029200000000000007,-0.0015900000000000003,0.7653000000000001,0.0048000000000000004,-10.189,6.673393215351769,14.927980219148987,18.920000076293945,18.90999984741211,18.94999885559082,19.03999900817871,15.363214504351387,15.355094226297227,15.387573789729194,15.46065474343197,15.391634315952444,0.031059399195123644,0.10000000149011612,31.975000381469727,0.0,0.0,0.0,0.0,0.0,,,,,
frame_00175.png,1769712389570562539,1769712389.5705626,42.30126921905055,-83.69745233099286,239.57705688476562,0.7116873344573508,0.7024257063329578,0.00705793061677165,0.007032117109737245,0.024270000000000003,-0.018270000000000005,-0.0027,1.5553000000000001,0.8594,-9.597900000000001,6.721352599307532,15.035262483494991,19.0,19.020000457763672,19.15999984741211,19.149999618530273,15.428175180000002,15.444415736108322,15.558096531297227,15.549976253243067,15.495165925162153,0.030588321432500606,0.10000000149011612,31.67500114440918,0.0,0.0,0.0,0.0,0.0,,,,,
frame_00176.png,1769712389591774165,1769712389.5917742,42.30126921905055,-83.69745233099286,239.57705688476562,0.7116668429802988,0.7024478059120677,0.006947277670621623,0.007008559391501988,0.01895,-0.01271,-0.006070000000000001,1.9076000000000002,-0.3957,-9.5638,6.740260458700071,15.077558230484538,19.139999389648438,19.15999984741211,19.15999984741211,19.119998931884766,15.541855975188904,15.558096531297227,15.558096531297227,15.525615419080582,15.545916114215984,0.0310632448949524,0.20000000298023224,31.850000381469727,0.0,0.0,0.0,0.0,0.0,,,,,
frame_00177.png,1769712389611940015,1769712389.6119401,42.30127164488017,-83.69745233758493,239.58456420898438,0.7116411871683913,0.7024749595095807,0.0067166671113127,0.007116064255723802,0.010820000000000001,-0.023110000000000006,0.00039000000000000005,0.9784,0.8838,-10.257800000000001,6.764108746640294,15.13090541970954,19.239999771118164,19.170000076293945,19.399999618530273,19.239999771118164,15.62305720694584,15.566216809351387,15.752978558243067,15.62305720694584,15.641327445371532,0.033733739753413254,0.20000000298023224,31.450000762939453,0.0,0.0,0.0,0.0,0.0,,,,,
frame_00178.png,1769712389653345393,1769712389.6533453,42.301274094962736,-83.69745234647296,239.59219360351562,0.7116485939142626,0.7024705331792813,0.005987106916439779,0.007455423894057788,0.009000000000000001,-0.024940000000000004,0.006120000000000001,1.0472000000000001,0.8073,-8.4959,6.834464958107405,15.288288043388778,19.389999389648438,19.399999618530273,19.489999771118164,19.459999084472656,15.744858280188904,15.752978558243067,15.82605951194584,15.801698677783357,15.781398757040291,0.03225414855162623,0.20000000298023224,31.25,0.0,0.0,0.0,0.0,0.0,,,,,
frame_00179.png,1769712389694890168,1769712389.6948903,42.30127655928413,-83.69745235437962,239.59915161132812,0.7116049241294395,0.7025180842666653,0.00557137535334585,0.007465454420277455,0.017830000000000002,-0.012920000000000001,-0.006860000000000001,1.124,-0.79,-9.1978,6.869450629676598,15.366548891548769,19.520000457763672,19.559999465942383,19.459999084472656,19.549999237060547,15.850420346108324,15.882899909540292,15.801698677783357,15.874779631486131,15.852449641229526,0.03162068159285857,0.20000000298023224,31.274999618530273,0.0,0.0,0.0,0.0,0.0,,,,,
frame_00180.png,1769712389716722533,1769712389.7167225,42.30127779821579,-83.69745236105273,239.60179138183594,0.7116486958252868,0.7024730803762546,0.005592525413972247,0.007511906306569317,0.00251,0.00468,0.00429,1.2442,1.1296000000000002,-8.6434,6.898674695818747,15.431921374064789,19.69999885559082,19.649999618530273,19.619998931884766,19.619998931884766,15.996580704729196,15.955980863243067,15.931620029080582,15.931620029080582,15.953950406533357,0.03382787015399787,0.30000001192092896,31.325000762939453,0.0,0.0,0.0,0.0,0.0,,,,,
frame_00181.png,1769712389738492513,1769712389.7384925,42.30127779821579,-83.69745236105273,239.60179138183594,0.7116261610943441,0.7024964981167545,0.005600948912599511,0.007450258458720395,0.007660000000000001,0.009880000000000002,-0.006550000000000001,2.0032,-0.7016,-8.8557,6.919011716142985,15.47741406830889,19.770000457763672,19.65999984741211,19.739999771118164,19.770000457763672,16.053422651108324,15.964101141297226,16.029061816945838,16.053422651108324,16.025002065114926,0.03537981179474035,0.30000001192092896,31.399999618530273,0.0,0.0,0.0,0.0,0.0,,,,,
frame_00182.png,1769712389757483421,1769712389.7574835,42.30128028935602,-83.69745238232206,239.60687255859375,0.7116749042432993,0.7024410636430124,0.006103436923511502,0.007624358076909337,-0.04642000000000001,0.028870000000000003,0.008430000000000002,1.3558000000000001,-0.1651,-9.2171,6.946395027315135,15.538668892402319,19.869998931884766,19.719999313354492,19.829999923706055,19.719999313354492,16.134622334080582,16.01282126083752,16.102142770648612,16.01282126083752,16.06560190660106,0.03391107808831598,0.4000000059604645,31.30000114440918,0.0,0.0,0.0,0.0,0.0,,,,,
frame_00183.png,1769712389779874441,1769712389.7798746,42.30128028935602,-83.69745238232206,239.60687255859375,0.711690048707862,0.7024228873826657,0.006307702236006746,0.007718467704271566,-0.04177000000000001,0.015390000000000003,0.006050000000000001,1.953,0.9147000000000001,-9.3399,6.965913114617206,15.582329682611814,19.920000076293945,19.8799991607666,19.889999389648438,19.8799991607666,16.175223724351387,16.142742612134743,16.150862890188904,16.142742612134743,16.152892959702445,0.03661604450118379,0.5,31.149999618530273,0.0,0.0,0.0,0.0,0.0,,,,,
frame_00184.png,1769712389798505604,1769712389.7985058,42.30128279489146,-83.6974524115515,239.61109924316406,0.7116983463333855,0.702409423269681,0.006759988504363061,0.0077954142737553175,-0.029980000000000003,0.021410000000000002,-0.0012900000000000001,0.9176000000000001,-0.6507000000000001,-10.5888,6.9963267737123775,15.650363213188166,19.93000030517578,19.969999313354492,19.90999984741211,19.93000030517578,16.183344002405548,16.215823565837518,16.167103446297226,16.183344002405548,16.18740375423646,0.03431489312629773,0.6000000238418579,31.450000762939453,0.0,0.0,0.0,0.0,0.0,,,,,
frame_00185.png,1769712389821098296,1769712389.8210983,42.30128279489146,-83.6974524115515,239.61109924316406,0.7116970511169206,0.702408568050483,0.006956778656110033,0.007817556618210266,-0.030760000000000003,0.02492,0.00011000000000000002,0.7118,-0.052700000000000004,-9.669,7.003529787919404,15.666475923788433,19.989999771118164,20.09000015258789,20.0,20.03999900817871,16.23206412194584,16.313265353702775,16.2401844,16.27266396343197,16.264544459770146,0.038175052187300725,0.6000000238418579,31.399999618530273,0.0,0.0,0.0,0.0,0.0,,,,,
frame_00186.png,1769712389839558488,1769712389.8395584,42.30128532380781,-83.6974524288512,239.6156768798828,0.7116922322882631,0.702413502200259,0.007277394493106657,0.007515181748143118,0.029130000000000003,0.03097,-0.0012600000000000003,1.5417,1.5770000000000002,-9.9162,7.050785630957696,15.77218440931451,20.079999923706055,20.03999900817871,20.06999969482422,20.09000015258789,16.305145075648614,16.27266396343197,16.297024797594453,16.313265353702775,16.297024797594453,0.03327632841840157,0.800000011920929,31.149999618530273,0.0,0.0,0.0,0.0,0.0,,,,,
frame_00187.png,1769712389862325050,1769712389.862325,42.301286590744425,-83.69745244566988,239.6182403564453,0.7116304000902326,0.7024799467348337,0.0071836649659885185,0.007245209486085693,0.017030000000000003,0.012440000000000003,-0.00619,0.8751,-0.7260000000000001,-10.8038,7.074406648408102,15.825023208090021,20.209999084472656,20.059999465942383,20.139999389648438,20.18000030517578,16.410705592783355,16.288904519540292,16.353865195188906,16.38634630740555,16.359955403729526,0.03380293277333316,1.100000023841858,31.30000114440918,0.0,0.0,0.0,0.0,0.0,,,,,
frame_00188.png,1769712389880882309,1769712389.8808825,42.301286590744425,-83.69745244566988,239.6182403564453,0.7116379794709788,0.7024731605765434,0.007220821703134873,0.007120714711049211,0.012490000000000003,0.022710000000000004,0.00221,0.8276,0.09580000000000001,-10.8031,7.082624177020046,15.843405326543222,20.28999900817871,20.219999313354492,20.28999900817871,20.239999771118164,16.47566626843197,16.41882587083752,16.47566626843197,16.43506642694584,16.451306208661823,0.03836933219780444,1.2000000476837158,31.350000381469727,0.0,0.0,0.0,0.0,0.0,,,,,
frame_00189.png,1769712389901990897,1769712389.901991,42.30128914827352,-83.69745246218842,239.62403869628906,0.7116111469450164,0.7025031912530028,0.007207317983154331,0.006848093927157118,0.014230000000000001,-0.0012500000000000002,-0.004660000000000001,1.4977,0.0057,-10.144,7.133159707898504,15.956450276986482,20.170000076293945,20.279998779296875,20.31999969482422,20.389999389648438,16.37822602935139,16.467545990377808,16.50002710259445,16.556867500188904,16.47566665562814,0.032539591803228775,1.600000023841858,31.17500114440918,0.0,0.0,0.0,0.0,0.0,,,,,
frame_00190.png,1769712389922210570,1769712389.9222105,42.301291718563135,-83.69745248365079,239.63079833984375,0.7116241339006545,0.7024891432727076,0.007361103545036472,0.006775676255513023,-0.007450000000000001,0.013300000000000001,0.0019300000000000003,1.6536000000000002,0.7193,-10.4356,7.166627604023172,16.031315952543597,20.270000457763672,20.299999237060547,20.420000076293945,20.420000076293945,16.459427261108324,16.48378654648613,16.581228334351387,16.581228334351387,16.52641761907431,0.030883407700049513,1.899999976158142,31.05000114440918,0.0,0.0,0.0,0.0,0.0,,,,,
frame_00191.png,1769712389943609953,1769712389.94361,42.301291718563135,-83.69745248365079,239.63079833984375,0.7116138144628942,0.7024996844341655,0.00733989911021624,0.006789574104384271,0.0011400000000000002,-0.00502,-0.0029900000000000005,1.7428000000000001,0.6439,-10.062700000000001,7.18398248578191,16.070137781744986,20.389999389648438,20.119998931884766,20.520000457763672,20.44999885559082,16.556867500188904,16.337624639080584,16.662429566108322,16.605587619729196,16.540627331276752,0.029277256730569117,2.200000047683716,31.25,0.0,0.0,0.0,0.0,0.0,,,,,
frame_00192.png,1769712389963827487,1769712389.9638274,42.30129301323839,-83.6974524940061,239.6343994140625,0.7115874999314921,0.7025264648092169,0.00729680269729683,0.0068229652138613595,-0.0018300000000000002,-0.009680000000000001,-0.00144,0.9445,0.029400000000000003,-10.1943,7.207041099091972,16.121718516202797,20.489999771118164,20.469999313354492,20.559999465942383,20.510000228881836,16.63806873194584,16.621828175837518,16.694909129540292,16.65430928805416,16.652278831344454,0.032909662490908,2.4000000953674316,31.325000762939453,0.0,0.0,0.0,0.0,0.0,,,,,
frame_00193.png,1769712390005152631,1769712390.0051525,42.30129561171081,-83.69745251001163,239.64212036132812,0.7116016789844699,0.7025142516592963,0.007134716176067235,0.006772924563978573,0.01037,-0.014350000000000002,-0.0007800000000000001,1.6439000000000001,0.1033,-9.6518,7.265613903173597,16.252742364565147,20.639999389648438,20.69999885559082,20.719999313354492,20.619998931884766,16.759869805188906,16.808589924729194,16.824830480837516,16.743629249080584,16.784229864959052,0.03270140438284888,2.700000047683716,31.325000762939453,0.0,0.0,0.0,0.0,0.0,,,,,
frame_00194.png,1769712390046811374,1769712390.0468113,42.3012982302013,-83.69745252607656,239.64923095703125,0.7115620574038799,0.702556241091603,0.0069210148457250955,0.006801920309748734,0.005370000000000001,-0.008760000000000002,-0.0024700000000000004,1.1344,0.5246000000000001,-8.951600000000001,7.306388709269365,16.343953159313013,21.170000076293945,20.739999771118164,20.899999618530273,20.78999900817871,17.190235249351385,16.84107103694584,16.970992388243065,16.88167087843197,16.97099238824306,0.038365212064545864,2.700000047683716,31.225000381469727,0.0,0.0,0.0,0.0,0.0,,,,,
frame_00195.png,1769712390087812569,1769712390.0878127,42.301300866276016,-83.6974525353644,239.6554412841797,0.7114794089629143,0.7026461943655586,0.006744581798201717,0.006315598288918912,0.027080000000000003,0.017530000000000004,-0.0068800000000000016,0.9530000000000001,0.2,-9.4905,7.343211244123149,16.426322960428838,20.869998931884766,20.85999870300293,20.979999542236328,20.889999389648438,16.946631554080582,16.93851127602642,17.03595306389168,16.962872110188904,16.970992001046895,0.03315830584423367,2.5,30.975000381469727,0.0,0.0,0.0,0.0,0.0,,,,,
frame_00196.png,1769712390109241107,1769712390.109241,42.3013021867639,-83.69745254154132,239.65826416015625,0.7113966910302969,0.7027332460841301,0.0067929117286469,0.0058812574720600325,0.015950000000000002,0.02416,-0.005560000000000001,1.2519,0.22390000000000002,-9.5137,7.377452270758162,16.502918082549762,20.959999084472656,21.029998779296875,20.939998626708984,21.03999900817871,17.019712507783357,17.07655290537781,17.003471951675035,17.08467318343197,17.046102637067044,0.03291445499518337,2.4000000953674316,31.149999618530273,0.0,0.0,0.0,0.0,0.0,,,,,
frame_00197.png,1769712390129254709,1769712390.1292546,42.30130351455894,-83.69745254525442,239.66110229492188,0.7113553466694073,0.7027760480291549,0.00681782597097238,0.005737101219250791,0.017050000000000003,0.023920000000000004,-0.011720000000000001,1.3934,0.0036000000000000003,-9.527700000000001,7.391272937698057,16.53383408525429,20.850000381469727,21.020000457763672,21.029998779296875,21.100000381469727,16.930392546756934,17.068434176108322,17.07655290537781,17.133394851756936,17.05219362,0.03135144166034716,2.4000000953674316,31.274999618530273,0.0,0.0,0.0,0.0,0.0,,,,,
frame_00198.png,1769712390149905614,1769712390.1499057,42.30130484541719,-83.69745255121325,239.66342163085938,0.7112364524671453,0.7028981509955433,0.006880325031873372,0.005436831471759065,0.01043,0.017470000000000003,-0.01467,1.2695,-0.0351,-9.858600000000001,7.424916255575108,16.609092168746184,21.100000381469727,21.1299991607666,21.020000457763672,21.15999984741211,17.133394851756936,17.157754137134745,17.068434176108322,17.182114971297228,17.135424534074307,0.031689412038939636,2.4000000953674316,31.42500114440918,0.0,0.0,0.0,0.0,0.0,,,,,
frame_00199.png,1769712390171270747,1769712390.1712706,42.30130751903061,-83.69745256807454,239.66867065429688,0.7111532445489408,0.7029804614335838,0.007043754277650737,0.005469838737643349,-0.029740000000000003,-0.00483,-0.0041800000000000006,1.8269000000000002,-1.61,-10.0737,7.464497208315381,16.69763238516901,21.279998779296875,21.1299991607666,21.100000381469727,21.15999984741211,17.279555210377808,17.157754137134745,17.133394851756936,17.182114971297228,17.188204792641677,0.02937975852842467,2.4000000953674316,31.125,0.0,0.0,0.0,0.0,0.0,,,,,
frame_00200.png,1769712390191691386,1769712390.1916912,42.301308863141834,-83.69745258414828,239.6713409423828,0.711072392526417,0.703051146890664,0.007630260636856566,0.006075900352449452,-0.051340000000000004,0.005830000000000001,-0.011020000000000002,0.5673,0.5489,-10.137400000000001,7.484466399423657,16.742302267526757,21.100000381469727,21.270000457763672,21.209999084472656,21.229999542236328,17.133394851756936,17.27143648110832,17.222714812783355,17.23895536889168,17.216625378635072,0.02833081756194959,2.4000000953674316,31.450000762939453,0.0,0.0,0.0,0.0,0.0,,,,,
frame_00201.png,1769712390212128216,1769712390.2121282,42.3013102114979,-83.69745260312793,239.6741180419922,0.7110539665772011,0.7030665694801742,0.007844455118848773,0.006174141081665581,-0.04403000000000001,0.01665,-0.004730000000000001,1.7809000000000001,-0.3622,-10.4389,7.502049301351089,16.781634164164306,21.35999870300293,21.309999465942383,21.279998779296875,21.260000228881836,17.34451588602642,17.30391604454029,17.279555210377808,17.263316203054163,17.29782583599967,0.030759320980649596,2.5,31.200000762939453,0.0,0.0,0.0,0.0,0.0,,,,,
frame_00202.png,1769712390232802290,1769712390.2328024,42.30131156466,-83.6974526199034,239.67762756347656,0.7110006657895113,0.7031116846787702,0.00812929403778632,0.006776923601490851,-0.03501,-0.014590000000000002,-0.007050000000000001,0.1491,0.23850000000000002,-10.5622,7.533164094565434,16.851236089697203,21.369998931884766,21.219999313354492,21.350000381469727,21.389999389648438,17.352636164080582,17.230835090837516,17.336397156756938,17.368876720188904,17.322186282965983,0.02794751617993877,2.5,31.350000381469727,0.0,0.0,0.0,0.0,0.0,,,,,
frame_00203.png,1769712390253323179,1769712390.2533233,42.30131156466,-83.6974526199034,239.67762756347656,0.7109832193560548,0.7031277355927322,0.008247060104641716,0.0067996495473813005,-0.01958,0.013290000000000001,-0.00404,0.3463,0.6253000000000001,-10.1121,7.536246976864344,16.858132312426928,21.170000076293945,21.35999870300293,21.369998931884766,21.420000076293945,17.190235249351385,17.34451588602642,17.352636164080582,17.393237554351387,17.320156213452442,0.027406588847623075,2.5,31.149999618530273,0.0,0.0,0.0,0.0,0.0,,,,,
frame_00204.png,1769712390274138049,1769712390.2741382,42.301314280774434,-83.6974526529704,239.6845703125,0.7109269681670405,0.7031881481995855,0.008065299106973818,0.006650196596544007,0.030240000000000003,-0.01897,-0.00825,1.538,0.22410000000000002,-10.6432,7.586043853382764,16.96952493738604,21.31999969482422,21.389999389648438,21.459999084472656,21.459999084472656,17.31203632259445,17.368876720188904,17.425717117783357,17.425717117783357,17.38308681958752,0.024370857977900597,2.5,31.399999618530273,0.0,0.0,0.0,0.0,0.0,,,,,
frame_00205.png,1769712390294935534,1769712390.2949355,42.301314280774434,-83.6974526529704,239.6845703125,0.7109119970549277,0.7032054436159638,0.007919725967536666,0.006596548555806124,0.028130000000000006,-0.013080000000000001,-0.00478,0.033600000000000005,-0.29560000000000003,-10.702,7.586186098277654,16.969843130681216,21.399999618530273,21.469999313354492,21.559999465942383,21.559999465942383,17.376996998243065,17.433837395837518,17.506918349540292,17.506918349540292,17.456167773290293,0.028658169604986468,2.5,31.375,0.0,0.0,0.0,0.0,0.0,,,,,
frame_00206.png,1769712390315425353,1769712390.3154254,42.30131701603236,-83.6974526790899,239.69293212890625,0.7108638574845957,0.7032590424697918,0.0077028348288775425,0.006321522141961024,0.035570000000000004,-0.005770000000000001,-0.00905,2.0683000000000002,1.3036,-10.0624,7.626212476507509,17.059379737198707,21.579999923706055,21.510000228881836,21.65999984741211,21.689998626708984,17.523158905648614,17.46631850805416,17.588119581297228,17.612478866675033,17.54751896541876,0.02861412523432165,2.700000047683716,31.17500114440918,0.0,0.0,0.0,0.0,0.0,,,,,
frame_00207.png,1769712390336168987,1769712390.336169,42.30131701603236,-83.6974526790899,239.69293212890625,0.7108499879817286,0.7032760929165716,0.007506591349641491,0.006219550199772345,0.0422,-0.013430000000000003,-0.004530000000000001,2.1033,0.31,-10.046000000000001,7.647006027793094,17.105893663811486,21.719999313354492,21.68000030517578,21.600000381469727,21.689998626708984,17.63683970083752,17.60436013740555,17.539399461756936,17.612478866675033,17.59826954166876,0.028783990333046666,2.700000047683716,31.225000381469727,0.0,0.0,0.0,0.0,0.0,,,,,
frame_00208.png,1769712390356884866,1769712390.356885,42.30131976706782,-83.69745270639923,239.70205688476562,0.710809735720144,0.7033179950872654,0.007169360615019182,0.006474384932977519,-0.01169,-0.011980000000000001,-0.005280000000000001,0.3176,0.4033,-10.563,7.665975332155078,17.14832685951098,21.639999389648438,21.709999084472656,21.729999542236328,21.729999542236328,17.571879025188903,17.628719422783355,17.644959978891677,17.644959978891677,17.622629601438902,0.027658834929709712,2.700000047683716,31.149999618530273,0.0,0.0,0.0,0.0,0.0,,,,,
frame_00209.png,1769712390377718126,1769712390.377718,42.30132114758957,-83.69745271544967,239.7065887451172,0.7107643509734397,0.7033648915921433,0.006994709788250785,0.0065529150654889306,0.021960000000000004,-0.020520000000000004,-0.009650000000000002,1.4311,1.7685000000000002,-8.8817,7.693207053493492,17.209242586241736,21.850000381469727,21.770000457763672,21.78999900817871,21.8799991607666,17.742401766756934,17.677441091108324,17.69368009843197,17.766761052134743,17.720071002107993,0.029683375854940228,2.6000001430511475,31.0,0.0,0.0,0.0,0.0,0.0,,,,,
frame_00210.png,1769712390398121848,1769712390.3981218,42.30132392168975,-83.69745273808702,239.71563720703125,0.7106939918690875,0.7034394762881747,0.0065569202303118815,0.006630227574741371,-0.0034800000000000005,-0.02466,0.0007400000000000001,0.23370000000000002,-0.34190000000000004,-8.7448,7.727489713463467,17.28593083963497,21.719999313354492,21.809999465942383,21.889999389648438,21.920000076293945,17.63683970083752,17.70992065454029,17.774881330188904,17.799242164351387,17.730220962479525,0.025702412381856932,2.4000000953674316,31.17500114440918,0.0,0.0,0.0,0.0,0.0,,,,,
frame_00211.png,1769712390419171496,1769712390.4191716,42.30132392168975,-83.69745273808702,239.71563720703125,0.7106573360661917,0.7034765771368827,0.006503291164959206,0.006675576312419676,0.0011200000000000003,-0.013920000000000002,-0.010650000000000001,0.2914,0.7869,-9.026,7.730335887090076,17.292297559267276,21.729999542236328,21.8799991607666,21.809999465942383,22.0,17.644959978891677,17.766761052134743,17.70992065454029,17.86420284,17.746461131391676,0.026263923030922263,2.299999952316284,31.524999618530273,0.0,0.0,0.0,0.0,0.0,,,,,
frame_00212.png,1769712390439766631,1769712390.4397666,42.30132670720734,-83.6974527589879,239.72317504882812,0.7105252832912597,0.7036138732692243,0.006252630721674234,0.006499519675618673,0.021200000000000004,-0.013200000000000002,-0.014940000000000002,1.9162000000000001,-0.3664,-9.7748,7.771336148685207,17.384012684439888,21.889999389648438,21.979999542236328,22.35999870300293,21.979999542236328,17.774881330188904,17.84796228389168,18.15652510602642,17.84796228389168,17.90683275099967,0.030074763292582487,2.0,31.17500114440918,0.0,0.0,0.0,0.0,0.0,,,,,
