image_filename,timestamp_ns,timestamp_sec,latitude,longitude,altitude,orientation_x,orientation_y,orientation_z,orientation_w,angular_velocity_x,angular_velocity_y,angular_velocity_z,linear_acceleration_x,linear_acceleration_y,linear_acceleration_z,vehicle_speed_mps,vehicle_speed_mph,wheel_speed_fl_rads,wheel_speed_fr_rads,wheel_speed_rl_rads,wheel_speed_rr_rads,wheel_speed_fl_mph,wheel_speed_fr_mph,wheel_speed_rl_mph,wheel_speed_rr_mph,avg_wheel_speed_mph,wheel_slip,steering_angle_deg,throttle_pedal,brake_pedal,brake_torque_actual,abs_active,esc_active,trac_active,marwis_road_condition,marwis_friction,marwis_surface_temp_c,marwis_ice_percent,marwis_water_film_height
frame_00000.png,1769712243554711880,1769712243.5547118,42.30106817024716,-83.6974521469039,239.04824829101562,0.710620275364744,0.7034195948685837,0.01062836747221761,0.010331292287438742,-0.0037300000000000002,0.004790000000000001,-0.00272,2.3431,0.6186,-9.2726,1.3194943289075738,2.951629644106508,3.6399998664855957,3.7200000286102295,3.569999933242798,3.609999895095825,2.955713452385073,3.0206743216317706,2.8988728611925363,2.931353199016843,2.951653458556556,8.068237861584136e-06,-3.1000001430511475,31.399999618530273,0.0,0.0,0.0,0.0,0.0,,,,,
frame_00001.png,1769712243575288240,1769712243.5752883,42.30106817024716,-83.6974521469039,239.04824829101562,0.710620275364744,0.7034195948685837,0.01062836747221761,0.010331292287438742,-0.0037300000000000002,0.004790000000000001,-0.00272,2.3431,0.6186,-9.2726,1.3194943289075738,2.951629644106508,3.6399998664855957,3.7200000286102295,3.569999933242798,3.609999895095825,2.955713452385073,3.0206743216317706,2.8988728611925363,2.931353199016843,2.951653458556556,8.068237861584136e-06,-3.1000001430511475,31.399999618530273,0.0,0.0,0.0,0.0,0.0,,,,,
frame_00002.png,1769712243594227816,1769712243.5942278,42.30106817024716,-83.6974521469039,239.04824829101562,0.710620275364744,0.7034195948685837,0.01062836747221761,0.010331292287438742,-0.0037300000000000002,0.004790000000000001,-0.00272,2.3431,0.6186,-9.2726,1.3194943289075738,2.951629644106508,3.6399998664855957,3.7200000286102295,3.569999933242798,3.609999895095825,2.955713452385073,3.0206743216317706,2.8988728611925363,2.931353199016843,2.951653458556556,8.068237861584136e-06,-3.1000001430511475,31.399999618530273,0.0,0.0,0.0,0.0,0.0,,,,,
frame_00003.png,1769712243614964647,1769712243.6149647,42.30106817024716,-83.6974521469039,239.04824829101562,0.710620275364744,0.7034195948685837,0.01062836747221761,0.010331292287438742,-0.0037300000000000002,0.004790000000000001,-0.00272,2.3431,0.6186,-9.2726,1.3194943289075738,2.951629644106508,3.6399998664855957,3.7200000286102295,3.569999933242798,3.609999895095825,2.955713452385073,3.0206743216317706,2.8988728611925363,2.931353199016843,2.951653458556556,8.068237861584136e-06,-3.1000001430511475,31.399999618530273,0.0,0.0,0.0,0.0,0.0,,,,,
frame_00004.png,1769712243635608619,1769712243.6356087,42.30106817024716,-83.6974521469039,239.04824829101562,0.710620275364744,0.7034195948685837,0.01062836747221761,0.010331292287438742,-0.0037300000000000002,0.004790000000000001,-0.00272,2.3431,0.6186,-9.2726,1.3194943289075738,2.951629644106508,3.6399998664855957,3.7200000286102295,3.569999933242798,3.609999895095825,2.955713452385073,3.0206743216317706,2.8988728611925363,2.931353199016843,2.951653458556556,8.068237861584136e-06,-3.1000001430511475,31.399999618530273,0.0,0.0,0.0,0.0,0.0,,,,,
frame_00005.png,1769712243656222439,1769712243.6562226,42.30106817024716,-83.6974521469039,239.04824829101562,0.710620275364744,0.7034195948685837,0.01062836747221761,0.010331292287438742,-0.0037300000000000002,0.004790000000000001,-0.00272,2.3431,0.6186,-9.2726,1.3194943289075738,2.951629644106508,3.6399998664855957,3.7200000286102295,3.569999933242798,3.609999895095825,2.955713452385073,3.0206743216317706,2.8988728611925363,2.931353199016843,2.951653458556556,8.068237861584136e-06,-3.1000001430511475,31.399999618530273,0.0,0.0,0.0,0.0,0.0,,,,,
frame_00006.png,1769712243676878630,1769712243.6768787,42.30106817024716,-83.6974521469039,239.04824829101562,0.710620275364744,0.7034195948685837,0.01062836747221761,0.010331292287438742,-0.0037300000000000002,0.004790000000000001,-0.00272,2.3431,0.6186,-9.2726,1.3194943289075738,2.951629644106508,3.6399998664855957,3.7200000286102295,3.569999933242798,3.609999895095825,2.955713452385073,3.0206743216317706,2.8988728611925363,2.931353199016843,2.951653458556556,8.068237861584136e-06,-3.1000001430511475,31.399999618530273,0.0,0.0,0.0,0.0,0.0,,,,,
frame_00007.png,1769712243697664504,1769712243.6976645,42.30106817024716,-83.6974521469039,239.04824829101562,0.710620275364744,0.7034195948685837,0.01062836747221761,0.010331292287438742,-0.0037300000000000002,0.004790000000000001,-0.00272,2.3431,0.6186,-9.2726,1.3194943289075738,2.951629644106508,3.6399998664855957,3.7200000286102295,3.569999933242798,3.609999895095825,2.955713452385073,3.0206743216317706,2.8988728611925363,2.931353199016843,2.951653458556556,8.068237861584136e-06,-3.1000001430511475,31.399999618530273,0.0,0.0,0.0,0.0,0.0,,,,,
frame_00008.png,1769712243718296403,1769712243.7182963,42.30106817024716,-83.6974521469039,239.04824829101562,0.710620275364744,0.7034195948685837,0.01062836747221761,0.010331292287438742,-0.0037300000000000002,0.004790000000000001,-0.00272,2.3431,0.6186,-9.2726,1.3194943289075738,2.951629644106508,3.6399998664855957,3.7200000286102295,3.569999933242798,3.609999895095825,2.955713452385073,3.0206743216317706,2.8988728611925363,2.931353199016843,2.951653458556556,8.068237861584136e-06,-3.1000001430511475,31.399999618530273,0.0,0.0,0.0,0.0,0.0,,,,,
frame_00009.png,1769712243738956928,1769712243.7389567,42.30106817024716,-83.6974521469039,239.04824829101562,0.710620275364744,0.7034195948685837,0.01062836747221761,0.010331292287438742,-0.0037300000000000002,0.004790000000000001,-0.00272,2.3431,0.6186,-9.2726,1.3194943289075738,2.951629644106508,3.6399998664855957,3.7200000286102295,3.569999933242798,3.609999895095825,2.955713452385073,3.0206743216317706,2.8988728611925363,2.931353199016843,2.951653458556556,8.068237861584136e-06,-3.1000001430511475,31.399999618530273,0.0,0.0,0.0,0.0,0.0,,,,,
frame_00010.png,1769712243759591155,1769712243.759591,42.30106817024716,-83.6974521469039,239.04824829101562,0.710620275364744,0.7034195948685837,0.01062836747221761,0.010331292287438742,-0.0037300000000000002,0.004790000000000001,-0.00272,2.3431,0.6186,-9.2726,1.3194943289075738,2.951629644106508,3.6399998664855957,3.7200000286102295,3.569999933242798,3.609999895095825,2.955713452385073,3.0206743216317706,2.8988728611925363,2.931353199016843,2.951653458556556,8.068237861584136e-06,-3.1000001430511475,31.399999618530273,0.0,0.0,0.0,0.0,0.0,,,,,
frame_00011.png,1769712243780175080,1769712243.7801752,42.30106817024716,-83.6974521469039,239.04824829101562,0.710620275364744,0.7034195948685837,0.01062836747221761,0.010331292287438742,-0.0037300000000000002,0.004790000000000001,-0.00272,2.3431,0.6186,-9.2726,1.3194943289075738,2.951629644106508,3.6399998664855957,3.7200000286102295,3.569999933242798,3.609999895095825,2.955713452385073,3.0206743216317706,2.8988728611925363,2.931353199016843,2.951653458556556,8.068237861584136e-06,-3.1000001430511475,31.399999618530273,0.0,0.0,0.0,0.0,0.0,,,,,
frame_00012.png,1769712243800935738,1769712243.8009357,42.30106817024716,-83.6974521469039,239.04824829101562,0.710620275364744,0.7034195948685837,0.01062836747221761,0.010331292287438742,-0.0037300000000000002,0.004790000000000001,-0.00272,2.3431,0.6186,-9.2726,1.3194943289075738,2.951629644106508,3.6399998664855957,3.7200000286102295,3.569999933242798,3.609999895095825,2.955713452385073,3.0206743216317706,2.8988728611925363,2.931353199016843,2.951653458556556,8.068237861584136e-06,-3.1000001430511475,31.399999618530273,0.0,0.0,0.0,0.0,0.0,,,,,
frame_00013.png,1769712243821549579,1769712243.8215497,42.30106817024716,-83.6974521469039,239.04824829101562,0.710620275364744,0.7034195948685837,0.01062836747221761,0.010331292287438742,-0.0037300000000000002,0.004790000000000001,-0.00272,2.3431,0.6186,-9.2726,1.3194943289075738,2.951629644106508,3.6399998664855957,3.7200000286102295,3.569999933242798,3.609999895095825,2.955713452385073,3.0206743216317706,2.8988728611925363,2.931353199016843,2.951653458556556,8.068237861584136e-06,-3.1000001430511475,31.399999618530273,0.0,0.0,0.0,0.0,0.0,,,,,
frame_00014.png,1769712243842261708,1769712243.8422618,42.30106817024716,-83.6974521469039,239.04824829101562,0.710620275364744,0.7034195948685837,0.01062836747221761,0.010331292287438742,-0.0037300000000000002,0.004790000000000001,-0.00272,2.3431,0.6186,-9.2726,1.3194943289075738,2.951629644106508,3.6399998664855957,3.7200000286102295,3.569999933242798,3.609999895095825,2.955713452385073,3.0206743216317706,2.8988728611925363,2.931353199016843,2.951653458556556,8.068237861584136e-06,-3.1000001430511475,31.399999618530273,0.0,0.0,0.0,0.0,0.0,,,,,
frame_00015.png,1769712243862987450,1769712243.8629875,42.30106817024716,-83.6974521469039,239.04824829101562,0.710620275364744,0.7034195948685837,0.01062836747221761,0.010331292287438742,-0.0037300000000000002,0.004790000000000001,-0.00272,2.3431,0.6186,-9.2726,1.3194943289075738,2.951629644106508,3.6399998664855957,3.7200000286102295,3.569999933242798,3.609999895095825,2.955713452385073,3.0206743216317706,2.8988728611925363,2.931353199016843,2.951653458556556,8.068237861584136e-06,-3.1000001430511475,31.399999618530273,0.0,0.0,0.0,0.0,0.0,,,,,
frame_00016.png,1769712243883854339,1769712243.8838544,42.30106817024716,-83.6974521469039,239.04824829101562,0.710620275364744,0.7034195948685837,0.01062836747221761,0.010331292287438742,-0.0037300000000000002,0.004790000000000001,-0.00272,2.3431,0.6186,-9.2726,1.3194943289075738,2.951629644106508,3.6399998664855957,3.7200000286102295,3.569999933242798,3.609999895095825,2.955713452385073,3.0206743216317706,2.8988728611925363,2.931353199016843,2.951653458556556,8.068237861584136e-06,-3.1000001430511475,31.399999618530273,0.0,0.0,0.0,0.0,0.0,,,,,
frame_00017.png,1769712243904377245,1769712243.9043775,42.30106817024716,-83.6974521469039,239.04824829101562,0.710620275364744,0.7034195948685837,0.01062836747221761,0.010331292287438742,-0.0037300000000000002,0.004790000000000001,-0.00272,2.3431,0.6186,-9.2726,1.3194943289075738,2.951629644106508,3.6399998664855957,3.7200000286102295,3.569999933242798,3.609999895095825,2.955713452385073,3.0206743216317706,2.8988728611925363,2.931353199016843,2.951653458556556,8.068237861584136e-06,-3.1000001430511475,31.399999618530273,0.0,0.0,0.0,0.0,0.0,,,,,
frame_00018.png,1769712243925158752,1769712243.9251587,42.30106817024716,-83.6974521469039,239.04824829101562,0.710620275364744,0.7034195948685837,0.01062836747221761,0.010331292287438742,-0.0037300000000000002,0.004790000000000001,-0.00272,2.3431,0.6186,-9.2726,1.3194943289075738,2.951629644106508,3.6399998664855957,3.7200000286102295,3.569999933242798,3.609999895095825,2.955713452385073,3.0206743216317706,2.8988728611925363,2.931353199016843,2.951653458556556,8.068237861584136e-06,-3.1000001430511475,31.399999618530273,0.0,0.0,0.0,0.0,0.0,,,,,
frame_00019.png,1769712243945714590,1769712243.9457147,42.30106817024716,-83.6974521469039,239.04824829101562,0.710620275364744,0.7034195948685837,0.01062836747221761,0.010331292287438742,-0.0037300000000000002,0.004790000000000001,-0.00272,2.3431,0.6186,-9.2726,1.3194943289075738,2.951629644106508,3.6399998664855957,3.7200000286102295,3.569999933242798,3.609999895095825,2.955713452385073,3.0206743216317706,2.8988728611925363,2.931353199016843,2.951653458556556,8.068237861584136e-06,-3.1000001430511475,31.399999618530273,0.0,0.0,0.0,0.0,0.0,,,,,
frame_00020.png,1769712243966576562,1769712243.9665766,42.30106817024716,-83.6974521469039,239.04824829101562,0.710620275364744,0.7034195948685837,0.01062836747221761,0.010331292287438742,-0.0037300000000000002,0.004790000000000001,-0.00272,2.3431,0.6186,-9.2726,1.3194943289075738,2.951629644106508,3.6399998664855957,3.7200000286102295,3.569999933242798,3.609999895095825,2.955713452385073,3.0206743216317706,2.8988728611925363,2.931353199016843,2.951653458556556,8.068237861584136e-06,-3.1000001430511475,31.399999618530273,0.0,0.0,0.0,0.0,0.0,,,,,
frame_00021.png,1769712243987308488,1769712243.9873085,42.30106817024716,-83.6974521469039,239.04824829101562,0.710620275364744,0.7034195948685837,0.01062836747221761,0.010331292287438742,-0.0037300000000000002,0.004790000000000001,-0.00272,2.3431,0.6186,-9.2726,1.3194943289075738,2.951629644106508,3.6399998664855957,3.7200000286102295,3.569999933242798,3.609999895095825,2.955713452385073,3.0206743216317706,2.8988728611925363,2.931353199016843,2.951653458556556,8.068237861584136e-06,-3.1000001430511475,31.399999618530273,0.0,0.0,0.0,0.0,0.0,,,,,
frame_00022.png,1769712244007861663,1769712244.0078619,42.30106817024716,-83.6974521469039,239.04824829101562,0.710620275364744,0.7034195948685837,0.01062836747221761,0.010331292287438742,-0.0037300000000000002,0.004790000000000001,-0.00272,2.3431,0.6186,-9.2726,1.3194943289075738,2.951629644106508,3.6399998664855957,3.7200000286102295,3.569999933242798,3.609999895095825,2.955713452385073,3.0206743216317706,2.8988728611925363,2.931353199016843,2.951653458556556,8.068237861584136e-06,-3.1000001430511475,31.399999618530273,0.0,0.0,0.0,0.0,0.0,,,,,
frame_00023.png,1769712244028575796,1769712244.0285757,42.30106817024716,-83.6974521469039,239.04824829101562,0.710620275364744,0.7034195948685837,0.01062836747221761,0.010331292287438742,-0.0037300000000000002,0.004790000000000001,-0.00272,2.3431,0.6186,-9.2726,1.3194943289075738,2.951629644106508,3.6399998664855957,3.7200000286102295,3.569999933242798,3.609999895095825,2.955713452385073,3.0206743216317706,2.8988728611925363,2.931353199016843,2.951653458556556,8.068237861584136e-06,-3.1000001430511475,31.399999618530273,0.0,0.0,0.0,0.0,0.0,,,,,
frame_00024.png,1769712244049252899,1769712244.0492527,42.30106817024716,-83.6974521469039,239.04824829101562,0.710620275364744,0.7034195948685837,0.01062836747221761,0.010331292287438742,-0.0037300000000000002,0.004790000000000001,-0.00272,2.3431,0.6186,-9.2726,1.3194943289075738,2.951629644106508,3.6399998664855957,3.7200000286102295,3.569999933242798,3.609999895095825,2.955713452385073,3.0206743216317706,2.8988728611925363,2.931353199016843,2.951653458556556,8.068237861584136e-06,-3.1000001430511475,31.399999618530273,0.0,0.0,0.0,0.0,0.0,,,,,
frame_00025.png,1769712244069906340,1769712244.0699065,42.30106817024716,-83.6974521469039,239.04824829101562,0.710620275364744,0.7034195948685837,0.01062836747221761,0.010331292287438742,-0.0037300000000000002,0.004790000000000001,-0.00272,2.3431,0.6186,-9.2726,1.3194943289075738,2.951629644106508,3.6399998664855957,3.7200000286102295,3.569999933242798,3.609999895095825,2.955713452385073,3.0206743216317706,2.8988728611925363,2.931353199016843,2.951653458556556,8.068237861584136e-06,-3.1000001430511475,31.399999618530273,0.0,0.0,0.0,0.0,0.0,,,,,
frame_00026.png,1769712244090550519,1769712244.0905504,42.30106817024716,-83.6974521469039,239.04824829101562,0.710620275364744,0.7034195948685837,0.01062836747221761,0.010331292287438742,-0.0037300000000000002,0.004790000000000001,-0.00272,2.3431,0.6186,-9.2726,1.3194943289075738,2.951629644106508,3.6399998664855957,3.7200000286102295,3.569999933242798,3.609999895095825,2.955713452385073,3.0206743216317706,2.8988728611925363,2.931353199016843,2.951653458556556,8.068237861584136e-06,-3.1000001430511475,31.399999618530273,0.0,0.0,0.0,0.0,0.0,,,,,
frame_00027.png,1769712244111311569,1769712244.1113117,42.30106817024716,-83.6974521469039,239.04824829101562,0.710620275364744,0.7034195948685837,0.01062836747221761,0.010331292287438742,-0.0037300000000000002,0.004790000000000001,-0.00272,2.3431,0.6186,-9.2726,1.3194943289075738,2.951629644106508,3.6399998664855957,3.7200000286102295,3.569999933242798,3.609999895095825,2.955713452385073,3.0206743216317706,2.8988728611925363,2.931353199016843,2.951653458556556,8.068237861584136e-06,-3.1000001430511475,31.399999618530273,0.0,0.0,0.0,0.0,0.0,,,,,
frame_00028.png,1769712244132084616,1769712244.1320848,42.30106817024716,-83.6974521469039,239.04824829101562,0.710620275364744,0.7034195948685837,0.01062836747221761,0.010331292287438742,-0.0037300000000000002,0.004790000000000001,-0.00272,2.3431,0.6186,-9.2726,1.3194943289075738,2.951629644106508,3.6399998664855957,3.7200000286102295,3.569999933242798,3.609999895095825,2.955713452385073,3.0206743216317706,2.8988728611925363,2.931353199016843,2.951653458556556,8.068237861584136e-06,-3.1000001430511475,31.399999618530273,0.0,0.0,0.0,0.0,0.0,,,,,
frame_00029.png,1769712244152782533,1769712244.1527827,42.30106817024716,-83.6974521469039,239.04824829101562,0.710620275364744,0.7034195948685837,0.01062836747221761,0.010331292287438742,-0.0037300000000000002,0.004790000000000001,-0.00272,2.3431,0.6186,-9.2726,1.3194943289075738,2.951629644106508,3.6399998664855957,3.7200000286102295,3.569999933242798,3.609999895095825,2.955713452385073,3.0206743216317706,2.8988728611925363,2.931353199016843,2.951653458556556,8.068237861584136e-06,-3.1000001430511475,31.399999618530273,0.0,0.0,0.0,0.0,0.0,,,,,
frame_00030.png,1769712244173323436,1769712244.1733236,42.30106817024716,-83.6974521469039,239.04824829101562,0.710620275364744,0.7034195948685837,0.01062836747221761,0.010331292287438742,-0.0037300000000000002,0.004790000000000001,-0.00272,2.3431,0.6186,-9.2726,1.3194943289075738,2.951629644106508,3.6399998664855957,3.7200000286102295,3.569999933242798,3.609999895095825,2.955713452385073,3.0206743216317706,2.8988728611925363,2.931353199016843,2.951653458556556,8.068237861584136e-06,-3.1000001430511475,31.399999618530273,0.0,0.0,0.0,0.0,0.0,,,,,
frame_00031.png,1769712244193935584,1769712244.1939356,42.30106817024716,-83.6974521469039,239.04824829101562,0.710620275364744,0.7034195948685837,0.01062836747221761,0.010331292287438742,-0.0037300000000000002,0.004790000000000001,-0.00272,2.3431,0.6186,-9.2726,1.3194943289075738,2.951629644106508,3.6399998664855957,3.7200000286102295,3.569999933242798,3.609999895095825,2.955713452385073,3.0206743216317706,2.8988728611925363,2.931353199016843,2.951653458556556,8.068237861584136e-06,-3.1000001430511475,31.399999618530273,0.0,0.0,0.0,0.0,0.0,,,,,
frame_00032.png,1769712244214927183,1769712244.2149272,42.30106817024716,-83.6974521469039,239.04824829101562,0.710620275364744,0.7034195948685837,0.01062836747221761,0.010331292287438742,-0.0037300000000000002,0.004790000000000001,-0.00272,2.3431,0.6186,-9.2726,1.3194943289075738,2.951629644106508,3.6399998664855957,3.7200000286102295,3.569999933242798,3.609999895095825,2.955713452385073,3.0206743216317706,2.8988728611925363,2.931353199016843,2.951653458556556,8.068237861584136e-06,-3.1000001430511475,31.399999618530273,0.0,0.0,0.0,0.0,0.0,,,,,
frame_00033.png,1769712244235472101,1769712244.2354722,42.30106817024716,-83.6974521469039,239.04824829101562,0.710620275364744,0.7034195948685837,0.01062836747221761,0.010331292287438742,-0.0037300000000000002,0.004790000000000001,-0.00272,2.3431,0.6186,-9.2726,1.3194943289075738,2.951629644106508,3.6399998664855957,3.7200000286102295,3.569999933242798,3.609999895095825,2.955713452385073,3.0206743216317706,2.8988728611925363,2.931353199016843,2.951653458556556,8.068237861584136e-06,-3.1000001430511475,31.399999618530273,0.0,0.0,0.0,0.0,0.0,,,,,
frame_00034.png,1769712244256258763,1769712244.2562587,42.30106817024716,-83.6974521469039,239.04824829101562,0.710620275364744,0.7034195948685837,0.01062836747221761,0.010331292287438742,-0.0037300000000000002,0.004790000000000001,-0.00272,2.3431,0.6186,-9.2726,1.3194943289075738,2.951629644106508,3.6399998664855957,3.7200000286102295,3.569999933242798,3.609999895095825,2.955713452385073,3.0206743216317706,2.8988728611925363,2.931353199016843,2.951653458556556,8.068237861584136e-06,-3.1000001430511475,31.399999618530273,0.0,0.0,0.0,0.0,0.0,,,,,
frame_00035.png,1769712244277032008,1769712244.277032,42.30106817024716,-83.6974521469039,239.04824829101562,0.710620275364744,0.7034195948685837,0.01062836747221761,0.010331292287438742,-0.0037300000000000002,0.004790000000000001,-0.00272,2.3431,0.6186,-9.2726,1.3194943289075738,2.951629644106508,3.6399998664855957,3.7200000286102295,3.569999933242798,3.609999895095825,2.955713452385073,3.0206743216317706,2.8988728611925363,2.931353199016843,2.951653458556556,8.068237861584136e-06,-3.1000001430511475,31.399999618530273,0.0,0.0,0.0,0.0,0.0,,,,,
frame_00036.png,1769712244297714412,1769712244.2977145,42.30106817024716,-83.6974521469039,239.04824829101562,0.710620275364744,0.7034195948685837,0.01062836747221761,0.010331292287438742,-0.0037300000000000002,0.004790000000000001,-0.00272,2.3431,0.6186,-9.2726,1.3194943289075738,2.951629644106508,3.6399998664855957,3.7200000286102295,3.569999933242798,3.609999895095825,2.955713452385073,3.0206743216317706,2.8988728611925363,2.931353199016843,2.951653458556556,8.068237861584136e-06,-3.1000001430511475,31.399999618530273,0.0,0.0,0.0,0.0,0.0,,,,,
frame_00037.png,1769712244318341269,1769712244.3183415,42.30106817024716,-83.6974521469039,239.04824829101562,0.710620275364744,0.7034195948685837,0.01062836747221761,0.010331292287438742,-0.0037300000000000002,0.004790000000000001,-0.00272,2.3431,0.6186,-9.2726,1.3194943289075738,2.951629644106508,3.6399998664855957,3.7200000286102295,3.569999933242798,3.609999895095825,2.955713452385073,3.0206743216317706,2.8988728611925363,2.931353199016843,2.951653458556556,8.068237861584136e-06,-3.1000001430511475,31.399999618530273,0.0,0.0,0.0,0.0,0.0,,,,,
frame_00038.png,1769712244339185089,1769712244.3391852,42.30106817024716,-83.6974521469039,239.04824829101562,0.710620275364744,0.7034195948685837,0.01062836747221761,0.010331292287438742,-0.0037300000000000002,0.004790000000000001,-0.00272,2.3431,0.6186,-9.2726,1.3194943289075738,2.951629644106508,3.6399998664855957,3.7200000286102295,3.569999933242798,3.609999895095825,2.955713452385073,3.0206743216317706,2.8988728611925363,2.931353199016843,2.951653458556556,8.068237861584136e-06,-3.1000001430511475,31.399999618530273,0.0,0.0,0.0,0.0,0.0,,,,,
frame_00039.png,1769712244359673870,1769712244.3596737,42.30106817024716,-83.6974521469039,239.04824829101562,0.710620275364744,0.7034195948685837,0.01062836747221761,0.010331292287438742,-0.0037300000000000002,0.004790000000000001,-0.00272,2.3431,0.6186,-9.2726,1.3194943289075738,2.951629644106508,3.6399998664855957,3.7200000286102295,3.569999933242798,3.609999895095825,2.955713452385073,3.0206743216317706,2.8988728611925363,2.931353199016843,2.951653458556556,8.068237861584136e-06,-3.1000001430511475,31.399999618530273,0.0,0.0,0.0,0.0,0.0,,,,,
frame_00040.png,1769712244380493699,1769712244.3804939,42.30106817024716,-83.6974521469039,239.04824829101562,0.710620275364744,0.7034195948685837,0.01062836747221761,0.010331292287438742,-0.0037300000000000002,0.004790000000000001,-0.00272,2.3431,0.6186,-9.2726,1.3194943289075738,2.951629644106508,3.6399998664855957,3.7200000286102295,3.569999933242798,3.609999895095825,2.955713452385073,3.0206743216317706,2.8988728611925363,2.931353199016843,2.951653458556556,8.068237861584136e-06,-3.1000001430511475,31.399999618530273,0.0,0.0,0.0,0.0,0.0,,,,,
frame_00041.png,1769712244400875976,1769712244.400876,42.30106817024716,-83.6974521469039,239.04824829101562,0.710620275364744,0.7034195948685837,0.01062836747221761,0.010331292287438742,-0.0037300000000000002,0.004790000000000001,-0.00272,2.3431,0.6186,-9.2726,1.3194943289075738,2.951629644106508,3.6399998664855957,3.7200000286102295,3.569999933242798,3.609999895095825,2.955713452385073,3.0206743216317706,2.8988728611925363,2.931353199016843,2.951653458556556,8.068237861584136e-06,-3.1000001430511475,31.399999618530273,0.0,0.0,0.0,0.0,0.0,,,,,
frame_00042.png,1769712244421549283,1769712244.4215493,42.30106817024716,-83.6974521469039,239.04824829101562,0.710620275364744,0.7034195948685837,0.01062836747221761,0.010331292287438742,-0.0037300000000000002,0.004790000000000001,-0.00272,2.3431,0.6186,-9.2726,1.3194943289075738,2.951629644106508,3.6399998664855957,3.7200000286102295,3.569999933242798,3.609999895095825,2.955713452385073,3.0206743216317706,2.8988728611925363,2.931353199016843,2.951653458556556,8.068237861584136e-06,-3.1000001430511475,31.399999618530273,0.0,0.0,0.0,0.0,0.0,,,,,
frame_00043.png,1769712244442216229,1769712244.4422162,42.30106817024716,-83.6974521469039,239.04824829101562,0.710620275364744,0.7034195948685837,0.01062836747221761,0.010331292287438742,-0.0037300000000000002,0.004790000000000001,-0.00272,2.3431,0.6186,-9.2726,1.3194943289075738,2.951629644106508,3.6399998664855957,3.7200000286102295,3.569999933242798,3.609999895095825,2.955713452385073,3.0206743216317706,2.8988728611925363,2.931353199016843,2.951653458556556,8.068237861584136e-06,-3.1000001430511475,31.399999618530273,0.0,0.0,0.0,0.0,0.0,,,,,
frame_00044.png,1769712244462926312,1769712244.4629264,42.30106817024716,-83.6974521469039,239.04824829101562,0.710620275364744,0.7034195948685837,0.01062836747221761,0.010331292287438742,-0.0037300000000000002,0.004790000000000001,-0.00272,2.3431,0.6186,-9.2726,1.3194943289075738,2.951629644106508,3.6399998664855957,3.7200000286102295,3.569999933242798,3.609999895095825,2.955713452385073,3.0206743216317706,2.8988728611925363,2.931353199016843,2.951653458556556,8.068237861584136e-06,-3.1000001430511475,31.399999618530273,0.0,0.0,0.0,0.0,0.0,,,,,
frame_00045.png,1769712244504487824,1769712244.504488,42.301068420601084,-83.6974521461655,239.04872131347656,0.710620275364744,0.7034195948685837,0.01062836747221761,0.010331292287438742,-0.0037300000000000002,0.004790000000000001,-0.00272,2.3431,0.6186,-9.2726,1.403785961968487,3.1401849697657873,3.990000009536743,3.7200000286102295,3.7300000190734863,3.7899999618530273,3.239916795543923,3.0206743216317706,3.028794406087847,3.0775149128243067,3.0917251090219615,0.015432167598534875,-3.1000001430511475,32.275001525878906,0.0,0.0,0.0,0.0,0.0,,,,,
frame_00046.png,1769712244525225190,1769712244.5252252,42.3010686784922,-83.69745214597819,239.0492401123047,0.710620275364744,0.7034195948685837,0.01062836747221761,0.010331292287438742,-0.0037300000000000002,0.004790000000000001,-0.00272,2.3431,0.6186,-9.2726,1.4640880208759026,3.275077057418142,4.199999809265137,4.25,3.869999885559082,3.8999998569488525,3.410438569121532,3.451039185,3.14247558847292,3.1668358418411495,3.2926972961089005,0.005380098966174963,-3.1000001430511475,32.57500076293945,0.0,0.0,0.0,0.0,0.0,,,,,
frame_00047.png,1769712244545788805,1769712244.545789,42.30106895733092,-83.69745214647212,239.0496368408203,0.710620275364744,0.7034195948685837,0.01062836747221761,0.010331292287438742,-0.0037300000000000002,0.004790000000000001,-0.00272,2.3431,0.6186,-9.2726,1.4640880208759026,3.275077057418142,4.480000019073486,4.279999732971191,4.150000095367432,3.9800000190734863,3.637801321087847,3.4753992447701454,3.369838340439234,3.231796711087847,3.4287089043462684,0.046909383881562766,-3.1000001430511475,32.60000228881836,0.0,0.0,0.0,0.0,0.0,,,,,
frame_00048.png,1769712244566534190,1769712244.566534,42.30106895733092,-83.69745214647212,239.0496368408203,0.710620275364744,0.7034195948685837,0.01062836747221761,0.010331292287438742,-0.0037300000000000002,0.004790000000000001,-0.00272,2.3431,0.6186,-9.2726,1.4640880208759026,3.275077057418142,4.960000038146973,4.299999713897705,4.279999732971191,4.319999694824219,4.027565762175694,3.4916394136822984,3.4753992447701454,3.507879582594452,3.6256210008056473,0.10703380019517818,-3.1000001430511475,32.775001525878906,0.0,0.0,0.0,0.0,0.0,,,,,
frame_00049.png,1769712244587261264,1769712244.5872612,42.30106923618843,-83.69745215012897,239.04989624023438,0.710620275364744,0.7034195948685837,0.01062836747221761,0.010331292287438742,-0.0037300000000000002,0.004790000000000001,-0.00272,2.3431,0.6186,-9.2726,1.4848405913925447,3.3214993125096393,5.21999979019165,4.539999961853027,4.380000114440918,4.409999847412109,4.238687958033686,3.6865218278243064,3.556600476527081,3.580960536297226,3.765692699670575,0.13373279515307637,-3.200000047683716,33.375,0.0,0.0,0.0,0.0,0.0,,,,,
frame_00050.png,1769712244608884888,1769712244.608885,42.30106923618843,-83.69745215012897,239.04989624023438,0.7106138771073488,0.7034262418059378,0.010705664428149827,0.010238591230629233,0.0024200000000000003,0.024,-0.0015400000000000001,3.7386000000000004,0.4918,-9.8071,1.4848405913925447,3.3214993125096393,5.589999675750732,5.069999694824219,4.480000019073486,4.539999961853027,4.539131276506605,4.116886497594452,3.637801321087847,3.6865218278243064,3.9950852307533027,0.2027957421838872,-3.200000047683716,34.125,0.0,0.0,0.0,0.0,0.0,,,,,
frame_00051.png,1769712244649498458,1769712244.6494985,42.30106923618843,-83.69745215012897,239.04989624023438,0.7105129228192197,0.7035216074484231,0.011110014350757855,0.010261673411396463,0.00103,0.019340000000000003,0.00223,2.4215,0.6294000000000001,-10.468300000000001,1.7079630861549078,3.8206109459433595,5.460000038146973,5.96999979019165,4.839999675750732,4.909999847412109,4.433570372175694,4.847694873033686,3.9301243615066053,3.986965146297226,4.299588688253302,0.1253667931874903,-3.4000000953674316,35.32500076293945,0.0,0.0,0.0,0.0,0.0,,,,,
frame_00052.png,1769712244669996503,1769712244.6699965,42.30106952245677,-83.6974521523694,239.0503387451172,0.7104645054035698,0.7035692627995414,0.011129838379361401,0.010325003778222461,-0.008860000000000002,0.007340000000000001,-0.006120000000000001,2.5174000000000003,0.8213,-9.391,1.761765890616349,3.940964591355336,5.329999923706055,6.739999771118164,5.079999923706055,4.989999771118164,4.328009080648613,5.4729419569458395,4.125006775648613,4.051925821945839,4.494470908797226,0.1404494520595359,-3.6000001430511475,35.67499923706055,0.0,0.0,0.0,0.0,0.0,,,,,
frame_00053.png,1769712244690801617,1769712244.6908016,42.30106952245677,-83.6974521523694,239.0503387451172,0.7104472901758206,0.7035881400779735,0.011081912747240021,0.010274640300930005,0.013890000000000003,0.00035000000000000005,-0.005180000000000001,2.7542,0.4839,-9.954600000000001,1.789188484926319,4.002307289471081,5.339999675750732,7.359999656677246,5.179999828338623,5.179999828338623,4.336128971506605,5.976387580418758,4.206207620209379,4.206207620209379,4.681232948086031,0.16963356621841802,-3.799999952316284,36.07500076293945,0.0,0.0,0.0,0.0,0.0,,,,,
frame_00054.png,1769712244711603664,1769712244.7116036,42.30106952245677,-83.6974521523694,239.0503387451172,0.7104151668543769,0.7036221876491944,0.010972400891433656,0.010281739624559782,0.00496,-0.01836,-0.005890000000000001,2.9629000000000003,0.3775,-10.659500000000001,1.8488582068124264,4.13578487714699,5.299999713897705,7.819999694824219,5.429999828338623,5.329999923706055,4.3036486336822986,6.349911852594452,4.40920992520938,4.328009080648613,4.847694873033685,0.17213419387949302,-3.9000000953674316,36.42499923706055,0.0,0.0,0.0,0.0,0.0,,,,,
frame_00055.png,1769712244732680782,1769712244.7326808,42.30107079103071,-83.69745215926197,239.0526123046875,0.7104141941352545,0.703625794924565,0.010877361031110635,0.010202769473532394,0.024710000000000003,-0.00237,-0.0007800000000000001,1.4698,1.0531000000000001,-9.9868,1.863432871817847,4.168387528284215,5.739999771118164,7.739999771118164,5.710000038146973,5.549999713897705,4.660932736945839,6.28495117694584,4.636572677175694,4.506650938682299,5.022276882437418,0.20484884103486414,-4.300000190734863,36.45000076293945,0.0,0.0,0.0,0.0,0.0,,,,,
frame_00056.png,1769712244752807561,1769712244.7528076,42.301071125763,-83.69745215839589,239.0532989501953,0.7103828802828196,0.7036631805455932,0.010709937296435764,0.009979428272769772,0.029170000000000005,-0.0041600000000000005,-0.0051600000000000005,2.7627,0.5119,-10.098500000000001,1.9184550432108685,4.291468824360121,5.859999656677246,7.799999713897705,5.87999963760376,5.940000057220459,4.758373750418759,6.333671683682299,4.774613919330911,4.82333481326354,5.172498541673877,0.2052979418870933,-4.400000095367432,36.54999923706055,0.0,0.0,0.0,0.0,0.0,,,,,
frame_00057.png,1769712244773674626,1769712244.7736747,42.301071469653536,-83.69745215870478,239.05421447753906,0.7103724557366434,0.7036772211671123,0.010627447265718307,0.00981834537158024,0.03458,0.010970000000000002,-0.0033400000000000005,2.8156000000000003,0.1278,-9.393600000000001,1.9464431979287178,4.354076647174666,6.049999713897705,7.87999963760376,6.109999656677246,6.039999961853027,4.912655548682299,6.398632359330912,4.961376055418759,4.904535657824306,5.294299905314068,0.21594090649495273,-4.599999904632568,36.54999923706055,0.0,0.0,0.0,0.0,0.0,,,,,
frame_00058.png,1769712244856843340,1769712244.8568432,42.30107257055944,-83.69745215347496,239.05764770507812,0.7103189544979047,0.7037441142725053,0.010187848269268643,0.00934945214721137,0.012250000000000002,0.0048600000000000015,0.0004700000000000001,2.7394000000000003,0.4817,-9.3992,2.1338820796032056,4.773366179147595,8.130000114440918,7.960000038146973,7.309999942779541,6.5,6.601635051527081,6.463593422175694,5.93578735173646,5.2780599299999995,6.0697689388598075,0.27159088807716786,-5.0,36.875,0.0,0.0,0.0,0.0,0.0,,,,,
frame_00059.png,1769712244876958088,1769712244.8769581,42.30107296352304,-83.69745215375242,239.05894470214844,0.7102757186522665,0.7037877095943814,0.010169929053624354,0.009372078741938307,0.00044000000000000007,-0.004690000000000001,-0.0036400000000000004,2.5854,0.42400000000000004,-10.0542,2.1874812281096614,4.893264258407626,8.869999885559082,8.039999961853027,7.62999963760376,7.230000019073486,7.2025216884729195,6.528554097824307,6.195630054330912,5.870826676087847,6.4493831291789965,0.31801243272272506,-5.0,37.125,0.0,0.0,0.0,0.0,0.0,,,,,
frame_00060.png,1769712244897866620,1769712244.8978665,42.30107335769756,-83.69745215485331,239.0601806640625,0.7102823234411165,0.7037818593994278,0.010181507058658052,0.00929797297197596,0.009140000000000002,0.012370000000000003,0.00229,2.7744,0.3785,-10.5192,2.215307814210201,4.955510661919368,8.929999351501465,8.559999465942383,7.119999885559082,8.1899995803833,7.25124180801321,6.950798489540291,5.78150555347292,6.650355171067371,6.658475255523448,0.343650676950514,-5.0,37.775001525878906,0.0,0.0,0.0,0.0,0.0,,,,,
frame_00061.png,1769712244918616902,1769712244.9186168,42.30107376017201,-83.69745215724929,239.06163024902344,0.71025183885995,0.7038111717094615,0.010168599255409283,0.009421229335768305,-0.014240000000000001,-0.008280000000000001,-0.0035300000000000006,2.5297,-0.2842,-9.8032,2.2701355974474424,5.0781571233540825,8.630000114440918,9.149999618530273,7.440000057220459,9.119999885559082,7.00763966152708,7.4298840532430654,6.041348643263541,7.4055239934729205,6.971099087876652,0.37276159806420023,-5.0,38.54999923706055,0.0,0.0,0.0,0.0,0.0,,,,,
frame_00062.png,1769712244939166000,1769712244.939166,42.301074182358455,-83.69745216319777,239.0627899169922,0.7102678108872537,0.7037926698585795,0.010292975468292458,0.009464107288588305,-0.013120000000000001,0.014220000000000002,-0.00024,3.1053,-0.21610000000000001,-9.481300000000001,2.3226031899348367,5.195523979692834,8.550000190734863,9.760000228881836,9.199999809265137,9.59999942779541,6.9426789858784685,7.925210173054162,7.470484669121532,7.795288047364597,7.53341546885469,0.44998184943418834,-5.0,39.35000228881836,0.0,0.0,0.0,0.0,0.0,,,,,
frame_00063.png,1769712244959761459,1769712244.9597614,42.30107503824776,-83.69745217369194,239.06533813476562,0.7102527136818917,0.7038062966543585,0.010284085367649607,0.00959255364003447,-0.016900000000000002,-0.019250000000000003,-0.004380000000000001,3.2612,0.2722,-9.437800000000001,2.3550893184358936,5.268193499981988,9.059999465942383,9.800000190734863,10.179999351501465,9.59000015258789,7.356803099540292,7.957690510878468,8.26625333301321,7.787168543702775,7.841978871783686,0.48855179138930593,-5.0,39.85000228881836,0.0,0.0,0.0,0.0,0.0,,,,,
frame_00064.png,1769712244980900345,1769712244.9809003,42.30107503824776,-83.69745217369194,239.06533813476562,0.7102451001647304,0.7038094742791503,0.01038212206065031,0.00981494515604136,-0.017650000000000002,0.00496,0.0025700000000000007,2.2754000000000003,0.49760000000000004,-9.3792,2.4180786794107076,5.409096921120988,9.309999465942383,9.65999984741211,11.119999885559082,10.149999618530273,7.559805404540291,7.844008941297226,9.029542433472919,8.241893273243065,8.168812513138375,0.510198954143617,-5.0,39.775001525878906,0.0,0.0,0.0,0.0,0.0,,,,,
frame_00065.png,1769712245001293940,1769712245.001294,42.30107548759794,-83.69745218296796,239.0661163330078,0.7101964991625643,0.7038579731511359,0.010417078786606393,0.009816856847594962,-0.0039900000000000005,-0.0017200000000000004,-0.010160000000000002,3.3374,-0.9949,-9.0787,2.4747386552544133,5.535841887484808,9.859999656677246,9.5,12.179999351501465,11.739999771118164,8.00641063041876,7.714087590000001,9.890271773013211,9.532988056945838,8.785939512594453,0.587100876644856,-5.0,40.42499923706055,0.0,0.0,0.0,0.0,0.0,,,,,
frame_00066.png,1769712245021877172,1769712245.0218773,42.30107593690441,-83.69745219181563,239.06719970703125,0.7102357272998571,0.7038152357424203,0.01037674602237437,0.010082100260923859,-0.010670000000000002,-0.019850000000000003,0.0117,1.0410000000000001,0.8713000000000001,-9.299000000000001,2.5152738126766176,5.626516602528834,10.569999694824219,9.670000076293945,12.579999923706055,14.019999504089355,8.582937207594453,7.852129219351387,10.215075925648613,11.384368861715986,9.50862780357761,0.6899670747090597,-4.900000095367432,40.650001525878906,0.0,0.0,0.0,0.0,0.0,,,,,
frame_00067.png,1769712245043375487,1769712245.0433753,42.30107639463355,-83.6974522048004,239.06813049316406,0.7102523226884564,0.7037990913391936,0.010435685827588762,0.009978657579354283,-0.0014200000000000003,0.00816,8e-05,1.6583,-0.0883,-9.0563,2.545721732026232,5.6946267712387595,11.019999504089355,10.65999984741211,13.75999927520752,14.210000038146973,8.948341201715984,8.656018161297226,11.173246278661823,11.538651047175694,10.079064172212682,0.769925330860651,-4.900000095367432,40.400001525878906,0.0,0.0,0.0,0.0,0.0,,,,,
frame_00068.png,1769712245063229363,1769712245.0632293,42.30107686395449,-83.69745221470865,239.06838989257812,0.7102704246776509,0.7037823209431633,0.010559950535373746,0.009739404538995983,0.016390000000000002,0.030810000000000004,0.00338,2.5226,0.4806,-9.217500000000001,2.58697779836174,5.786914116267311,11.800000190734863,12.479999542236328,14.6899995803833,14.109999656677246,9.581708950878468,10.133874693891677,11.928415101067372,11.457449815418759,10.77536214031407,0.8620221285164708,-4.900000095367432,40.5,0.0,0.0,0.0,0.0,0.0,,,,,
frame_00069.png,1769712245085958176,1769712245.0859582,42.301077813742104,-83.69745223732302,239.06922912597656,0.710289694086583,0.7037636343706273,0.010597975358696263,0.009642630871840597,-0.0021200000000000004,0.00759,0.0064800000000000005,1.2643,0.7286,-9.845500000000001,2.6538987919040173,5.936612363561773,13.460000038146973,13.799999237060547,15.089999198913574,14.609999656677246,10.929644132175694,11.20572661648613,12.253218479310437,11.863454425418759,11.563010913347755,0.9477456510922211,-4.900000095367432,40.32500076293945,0.0,0.0,0.0,0.0,0.0,,,,,
frame_00070.png,1769712245104489666,1769712245.1044898,42.301077813742104,-83.69745223732302,239.06922912597656,0.7103048215632609,0.7037495341739581,0.01066144726872254,0.009486156021130652,0.013330000000000003,0.031040000000000005,0.00458,1.3877000000000002,0.931,-9.3629,2.667557150906798,5.967165293149454,15.339999198913574,15.039999961853027,15.089999198913574,15.699999809265137,12.456220784310437,12.212618637824306,12.253218479310437,12.748544599121534,12.417650625141679,1.0809965896868388,-4.900000095367432,40.57500076293945,0.0,0.0,0.0,0.0,0.0,,,,,
frame_00071.png,1769712245125682733,1769712245.1256826,42.30107830564493,-83.6974522503557,239.06924438476562,0.7102397649671228,0.7038167102294058,0.010775535299465606,0.009241347321294866,0.004130000000000001,0.023060000000000004,-0.00859,2.4095,-0.3305,-9.5,2.7134542118490277,6.069834264653564,16.559999465942383,16.399999618530273,14.589999198913574,16.020000457763672,13.446872249540291,13.316950898243064,11.847213869310437,13.008388076108323,12.90485627330053,1.1260640259074808,-4.900000095367432,40.54999923706055,0.0,0.0,0.0,0.0,0.0,,,,,
frame_00072.png,1769712245145837900,1769712245.1458378,42.30107879948698,-83.69745226187628,239.0693359375,0.7102161931709431,0.7038405833199286,0.010909179276046753,0.009076455098740136,0.00478,0.0085,-0.0069900000000000006,2.0414,0.5883,-10.5472,2.7786322871216984,6.215633708354012,17.93000030517578,17.760000228881836,14.65999984741211,15.589999198913574,14.559325562405549,14.421283933054161,11.904055041297227,12.659223089310435,13.385971906516843,1.153597289448647,-4.900000095367432,40.5,0.0,0.0,0.0,0.0,0.0,,,,,
frame_00073.png,1769712245166718445,1769712245.1667185,42.301079298611604,-83.69745227496956,239.06973266601562,0.7102020138895745,0.7038551113363343,0.010934327077736963,0.009028964739451055,0.0032400000000000003,0.0103,-0.003980000000000001,1.6886,0.20020000000000002,-10.3542,2.7952453518851343,6.252796137445933,19.329999923706055,19.09000015258789,14.949999809265137,15.299999237060547,15.696138160648614,15.501256133702775,12.139537684121532,12.42374044648613,13.940168106239762,1.229429490393377,-5.0,40.67499923706055,0.0,0.0,0.0,0.0,0.0,,,,,
frame_00074.png,1769712245187359942,1769712245.18736,42.301079813445014,-83.69745228986312,239.0701141357422,0.7101494229886413,0.7039069787902992,0.01104726456797509,0.008984441261325391,-0.00867,0.009130000000000001,-0.00689,2.2329000000000003,-0.19460000000000002,-9.9748,2.835896462666676,6.343730233197594,20.43000030517578,20.529998779296875,15.029999732971191,14.839999198913574,16.589348612405548,16.670548295377806,12.204498359770147,12.050216174310437,14.378652860465985,1.2665927351734723,-5.099999904632568,40.54999923706055,0.0,0.0,0.0,0.0,0.0,,,,,
frame_00075.png,1769712245208037309,1769712245.2080374,42.30108032940213,-83.69745230339718,239.07054138183594,0.7101084145848043,0.7039457933148394,0.011130779596023415,0.00908104376058501,-0.01182,-0.0009400000000000002,-0.0035200000000000006,1.925,0.4378,-10.0873,2.877223628121115,6.436176622689247,20.529998779296875,21.189998626708984,15.039999961853027,14.65999984741211,16.670548295377806,17.206474256675033,12.212618637824306,11.904055041297227,14.498424057793592,1.252645461388173,-5.200000286102295,40.900001525878906,0.0,0.0,0.0,0.0,0.0,,,,,
frame_00076.png,1769712245228699072,1769712245.2286992,42.301081386756834,-83.6974523354898,239.07228088378906,0.7100140943087628,0.704034521484828,0.011289777271502913,0.009376532925139194,-0.020970000000000003,-0.005730000000000001,-0.0028700000000000006,1.9483000000000001,0.372,-10.0366,2.956203578969349,6.612850033939695,20.189998626708984,20.619998931884766,14.65999984741211,14.699999809265137,16.394465036675037,16.743629249080584,11.904055041297227,11.936535379121532,14.244671176543594,1.154089553435274,-5.400000095367432,40.70000076293945,0.0,0.0,0.0,0.0,0.0,,,,,
frame_00077.png,1769712245270123025,1769712245.270123,42.301082466015444,-83.69745236450035,239.07432556152344,0.7098837052046534,0.7041626500021628,0.011336651672170846,0.009569104227050169,-0.007210000000000001,-0.00916,-0.014940000000000002,2.077,0.23020000000000002,-9.731200000000001,3.018101074046515,6.751311016577612,19.100000381469727,18.799999237060547,13.90999984741211,14.309999465942383,15.509376411756936,15.26577271648613,11.295048126297226,11.619851504540291,13.422512189770146,0.9881341796891936,-5.599999904632568,40.775001525878906,0.0,0.0,0.0,0.0,0.0,,,,,
frame_00078.png,1769712245290775968,1769712245.290776,42.301082466015444,-83.69745236450035,239.07432556152344,0.7098312330387743,0.7042144340349381,0.011339513046511965,0.009647120988823634,-0.007290000000000001,-0.0034500000000000004,-0.00572,2.1545,-0.32,-10.063600000000001,3.0582335536374026,6.841084965473652,18.28999900817871,18.529998779296875,13.90999984741211,13.829999923706055,14.85164782843197,15.046529855377807,11.295048126297226,11.230087450648613,13.105828315188903,0.9157528931935293,-5.800000190734863,41.25,0.0,0.0,0.0,0.0,0.0,,,,,
frame_00079.png,1769712245311681426,1769712245.3116815,42.301083582292264,-83.69745239451893,239.07635498046875,0.7097561764299222,0.7042871593844413,0.011386212204260147,0.009804147969681676,-0.01157,-0.008090000000000002,-0.01058,1.7388000000000001,1.1987,-9.9807,3.0984215027490616,6.930982996359487,17.139999389648438,17.93000030517578,13.529999732971191,13.049999237060547,13.917837535188903,14.559325562405549,10.986484529770147,10.59671970148613,12.515091832212683,0.8056734288319941,-6.099999904632568,41.45000076293945,0.0,0.0,0.0,0.0,0.0,,,,,
frame_00080.png,1769712245332636209,1769712245.332636,42.301083582292264,-83.69745239451893,239.07635498046875,0.709646163947675,0.7043979647510851,0.011360032618311174,0.009837627142209943,-0.0023100000000000004,-0.0038900000000000002,-0.018530000000000005,2.1768,-0.6067,-10.051400000000001,3.137411505054389,7.018201292116366,16.81999969482422,17.260000228881836,12.9399995803833,12.819999694824219,13.657994832594452,14.01527932305416,10.507398966067372,10.409957952594452,12.14765776857761,0.730879076127843,-6.400000095367432,41.5,0.0,0.0,0.0,0.0,0.0,,,,,
frame_00081.png,1769712245352821406,1769712245.3528216,42.30108472513561,-83.69745242819499,239.0790252685547,0.7095715305104486,0.7044685550428343,0.011514995340498787,0.009985135313494795,-0.024280000000000003,0.004110000000000001,-0.006300000000000001,1.72,0.1884,-9.571100000000001,3.17425295701968,7.100613409675604,16.770000457763672,16.670000076293945,12.670000076293945,12.889999389648438,13.617394991108322,13.536193759351388,10.288156879351387,10.466798350188904,11.977135995,0.686774832534811,-6.700000286102295,41.525001525878906,0.0,0.0,0.0,0.0,0.0,,,,,
frame_00082.png,1769712245373788544,1769712245.3737886,42.30108472513561,-83.69745242819499,239.0790252685547,0.7094665479793263,0.7045719306721804,0.011615988199218944,0.010033973556365618,-0.00478,0.004090000000000001,-0.01755,2.0904000000000003,0.5707,-9.9124,3.213943095104942,7.1893978671640495,16.399999618530273,16.029998779296875,12.269999504089355,12.619999885559082,13.316950898243064,13.016506805377809,9.963352726715986,10.24755626347292,11.636091673452444,0.6185071251373727,-7.099999904632568,41.47500228881836,0.0,0.0,0.0,0.0,0.0,,,,,
frame_00083.png,1769712245394261497,1769712245.3942616,42.301085890529606,-83.69745246015088,239.08180236816406,0.7093613598308154,0.704676495428961,0.011643422646651207,0.010095973356017009,-7.000000000000002e-05,-0.0006100000000000001,-0.005470000000000001,2.4127,0.7199,-10.3619,3.2791813466439033,7.335331921561614,16.020000457763672,15.309999465942383,12.319999694824219,12.059999465942383,13.008388076108323,12.431860724540291,10.003953342594452,9.79283075954029,11.309258225695839,0.5417513953871932,-7.599999904632568,41.375,0.0,0.0,0.0,0.0,0.0,,,,,
frame_00084.png,1769712245415304436,1769712245.4153044,42.301085890529606,-83.69745246015088,239.08180236816406,0.7093232591784678,0.7047157900323184,0.011583860745566808,0.01009868495343592,0.00799,-0.00837,-0.01152,2.2901000000000002,0.6719,-9.9056,3.3021105767078276,7.386623233460808,15.649999618530273,15.559999465942383,12.380000114440918,11.420000076293945,12.707943983243066,12.634863029540291,10.05267423652708,9.273145354351389,11.167156650915455,0.5118080749440604,-8.300000190734863,41.47500228881836,0.0,0.0,0.0,0.0,0.0,,,,,
frame_00085.png,1769712245435831270,1769712245.4358313,42.30108709348252,-83.69745249097012,239.08460998535156,0.7092068221697537,0.7048385297343307,0.011343395433250681,0.009982873828271266,0.0182,-0.008440000000000001,-0.009340000000000003,2.3559,0.33630000000000004,-10.1179,3.3620368027444036,7.520674605531067,15.359999656677246,15.479999542236328,11.529999732971191,11.4399995803833,12.472461340418759,12.56990235389168,9.362466089770146,9.289385136067372,10.92355373003699,0.4524699316206662,-8.800000190734863,41.32500076293945,0.0,0.0,0.0,0.0,0.0,,,,,
frame_00086.png,1769712245456625152,1769712245.4566252,42.30108770095779,-83.69745250610161,239.0864715576172,0.7091668978979572,0.7048808182755231,0.011249712248661703,0.009939161299619192,0.019540000000000005,-0.006950000000000001,-0.011790000000000002,2.185,0.1203,-10.0289,3.3837343067811907,7.569210620211117,14.949999809265137,15.309999465942383,10.929999351501465,11.819999694824219,12.139537684121532,12.431860724540291,8.87526024801321,9.597948732594453,10.761151847317372,0.42170067491360497,-9.699999809265137,41.20000076293945,0.0,0.0,0.0,0.0,0.0,,,,,
frame_00087.png,1769712245477433124,1769712245.4774332,42.30108832462412,-83.69745251949493,239.08804321289062,0.7090747997562931,0.704981078758758,0.01091781929382038,0.009767710303772709,0.029790000000000004,-0.0069900000000000006,-0.00825,2.3508,0.5459,-9.8194,3.4464831852653424,7.709576096447456,15.029999732971191,15.039999961853027,10.84000015258789,11.769999504089355,12.204498359770147,12.212618637824306,8.802180068702775,9.557348116715985,10.694161295753304,0.3871270173571715,-10.5,41.025001525878906,0.0,0.0,0.0,0.0,0.0,,,,,
frame_00088.png,1769712245497814029,1769712245.497814,42.301088948662716,-83.69745253626971,239.08941650390625,0.7089691829046566,0.7050916207227111,0.010715559959939187,0.009678886964361215,0.01485,-0.0073100000000000005,-0.014790000000000001,1.7368000000000001,-0.34750000000000003,-9.170200000000001,3.485118381856092,7.796000713109167,15.309999465942383,14.960000038146973,11.130000114440918,10.710000038146973,12.431860724540291,12.147657962175694,9.037662711527082,8.696618777175694,10.57845004385469,0.35690726991170835,-11.199999809265137,41.10000228881836,0.0,0.0,0.0,0.0,0.0,,,,,
frame_00089.png,1769712245518835197,1769712245.5188353,42.3010895796034,-83.69745254945316,239.09121704101562,0.7089115178019825,0.7051522391526516,0.010669381478975398,0.009536448214467742,0.01683,0.00792,-0.008310000000000001,2.2021,1.1929,-9.4417,3.5250826621408473,7.885398410249348,15.589999198913574,14.719999313354492,11.0,10.5,12.659223089310435,11.952775160837517,8.93210142,8.52609681,10.517549120036987,0.33380059863131345,-11.90000057220459,41.22500228881836,0.0,0.0,0.0,0.0,0.0,,,,,
frame_00090.png,1769712245539018337,1769712245.5390182,42.30109022677731,-83.69745256239842,239.0923309326172,0.7088022450054321,0.7052676967697017,0.010487604021770552,0.00932006063831201,0.028200000000000003,-0.0024000000000000002,-0.01836,2.5923000000000003,-0.0921,-9.5215,3.5781090269530873,8.00401520675244,15.529999732971191,15.15999984741211,10.75,10.559999465942383,12.610502969770145,12.310059651297227,8.729099115,8.57481692954029,10.556119666401916,0.31885302485388084,-12.90000057220459,41.25,0.0,0.0,0.0,0.0,0.0,,,,,
frame_00091.png,1769712245559863430,1769712245.5598636,42.30109087348978,-83.69745257816987,239.0935516357422,0.708744220985212,0.7053295532626028,0.010379514625890878,0.009171487914888293,0.016270000000000003,0.007110000000000001,-0.006980000000000001,2.1903,-0.2813,-9.5756,3.621367210841619,8.100781168620053,15.460000038146973,15.819999694824219,10.75,10.6899995803833,12.553662572175694,12.845985612594452,8.729099115,8.680378221067372,10.70228138020938,0.32114189452083247,-13.199999809265137,41.125,0.0,0.0,0.0,0.0,0.0,,,,,
frame_00092.png,1769712245580827762,1769712245.5808277,42.30109152899401,-83.6974525935316,239.094970703125,0.7086751249055425,0.7054001552179768,0.010350504945048262,0.009113473868441578,0.00427,0.0018400000000000003,-0.009520000000000002,2.0495,0.3976,-9.5937,3.666155861406181,8.200970692613943,15.489999771118164,16.25,10.899999618530273,10.949999809265137,12.578022631945839,13.195149825,8.850900188243065,8.891500804121533,10.87889336232761,0.326537280778907,-13.600000381469727,40.97500228881836,0.0,0.0,0.0,0.0,0.0,,,,,
frame_00093.png,1769712245602188577,1769712245.6021886,42.30109219971758,-83.69745260744315,239.0959014892578,0.7086284323023747,0.7054491676827546,0.010367456347790918,0.008929311130439396,0.014220000000000002,0.016530000000000003,-0.00846,2.4887,0.8015,-9.495800000000001,3.710029678599067,8.299113789245398,16.149999618530273,16.53999900817871,11.09000015258789,11.0,13.113948593243066,13.43063169343197,9.005182373702773,8.93210142,11.120466020094453,0.33995825367585275,-13.800000190734863,41.04999923706055,0.0,0.0,0.0,0.0,0.0,,,,,
frame_00094.png,1769712245622519927,1769712245.6225197,42.301092872527384,-83.6974526252529,239.09690856933594,0.7085276363911811,0.7055520867371858,0.010308423306375145,0.00886441084705245,0.0014600000000000004,-0.005790000000000001,-0.017070000000000002,2.0638,-0.43010000000000004,-10.4148,3.7582161277651696,8.40690398484302,16.719999313354492,16.6299991607666,11.309999465942383,11.210000038146973,13.576793600837517,13.503712647134742,9.18382384454029,9.102623387175694,11.341738369922062,0.3490981210645817,-13.800000190734863,40.54999923706055,0.0,0.0,0.0,0.0,0.0,,,,,
frame_00095.png,1769712245642422707,1769712245.6424227,42.30109355278407,-83.69745263829071,239.09820556640625,0.7084197262843979,0.7056580081792815,0.010453962344536594,0.008887157863274363,0.0036000000000000008,0.004900000000000001,-0.01634,2.2841,0.8323,-9.837100000000001,3.8260347998719806,8.55861028522563,16.239999771118164,16.06999969482422,11.34999942779541,11.329999923706055,13.18702954694584,13.048987917594452,9.216304182364599,9.200064400648614,11.163096511888376,0.3043118146363975,-13.90000057220459,40.60000228881836,0.0,0.0,0.0,0.0,0.0,,,,,
frame_00096.png,1769712245663316127,1769712245.6633162,42.30109424921202,-83.69745265171062,239.09963989257812,0.7083390292124061,0.7057383003814505,0.010462307711716698,0.008933710677688268,-0.007720000000000001,-0.005000000000000001,-0.02288,2.8062,0.2479,-10.1742,3.853853376311923,8.620838771607193,14.84999942779541,15.299999237060547,11.479999542236328,11.619999885559082,12.058336452364598,12.42374044648613,9.321865473891679,9.435547043472921,10.809872354053832,0.25392350332037755,-13.90000057220459,40.775001525878906,0.0,0.0,0.0,0.0,0.0,,,,,
frame_00097.png,1769712245683867683,1769712245.6838677,42.30109494515969,-83.69745266611294,239.10116577148438,0.7081540815190234,0.7059199703734205,0.01051194064585311,0.009181032610522409,-0.020150000000000005,-0.023610000000000006,-0.018070000000000003,2.838,0.4541,-10.5845,3.923498940008994,8.77663171886372,14.219999313354492,14.369999885559082,11.670000076293945,11.59999942779541,11.546770550837518,11.66857239847292,9.476147659351389,9.419306487364599,10.527699274006608,0.1995147581935444,-13.90000057220459,40.32500076293945,0.0,0.0,0.0,0.0,0.0,,,,,
frame_00098.png,1769712245704718163,1769712245.704718,42.30109564987328,-83.69745267705065,239.10301208496094,0.7080909474607341,0.7059824376184474,0.010478651839654157,0.009284705385647048,-0.009850000000000003,-0.019050000000000004,-0.01811,1.7197,1.0579,-10.1312,3.940521637751223,8.814710472351221,14.029999732971191,13.399999618530273,11.75999927520752,11.75,11.392489139770145,10.880923238243065,9.549227838661823,9.541108335,10.340937137918758,0.1731454107715501,-13.90000057220459,40.400001525878906,0.0,0.0,0.0,0.0,0.0,,,,,
frame_00099.png,1769712245725481195,1769712245.7254813,42.30109636945933,-83.69745268973786,239.10484313964844,0.7079097695684556,0.7061623553073169,0.010427384514503308,0.009473951052502084,-0.008510000000000002,-0.019010000000000003,-0.015030000000000003,2.3623000000000003,0.6254000000000001,-9.6902,4.006908537166483,8.963213983129194,13.90999984741211,12.819999694824219,11.969999313354492,11.949999809265137,11.295048126297226,10.409957952594452,9.719749805837518,9.703510024121533,10.282066477212682,0.14714057887782983,-13.800000190734863,40.25,0.0,0.0,0.0,0.0,0.0,,,,,
frame_00100.png,1769712245746720375,1769712245.7467203,42.301097090497066,-83.69745269969076,239.106689453125,0.7078584681772674,0.706214852121031,0.01034816800534666,0.009480880356590993,0.010340000000000002,-0.011810000000000003,-0.014770000000000002,2.2508,0.7887000000000001,-9.941600000000001,4.029418676339561,9.013567813851019,13.639999389648438,12.949999809265137,12.319999694824219,11.960000038146973,11.075805265188903,10.515519244121531,10.003953342594452,9.711630302175694,10.326727038520144,0.14568695235766818,-13.800000190734863,40.10000228881836,0.0,0.0,0.0,0.0,0.0,,,,,
frame_00101.png,1769712245767277918,1769712245.7672777,42.30109856335453,-83.69745272009425,239.11041259765625,0.7077545846814077,0.7063256159114965,0.010031226751794652,0.009324519266272686,0.03071,0.0032500000000000007,-0.0073500000000000015,2.2713,0.5588000000000001,-9.3546,4.095617593564327,9.161650819747788,13.579999923706055,13.549999237060547,12.369999885559082,12.219999313354492,11.027085145648613,11.00272431148613,10.04455395847292,9.922752110837518,10.499278881611296,0.14600295167114133,-13.800000190734863,40.125,0.0,0.0,0.0,0.0,0.0,,,,,
frame_00102.png,1769712245787485128,1769712245.7874851,42.30109856335453,-83.69745272009425,239.11041259765625,0.7076788043719947,0.7064080776132553,0.009778997637394685,0.009094445039534993,0.03603,-1e-05,-0.012250000000000002,2.44,0.16740000000000002,-9.268600000000001,4.147014710763162,9.276623087094547,13.75999927520752,14.539999961853027,12.420000076293945,12.469999313354492,11.173246278661823,11.806614027824308,10.085154574351387,10.125754415837518,10.797692324168759,0.16396798951444871,-13.90000057220459,40.0,0.0,0.0,0.0,0.0,0.0,,,,,
frame_00103.png,1769712245808260187,1769712245.8082602,42.30110006249609,-83.69745273915166,239.11392211914062,0.7076516206087201,0.7064425736010143,0.00950742015623893,0.008813796900316273,0.0364,0.0006600000000000001,-0.00267,2.0312,0.0944,-10.2844,4.190216124180303,9.373262056823886,14.779999732971191,15.420000076293945,12.469999313354492,12.369999885559082,12.001496054770147,12.521182234351388,10.125754415837518,10.04455395847292,11.173246665857993,0.19203395766831133,-13.800000190734863,39.900001525878906,0.0,0.0,0.0,0.0,0.0,,,,,
frame_00104.png,1769712245828856035,1769712245.828856,42.30110006249609,-83.69745273915166,239.11392211914062,0.7076064392334721,0.7064938642291336,0.00934990443433822,0.008492717408567997,0.03617000000000001,0.009770000000000003,-0.007450000000000001,2.4755000000000003,0.0908,-9.5753,4.23784412478897,9.479803036505439,15.789999961853027,15.869999885559082,12.670000076293945,12.559999465942383,12.821625552824306,12.88658622847292,10.288156879351387,10.198835369540292,11.548801007547226,0.21825326571389253,-13.800000190734863,40.150001525878906,0.0,0.0,0.0,0.0,0.0,,,,,
frame_00105.png,1769712245849738546,1769712245.8497386,42.3011016030178,-83.69745276358094,239.11737060546875,0.7075892171838383,0.7065146767503917,0.009274297090651619,0.008276392627657015,0.011350000000000002,0.0034800000000000005,0.0026600000000000005,2.7186000000000003,-0.34190000000000004,-10.0245,4.291039787286311,9.598798541772242,16.579999923706055,16.020000457763672,12.809999465942383,12.90999984741211,13.463112805648613,13.008388076108323,10.401837674540293,10.483038906297226,11.839094365648613,0.23339335794235158,-13.699999809265137,40.125,0.0,0.0,0.0,0.0,0.0,,,,,
frame_00106.png,1769712245890909308,1769712245.8909092,42.30110318187505,-83.6974527970322,239.1217041015625,0.7076140371754212,0.7064904403539992,0.009260607671698005,0.008238520878456255,-0.011500000000000002,-0.015410000000000002,0.0061600000000000005,2.7215000000000003,-0.751,-10.7886,4.417949445037959,9.882687831583212,16.719999313354492,16.75,13.84000015258789,13.619999885559082,13.576793600837517,13.601154435,11.238207728702776,11.059565483472921,12.368930312003304,0.25157553519747217,-13.699999809265137,39.72500228881836,0.0,0.0,0.0,0.0,0.0,,,,,
frame_00107.png,1769712245911842299,1769712245.9118423,42.30110397988214,-83.6974528131114,239.1243438720703,0.7076387278395602,0.7064637282324152,0.009246709923225831,0.008421989620089982,-0.0239,-0.027940000000000003,0.00689,2.4848,0.08560000000000001,-11.1348,4.442623546755195,9.937882316678566,16.389999389648438,16.93000030517578,14.489999771118164,15.269999504089355,13.308830620188905,13.747316342405549,11.76601341194584,12.399380386715984,12.80538519031407,0.2885426474434121,-13.600000381469727,39.400001525878906,0.0,0.0,0.0,0.0,0.0,,,,,
frame_00108.png,1769712245932410760,1769712245.932411,42.30110478778724,-83.69745283517697,239.12744140625,0.7076776021951736,0.7064186440709151,0.009148759225418744,0.009022796957411806,-0.031200000000000006,-0.034960000000000005,0.008860000000000002,2.7031,-0.6363,-10.814,4.512558980672246,10.094323686224975,15.989999771118164,16.219999313354492,15.00999927520752,16.53999900817871,12.98402724194584,13.170788990837517,12.188257803661823,13.43063169343197,12.943426432469288,0.28224800737589645,-13.600000381469727,38.97500228881836,0.0,0.0,0.0,0.0,0.0,,,,,
frame_00109.png,1769712245953298656,1769712245.9532988,42.30110561177123,-83.69745285842608,239.1309051513672,0.7077236525132492,0.7063691157842764,0.009119916915670476,0.00931295092311711,-0.03696000000000001,-0.04509000000000001,0.012470000000000002,2.5861,0.0131,-10.0839,4.538560572742628,10.152487687590895,16.170000076293945,15.6899995803833,15.279999732971191,17.35999870300293,13.130189149351388,12.74042432106737,12.407500664770147,14.09647900602642,13.093648285303832,0.2896985141196316,-13.5,38.54999923706055,0.0,0.0,0.0,0.0,0.0,,,,,
frame_00110.png,1769712245973783144,1769712245.973783,42.3011064355218,-83.69745288313355,239.13414001464844,0.7077979328720293,0.7062874747863588,0.008972449070215296,0.009979195341959773,-0.023200000000000005,-0.03443000000000001,0.00841,1.9369,-0.36010000000000003,-9.0205,4.603436216512489,10.297610610165448,15.539999961853027,15.1899995803833,16.059999465942383,17.93000030517578,12.618623247824306,12.33441971106737,13.040867639540291,14.559325562405549,13.138309040209379,0.2758599579634222,-13.5,38.07500076293945,0.0,0.0,0.0,0.0,0.0,,,,,
frame_00111.png,1769712245994408802,1769712245.9944086,42.30110726824372,-83.69745290812261,239.13729858398438,0.7078517029832896,0.7062312547664934,0.008967573458473635,0.010147117860158459,-0.023100000000000006,-0.024650000000000002,0.015200000000000002,2.2587,-0.37870000000000004,-8.8518,4.626078745004749,10.348260587850925,15.269999504089355,15.199999809265137,17.600000381469727,18.60999870300293,12.399380386715984,12.342539989121533,14.291362581756935,15.111490531026423,13.536193372155218,0.3080646024750278,-13.5,37.79999923706055,0.0,0.0,0.0,0.0,0.0,,,,,
frame_00112.png,1769712246015342336,1769712246.0153422,42.30110726824372,-83.69745290812261,239.13729858398438,0.7079756914830215,0.7061022505878934,0.008922812131381106,0.010507873596371129,-0.021450000000000004,-0.025860000000000005,0.01675,2.1211,-0.1719,-8.692400000000001,4.670470684070818,10.447562692025375,15.289999961853027,15.639999389648438,19.270000457763672,18.619998931884766,12.415620942824306,12.699823705188903,15.647418041108322,15.119610809080582,13.97061837455053,0.33721316505851673,-13.5,37.20000076293945,0.0,0.0,0.0,0.0,0.0,,,,,
frame_00113.png,1769712246035786019,1769712246.035786,42.301108962853725,-83.69745296850641,239.1419677734375,0.708223873558142,0.7058460998105742,0.009043903644867558,0.010882835630674699,-0.021150000000000002,-0.0061400000000000005,0.031120000000000002,1.7604000000000002,0.3113,-8.6294,4.729666898128877,10.579981071100411,15.769999504089355,15.9399995803833,19.979999542236328,18.229999542236328,12.805384996715986,12.943426626067373,16.22394384389168,14.802927708891678,14.19392079389168,0.3415828155555847,-13.5,36.97500228881836,0.0,0.0,0.0,0.0,0.0,,,,,
frame_00114.png,1769712246056664695,1769712246.0566645,42.301108962853725,-83.69745296850641,239.1419677734375,0.7083218850531583,0.7057467606225668,0.009084047879841243,0.010913161760499656,-0.009810000000000001,0.00101,0.027940000000000003,1.7132,0.4431,-8.3461,4.7469729175520925,10.618693598188978,16.600000381469727,16.119998931884766,20.549999237060547,19.28999900817871,13.479353361756935,13.089587759080583,16.68678885148613,15.663657048431968,14.729846755188905,0.38716185931771174,-13.5,36.45000076293945,0.0,0.0,0.0,0.0,0.0,,,,,
frame_00115.png,1769712246079335551,1769712246.0793355,42.30111068781545,-83.69745303429129,239.14479064941406,0.7086273340952406,0.7054391493922163,0.009280047311789209,0.010806877428263926,-0.00022000000000000003,0.008890000000000002,0.03905,2.4021,0.43660000000000004,-8.969000000000001,4.819514852945445,10.780965555147784,17.260000228881836,16.84000015258789,20.69999885559082,20.309999465942383,14.01527932305416,13.674235388702774,16.808589924729194,16.49190682454029,15.247502865256607,0.41429844917518577,-13.5,36.29999923706055,0.0,0.0,0.0,0.0,0.0,,,,,
frame_00116.png,1769712246097835519,1769712246.0978355,42.30111068781545,-83.69745303429129,239.14479064941406,0.7087699910217882,0.7052971686456123,0.009269242260179378,0.010727761899802688,0.012800000000000002,0.009040000000000001,0.04028,1.8542,0.9121,-9.207600000000001,4.838202169449495,10.822767960928354,17.709999084472656,18.219999313354492,19.65999984741211,20.5,14.380682542783356,14.794807430837517,15.964101141297226,16.64618901,15.446445031229525,0.4272176107806492,-13.5,36.32500076293945,0.0,0.0,0.0,0.0,0.0,,,,,
frame_00117.png,1769712246119151936,1769712246.1191518,42.301112434256446,-83.69745309614129,239.14663696289062,0.709082909552679,0.7049902918043607,0.009338435425951542,0.01014443027995179,0.019090000000000003,0.033060000000000006,0.027400000000000004,1.9871,-0.8270000000000001,-9.329500000000001,4.8895064680147895,10.937532598561004,18.889999389648438,19.709999084472656,19.270000457763672,19.889999389648438,15.338853670188904,16.004700982783355,15.647418041108322,16.150862890188904,15.785458896067372,0.4432376547288357,-13.300000190734863,36.45000076293945,0.0,0.0,0.0,0.0,0.0,,,,,
frame_00118.png,1769712246139232694,1769712246.1392329,42.30111332488592,-83.69745313010863,239.14723205566406,0.7093576215286961,0.7047153058947085,0.009479543706814355,0.009911643051927266,0.006860000000000001,0.016610000000000003,0.04356000000000001,2.5663,0.9231,-10.164900000000001,4.9396052545895355,11.049600578201517,20.35999870300293,20.770000457763672,20.369998931884766,19.239999771118164,16.53250666602642,16.86543187110832,16.540626944080582,15.62305720694584,16.39040567204029,0.4833482492005216,-13.100000381469727,36.275001525878906,0.0,0.0,0.0,0.0,0.0,,,,,
frame_00119.png,1769712246160168445,1769712246.1601684,42.30111421527624,-83.6974531622419,239.14801025390625,0.7095912437182315,0.7044833230471105,0.009448764284084539,0.00970748373256035,0.017370000000000003,0.009930000000000001,0.028440000000000003,1.8265,0.1263,-10.391300000000001,4.979743961670996,11.139388457620319,21.559999465942383,21.100000381469727,19.229999542236328,18.53999900817871,17.506918349540292,17.133394851756936,15.614936928891678,15.05465013343197,16.32747506590522,0.4657424981652196,-12.90000057220459,35.85000228881836,0.0,0.0,0.0,0.0,0.0,,,,,
frame_00120.png,1769712246180570221,1769712246.1805701,42.30111511479423,-83.69745319259457,239.14892578125,0.7098136208235504,0.7042593594831129,0.009580969813888455,0.009569915946442213,-0.0014200000000000003,0.023740000000000004,0.03497,1.502,0.4994,-9.9719,5.010820565504162,11.208904955798882,22.260000228881836,21.279998779296875,18.420000076293945,18.920000076293945,18.075325423054164,17.279555210377808,14.957209894351388,15.363214504351387,16.418826258033686,0.4648019875964308,-12.40000057220459,35.92499923706055,0.0,0.0,0.0,0.0,0.0,,,,,
frame_00121.png,1769712246201755905,1769712246.201756,42.30111602787304,-83.69745322204213,239.150146484375,0.7100279346668175,0.7040460492343407,0.009628683370103062,0.00931563239122059,0.0216,0.015490000000000002,0.026330000000000003,3.0297,1.061,-10.471300000000001,5.064587488803651,11.329178337204441,22.489999771118164,22.1299991607666,18.65999984741211,19.420000076293945,18.262087171945836,17.96976335713474,15.152091921297227,15.769219114351388,16.788290391182297,0.48186301702484563,-12.199999809265137,36.125,0.0,0.0,0.0,0.0,0.0,,,,,
frame_00122.png,1769712246222463576,1769712246.2224634,42.30111694134105,-83.69745325409635,239.15145874023438,0.7102434009136266,0.7038344206294758,0.009416527317443102,0.009096637241078464,0.027150000000000004,-0.0019000000000000002,0.030330000000000006,2.0318,-0.4082,-10.6555,5.110676828596408,11.43227742496045,21.279998779296875,22.35999870300293,18.010000228881836,18.399999618530273,17.279555210377808,18.15652510602642,14.624286238054161,14.940969338243065,16.250333973175366,0.4214432845808571,-11.40000057220459,36.275001525878906,0.0,0.0,0.0,0.0,0.0,,,,,
frame_00123.png,1769712246242545815,1769712246.2425458,42.301117864725185,-83.69745328015924,239.15322875976562,0.7105398560297734,0.7035344812018272,0.009477117421727407,0.009084657320957727,-0.00055,0.005880000000000001,0.03135,2.5183,1.2651000000000001,-10.8778,5.169915157413515,11.564790012224588,19.739999771118164,21.43000030517578,18.209999084472656,17.60999870300293,16.029061816945838,17.401357832405548,14.786687152783356,14.29948131102642,15.62914702829029,0.3514423531918405,-10.90000057220459,36.125,0.0,0.0,0.0,0.0,0.0,,,,,
frame_00124.png,1769712246263887473,1769712246.2638874,42.30111880192192,-83.6974533086984,239.15562438964844,0.7106210859181725,0.7034531025040037,0.00942444385911509,0.009087611562741021,0.007100000000000001,-0.008180000000000002,0.022900000000000004,2.8868,0.3528,-10.425,5.198682243335179,11.629140257406197,19.049999237060547,20.049999237060547,18.28999900817871,17.40999984741211,15.46877502148613,16.28078424148613,14.85164782843197,14.137080396297227,15.184571871925366,0.3057346919738832,-10.300000190734863,35.82500076293945,0.0,0.0,0.0,0.0,0.0,,,,,
frame_00125.png,1769712246283938359,1769712246.2839384,42.301119738848726,-83.69745334210356,239.1580352783203,0.7108820000517738,0.7031839450054456,0.00943117316608456,0.009496023466665214,-0.026620000000000005,-0.008140000000000001,0.025920000000000002,1.6889,0.2046,-10.1242,5.256540575161173,11.758565874201036,18.369998931884766,19.369998931884766,17.279998779296875,17.809999465942383,14.916608504080582,15.728617724080582,14.031518330377809,14.461883774540292,14.784657083269815,0.25735206499188784,-9.800000190734863,35.85000228881836,0.0,0.0,0.0,0.0,0.0,,,,,
frame_00126.png,1769712246304976439,1769712246.3049765,42.301120686715414,-83.69745337000958,239.1608123779297,0.7109793608773124,0.7030831917101414,0.009494293585051047,0.00960376647414562,-0.02416,-0.006550000000000001,0.027860000000000003,2.3965,0.73,-10.068,5.280433244258242,11.812012341411032,18.15999984741211,18.28999900817871,16.959999084472656,18.139999389648438,14.746087311297225,14.85164782843197,13.771675627783356,14.729846755188905,14.524814380675362,0.22966468039943363,-9.199999809265137,35.5,0.0,0.0,0.0,0.0,0.0,,,,,
frame_00127.png,1769712246325551822,1769712246.325552,42.3011216463212,-83.69745339555602,239.1636199951172,0.7112108261116828,0.7028485658640229,0.009462105850282433,0.009670720619561627,0.00801,0.0022400000000000007,0.015950000000000002,1.6593,0.4988,-9.6258,5.33986580447724,11.944959412667318,18.719999313354492,16.619998931884766,18.18000030517578,17.75,15.200812040837517,13.495592369080581,14.762327867405547,14.413163655,14.467973983080912,0.21122002036591286,-8.600000381469727,35.10000228881836,0.0,0.0,0.0,0.0,0.0,,,,,
frame_00128.png,1769712246345934848,1769712246.3459349,42.301122605999126,-83.69745342395456,239.16641235351562,0.7112597943643232,0.7027999364964235,0.009454736880463693,0.009610521940314155,0.009700000000000002,0.007290000000000001,0.014110000000000001,2.3794,0.3027,-9.9062,5.363760007273811,11.998409310671079,19.44999885559082,16.1299991607666,18.049999237060547,16.079999923706055,15.793578399729196,13.097708037134742,14.65676580148613,13.057108195648613,14.15129010849967,0.17943051800323842,-8.100000381469727,34.97500228881836,0.0,0.0,0.0,0.0,0.0,,,,,
frame_00129.png,1769712246367003649,1769712246.3670037,42.30112357463117,-83.69745344281405,239.169189453125,0.7114234531216932,0.7026398393873731,0.009269081703464258,0.009381395336895434,0.03943000000000001,0.0019900000000000004,0.022050000000000004,2.1365000000000003,1.8624,-9.5096,5.411313449878523,12.104783508571263,20.15999984741211,16.100000381469727,16.279998779296875,16.10999870300293,16.370105751297224,13.073348751756935,13.219509110377807,13.08146748102642,13.936107773614598,0.15128930341848698,-7.599999904632568,34.29999923706055,0.0,0.0,0.0,0.0,0.0,,,,,
frame_00130.png,1769712246390023024,1769712246.390023,42.301125541003174,-83.69745347220046,239.17437744140625,0.7115123992789841,0.7025700362718623,0.008718596315801679,0.008332819660806906,0.08762000000000002,0.03431000000000001,0.00888,2.6242,0.0262,-9.8634,5.469712855664306,12.235419475349714,20.389999389648438,16.420000076293945,16.229999542236328,16.869998931884766,16.556867500188904,13.333191454351388,13.178909268891678,13.698594674080582,14.191890724378139,0.15990226186932632,-7.200000286102295,33.20000076293945,0.0,0.0,0.0,0.0,0.0,,,,,
frame_00131.png,1769712246408247105,1769712246.408247,42.301125541003174,-83.69745347220046,239.17437744140625,0.7116218150257716,0.7024708233349087,0.00824162797575947,0.00782370186747601,0.062450000000000006,-0.006170000000000001,0.011540000000000002,3.1188000000000002,0.0541,-10.358500000000001,5.534010672925337,12.379249834693605,20.189998626708984,16.8799991607666,15.90999984741211,16.719999313354492,16.394465036675037,13.706714952134744,12.919066566297225,13.576793600837517,14.149260038986132,0.14298202459182666,-7.0,32.67499923706055,0.0,0.0,0.0,0.0,0.0,,,,,
frame_00132.png,1769712246428981946,1769712246.428982,42.30112653287079,-83.69745348380742,239.1770782470703,0.7116292829985396,0.7024669820086545,0.00805118732459005,0.007686426302348863,0.046380000000000005,-0.00786,0.0015500000000000002,1.6423,-0.058800000000000005,-9.9093,5.550363212839368,12.415829485328898,19.809999465942383,17.229999542236328,16.1299991607666,16.049999237060547,16.08590221454029,13.990918488891678,13.097708037134742,13.03274736148613,14.051819025513211,0.13176643108037786,-6.700000286102295,31.899999618530273,0.0,0.0,0.0,0.0,0.0,,,,,
frame_00133.png,1769712246449620281,1769712246.4496202,42.30112854659475,-83.69745351379532,239.18231201171875,0.711667184598133,0.702429737398511,0.008316093524813908,0.0072886880103302685,-0.016010000000000003,0.030340000000000002,0.004600000000000001,2.5980000000000003,0.22740000000000002,-9.9588,5.5961833411369515,12.518326363122894,19.260000228881836,17.5,16.299999237060547,16.329999923706055,15.639297763054161,14.210161350000002,13.23574966648613,13.260110500648613,14.086329820047228,0.12525663666538014,-6.599999904632568,31.42500114440918,0.0,0.0,0.0,0.0,0.0,,,,,
frame_00134.png,1769712246470901023,1769712246.470901,42.30112854659475,-83.69745351379532,239.18231201171875,0.7116020597384108,0.7024882431572681,0.008657629262977652,0.007604094779172001,-0.06346,-0.017060000000000002,-0.013830000000000002,3.3067,-1.6119,-10.8969,5.668216957118091,12.679461240055742,18.389999389648438,17.40999984741211,16.350000381469727,16.459999084472656,14.932849060188905,14.137080396297227,13.276351056756935,13.365671017783358,13.927987882756605,0.09846843009043926,-6.599999904632568,31.524999618530273,0.0,0.0,0.0,0.0,0.0,,,,,
frame_00135.png,1769712246490963767,1769712246.4909637,42.30113059227043,-83.69745355002968,239.1875457763672,0.7116296468655541,0.7024419059960744,0.009410598092543347,0.008369889255510892,-0.05197,0.0027,-0.006920000000000001,1.9777,0.0375,-8.4528,5.724921541445371,12.80630599292081,16.94999885559082,17.020000457763672,16.729999542236328,16.529998779296875,13.763555349729195,13.820397296108322,13.58491387889168,13.422511415377807,13.64784448502675,0.06571282090019819,-6.599999904632568,31.774999618530273,0.0,0.0,0.0,0.0,0.0,,,,,
frame_00136.png,1769712246512148690,1769712246.5121486,42.30113162347931,-83.69745357062713,239.1899871826172,0.7115746221341644,0.702491101836662,0.009666245011462533,0.008623959781450643,-0.07201000000000002,0.0009100000000000001,-0.014880000000000003,1.6296000000000002,-0.4451,-9.139700000000001,5.7410472900274705,12.842378324954051,16.869998931884766,16.8799991607666,16.60999870300293,16.690000534057617,13.698594674080582,13.706714952134744,13.487472091026422,13.55243431545971,13.611304008175363,0.059874087475464785,-6.5,31.475000381469727,0.0,0.0,0.0,0.0,0.0,,,,,
frame_00137.png,1769712246553435144,1769712246.553435,42.301133715139265,-83.69745360477212,239.19419860839844,0.7115887441152264,0.7024551475473474,0.010438029770963388,0.009448410831991154,-0.035500000000000004,0.0024400000000000003,0.0025200000000000005,0.9652000000000001,0.9921000000000001,-8.0432,5.836261233590995,13.055366203869042,17.03999900817871,17.19999885559082,16.729999542236328,16.84000015258789,13.83663630343197,13.966557654729193,13.58491387889168,13.674235388702774,13.765585806438905,0.0544005883465287,-6.400000095367432,31.475000381469727,0.0,0.0,0.0,0.0,0.0,,,,,
frame_00138.png,1769712246573897844,1769712246.5738978,42.301134769277155,-83.69745361896892,239.19589233398438,0.7115908446974942,0.702451581931232,0.010557664695909056,0.00942234053647184,-0.013080000000000001,0.020640000000000002,0.0010400000000000001,2.4222,0.46640000000000004,-8.6311,5.860290883695733,13.109119089374333,17.350000381469727,17.44999885559082,17.10999870300293,16.84000015258789,14.088360276756935,14.169559959729195,13.89347670102642,13.674235388702774,13.956408081553832,0.06463355671749699,-6.400000095367432,31.600000381469727,0.0,0.0,0.0,0.0,0.0,,,,,
frame_00139.png,1769712246594885824,1769712246.5948858,42.30113583071405,-83.69745363428848,239.197509765625,0.7116295272960371,0.7024095153402418,0.01072703753848344,0.0094455971517592,-0.021040000000000003,0.00986,0.00034,1.9755,-0.4445,-9.9969,5.921293723516006,13.245578781881894,17.35999870300293,17.44999885559082,16.729999542236328,16.8799991607666,14.09647900602642,14.169559959729195,13.58491387889168,13.706714952134744,13.88941694919551,0.048607779087335684,-6.300000190734863,31.625,0.0,0.0,0.0,0.0,0.0,,,,,
frame_00140.png,1769712246615047587,1769712246.6150477,42.30113690237983,-83.69745364077873,239.1986846923828,0.7117229033270625,0.7023148510196301,0.010911759980716505,0.009235389060287983,0.020110000000000003,0.04064000000000001,0.0077800000000000005,2.0783,1.5094,-9.9291,5.949536582348884,13.308756362519514,17.270000457763672,17.299999237060547,17.049999237060547,17.170000076293945,14.023399601108322,14.04775888648613,13.844756581486129,13.942198369351386,13.964528359607993,0.04927372469867148,-6.099999904632568,31.42500114440918,0.0,0.0,0.0,0.0,0.0,,,,,
frame_00141.png,1769712246636381001,1769712246.636381,42.30113690237983,-83.69745364077873,239.1986846923828,0.7117115164552599,0.7023279906860588,0.0109138170363237,0.009110402929364311,0.0175,0.01793,-0.0032500000000000007,2.6906000000000003,-0.5039,-9.8398,5.976250350720422,13.36851345954054,17.420000076293945,17.270000457763672,17.35999870300293,17.190000534057617,14.145200674351388,14.023399601108322,14.09647900602642,13.95843892545971,14.05587955173646,0.05141679321909762,-6.0,31.600000381469727,0.0,0.0,0.0,0.0,0.0,,,,,
frame_00142.png,1769712246656684625,1769712246.6566846,42.301139058289706,-83.69745366557979,239.20143127441406,0.7118322088831124,0.702202933597469,0.011148218778137544,0.00903679488382211,0.00102,0.021150000000000002,0.012250000000000002,1.1868,1.9125,-10.2133,6.018509287490613,13.463044165559253,17.219999313354492,17.329999923706055,17.3799991607666,17.28999900817871,13.982798210837517,14.072119720648613,14.112719562134744,14.03963860843197,14.051819025513211,0.04373266942554816,-5.900000095367432,31.55000114440918,0.0,0.0,0.0,0.0,0.0,,,,,
frame_00143.png,1769712246677096097,1769712246.6770961,42.301140149216195,-83.69745367112324,239.20303344726562,0.7118351784788768,0.7022042154515417,0.01115769592925624,0.008684716666699569,0.028390000000000006,0.028880000000000003,0.00022000000000000003,2.3884000000000003,0.039900000000000005,-10.0238,6.059119960751151,13.55388780500268,17.440000534057617,17.469999313354492,17.600000381469727,17.520000457763672,14.161441230459708,14.185800515837517,14.291362581756935,14.226401906108324,14.21625155854062,0.04886891223147539,-5.5,31.67500114440918,0.0,0.0,0.0,0.0,0.0,,,,,
frame_00144.png,1769712246697968888,1769712246.697969,42.301140149216195,-83.69745367112324,239.20303344726562,0.7118567663700976,0.7021832318823339,0.011134042351273698,0.00864211416892477,0.009390000000000003,0.0025700000000000007,0.0060300000000000015,3.0250000000000004,-0.7452000000000001,-10.2193,6.08899461900822,13.62071562304425,17.579999923706055,17.420000076293945,17.369998931884766,17.270000457763672,14.275122025648614,14.145200674351388,14.104599284080582,14.023399601108322,14.137080396297225,0.037910252848929786,-5.300000190734863,31.524999618530273,0.0,0.0,0.0,0.0,0.0,,,,,
frame_00145.png,1769712246719160393,1769712246.7191603,42.30114234401435,-83.69745368141416,239.20703125,0.7119801063079669,0.7020612999078237,0.010871781743252998,0.008721453729711292,0.026870000000000005,-0.0026000000000000003,0.006060000000000001,0.7307,1.8977000000000002,-11.622200000000001,6.123095503841957,13.696997256364227,17.56999969482422,17.28999900817871,17.69999885559082,17.56999969482422,14.267001747594453,14.03963860843197,14.372562264729195,14.267001747594453,14.236551092087517,0.03939212556040989,-5.0,31.475000381469727,0.0,0.0,0.0,0.0,0.0,,,,,
frame_00146.png,1769712246739137554,1769712246.7391376,42.301143454766766,-83.69745368484263,239.21023559570312,0.7119190205857922,0.7021290999593445,0.010605587398574791,0.008576516447730392,0.019370000000000002,-0.01785,-0.00867,2.6877,-1.5525,-11.157200000000001,6.169497327341594,13.800795351423506,17.6299991607666,17.709999084472656,17.489999771118164,17.489999771118164,14.315721867134743,14.380682542783356,14.202041071945839,14.202041071945839,14.275121638452443,0.03436948921788134,-4.599999904632568,31.649999618530273,0.0,0.0,0.0,0.0,0.0,,,,,
frame_00147.png,1769712246759883755,1769712246.7598839,42.301144565335335,-83.69745368855779,239.21302795410156,0.7120111611072455,0.7020330779586182,0.010550527299188211,0.008851569599219872,-0.020150000000000005,-0.017230000000000002,0.01837,1.4797,0.3128,-9.0525,6.205011976082412,13.880239489777791,17.889999389648438,17.81999969482422,17.510000228881836,17.670000076293945,14.526844450188904,14.470004052594453,14.21828162805416,14.348202979351388,14.390833277547227,0.03678566123772333,-4.5,31.625,0.0,0.0,0.0,0.0,0.0,,,,,
frame_00148.png,1769712246780878170,1769712246.780878,42.301145685522094,-83.69745369061259,239.21633911132812,0.7120545749089292,0.7019874195362124,0.010531928452381874,0.009001313639002365,0.0006500000000000001,-0.009900000000000003,0.00021000000000000004,1.407,1.9741000000000002,-8.5166,6.233174099444688,13.9432364700118,17.760000228881836,17.869998931884766,17.78999900817871,17.75,14.421283933054161,14.510603894080583,14.445643218431968,14.413163655,14.447673675141678,0.03617791365833803,-4.300000190734863,31.42500114440918,0.0,0.0,0.0,0.0,0.0,,,,,
frame_00149.png,1769712246801264370,1769712246.8012643,42.30114794230718,-83.69745369790655,239.2222442626953,0.712090813311569,0.7019534188924503,0.01023000607367217,0.009133360728722902,-0.013580000000000002,-0.031580000000000004,0.011410000000000002,1.1404,-0.9984000000000001,-11.778,6.281736124459174,14.051866806247705,17.989999771118164,17.899999618530273,17.940000534057617,17.75,14.60804568194584,14.534964728243066,14.56744584045971,14.413163655,14.530904976412154,0.03409071383678787,-4.099999904632568,31.700000762939453,0.0,0.0,0.0,0.0,0.0,,,,,
frame_00150.png,1769712246821854723,1769712246.8218548,42.30114794230718,-83.69745369790655,239.2222442626953,0.7121695628443527,0.7018724572758569,0.010262591865577167,0.009178599230530911,-0.010690000000000002,-0.0019400000000000003,0.023680000000000003,1.4635,0.8663000000000001,-10.5595,6.296106654046049,14.08401281870177,18.0,18.049999237060547,18.139999389648438,17.84000015258789,14.61616596,14.65676580148613,14.729846755188905,14.486244608702776,14.622255781344453,0.03821659136293631,-4.0,31.67500114440918,0.0,0.0,0.0,0.0,0.0,,,,,
frame_00151.png,1769712246842761391,1769712246.8427615,42.30114907848114,-83.69745370130093,239.22543334960938,0.7122454639223732,0.7017977968168271,0.010056202626794956,0.00922628277150756,0.016910000000000005,-0.01429,0.007480000000000001,1.1113,0.9746,-8.4231,6.328190937844934,14.155783436502848,18.170000076293945,18.079999923706055,18.19999885559082,18.119998931884766,14.754207589351388,14.681126635648614,14.778566874729195,14.713606199080584,14.731876824702447,0.04069667996714715,-3.9000000953674316,31.375,0.0,0.0,0.0,0.0,0.0,,,,,
frame_00152.png,1769712246863319690,1769712246.8633199,42.30115136918271,-83.69745370369397,239.23223876953125,0.7123538352007289,0.7016971835355237,0.009557746064255543,0.009040220312435832,0.04107,-0.029100000000000004,0.009430000000000001,2.5039000000000002,0.648,-11.493400000000001,6.381404308570791,14.274818554014345,18.149999618530273,18.079999923706055,18.28999900817871,18.270000457763672,14.737967033243065,14.681126635648614,14.85164782843197,14.835408821108322,14.776537579607993,0.03514713855697696,-3.9000000953674316,31.80000114440918,0.0,0.0,0.0,0.0,0.0,,,,,
frame_00153.png,1769712246883919470,1769712246.8839195,42.30115136918271,-83.69745370369397,239.23223876953125,0.712423224905703,0.7016355594638374,0.00901875169666181,0.00890799801638993,0.048080000000000005,-0.019650000000000004,0.011810000000000003,0.5233,0.3104,-10.4297,6.3969333177664165,14.309556015844409,18.31999969482422,18.239999771118164,18.34000015258789,18.329999923706055,14.876008662594453,14.811047986945841,14.892249218702775,14.884128940648614,14.865858702222921,0.038876306557837276,-3.700000047683716,31.399999618530273,0.0,0.0,0.0,0.0,0.0,,,,,
frame_00154.png,1769712246904872749,1769712246.9048727,42.301152522131815,-83.69745369868005,239.2357940673828,0.7124498310447605,0.7016129293538736,0.008837283229006784,0.008742884701232542,0.049030000000000004,-0.00272,0.006920000000000001,1.2398,0.092,-9.5204,6.409202140100506,14.337000635276427,18.31999969482422,18.479999542236328,18.5,18.479999542236328,14.876008662594453,15.005930013891678,15.02217057,15.005930013891678,14.977509815094452,0.04467525642999846,-3.6000001430511475,31.575000762939453,0.0,0.0,0.0,0.0,0.0,,,,,
frame_00155.png,1769712246926349722,1769712246.9263499,42.30115483829712,-83.69745370447366,239.24342346191406,0.7125818525898789,0.7014858607788763,0.008420763305662002,0.008589600237799302,0.0148,-0.012310000000000001,0.018730000000000004,0.8381000000000001,0.2873,-9.744100000000001,6.449600404668904,14.42736912922006,18.5,18.549999237060547,18.440000534057617,18.389999389648438,15.02217057,15.06277041148613,14.97345045045971,14.932849060188905,14.997810123033686,0.03953880909987256,-3.299999952316284,31.5,0.0,0.0,0.0,0.0,0.0,,,,,
frame_00156.png,1769712246945971394,1769712246.9459715,42.30115483829712,-83.69745370447366,239.24342346191406,0.712661122310397,0.7014072824784683,0.008346264708169708,0.008502276099770133,0.008040000000000002,-0.0017600000000000003,0.010490000000000001,1.258,-0.0641,-10.2438,6.472052318190781,14.477592712653687,18.60999870300293,18.65999984741211,18.529998779296875,18.510000228881836,15.111490531026423,15.152091921297227,15.046529855377807,15.030290848054163,15.085100788938906,0.0419619537821537,-3.1000001430511475,31.325000762939453,0.0,0.0,0.0,0.0,0.0,,,,,
frame_00157.png,1769712246966814189,1769712246.9668143,42.30115600396361,-83.69745370480909,239.2468719482422,0.7127195655126272,0.7013480955026525,0.008408066805490576,0.008424623605159805,0.00248,0.019530000000000002,0.016730000000000002,1.498,-0.4434,-9.381400000000001,6.487065691639409,14.511176728255862,18.779998779296875,18.81999969482422,18.56999969482422,18.489999771118164,15.249532160377807,15.282013272594453,15.079010967594453,15.01405029194584,15.156151673128136,0.04444677071683596,-3.0,31.42500114440918,0.0,0.0,0.0,0.0,0.0,,,,,
frame_00158.png,1769712246988120389,1769712246.9881203,42.3011583482369,-83.6974537166461,239.25314331054688,0.712897264144031,0.7011669327915951,0.008620582582812265,0.008252799010959619,0.0010600000000000002,0.01997,0.008290000000000002,1.1835,0.039,-8.2971,6.526104580513428,14.598504380333708,18.90999984741211,19.010000228881836,18.760000228881836,18.690000534057617,15.355094226297227,15.436295458054161,15.233293153054163,15.17645275545971,15.300283898216314,0.04807201474885363,-2.9000000953674316,31.200000762939453,0.0,0.0,0.0,0.0,0.0,,,,,
frame_00159.png,1769712247008168803,1769712247.0081687,42.3011583482369,-83.6974537166461,239.25314331054688,0.7129945507014251,0.7010661465522345,0.008869248931590306,0.008146487087294534,-0.010540000000000002,0.018780000000000005,0.022800000000000004,1.0337,0.5886,-9.8171,6.547968369399322,14.64741236424412,18.760000228881836,18.850000381469727,18.719999313354492,18.649999618530273,15.233293153054163,15.306374106756934,15.200812040837517,15.143971643243065,15.22111273597292,0.039167353076592734,-2.700000047683716,31.05000114440918,0.0,0.0,0.0,0.0,0.0,,,,,
frame_00160.png,1769712247028814698,1769712247.0288146,42.30115952745943,-83.69745371506208,239.25555419921875,0.7130635109444579,0.7009962062628877,0.009013527460800584,0.007968970279486261,0.005090000000000001,0.04526,0.020060000000000005,1.6005,0.9865,-9.7562,6.563931282339602,14.68312044271675,18.85999870300293,18.760000228881836,18.84000015258789,18.899999618530273,15.314492836026421,15.233293153054163,15.298253828702775,15.346973948243065,15.298253441506606,0.04189388769163034,-2.700000047683716,31.350000381469727,0.0,0.0,0.0,0.0,0.0,,,,,
frame_00161.png,1769712247049642120,1769712247.0496423,42.30116190012482,-83.69745371630708,239.26068115234375,0.7132012226194271,0.7008638391245593,0.009047278927975747,0.007214000674900862,0.049580000000000006,0.03878000000000001,0.014970000000000002,1.6417000000000002,0.3783,-9.4349,6.603329878744304,14.771252738958285,19.06999969482422,18.779998779296875,18.90999984741211,18.84000015258789,15.485015577594451,15.249532160377807,15.355094226297227,15.298253828702775,15.346973948243065,0.03897578759629165,-2.700000047683716,30.950000762939453,0.0,0.0,0.0,0.0,0.0,,,,,
frame_00162.png,1769712247072390121,1769712247.07239,42.30116309367778,-83.69745370805423,239.2633056640625,0.7132566878087448,0.7008116782345508,0.008999406618466665,0.0068483302115468925,0.019600000000000003,0.014350000000000002,0.012650000000000002,1.6675,-0.34840000000000004,-11.515,6.638762792138589,14.850514040246496,18.939998626708984,18.94999885559082,19.079999923706055,18.90999984741211,15.379453511675035,15.387573789729194,15.493135855648614,15.355094226297227,15.403814345837517,0.037257990133642345,-2.5,31.075000762939453,0.0,0.0,0.0,0.0,0.0,,,,,
frame_00163.png,1769712247090840167,1769712247.09084,42.30116429898008,-83.69745370427168,239.266845703125,0.7133951958620075,0.7006751571521223,0.008852040659666459,0.006577237035144233,0.028200000000000003,-0.00922,0.008650000000000001,2.3124000000000002,1.2492,-9.9443,6.654321051046402,14.88531693192774,19.06999969482422,18.94999885559082,19.139999389648438,18.899999618530273,15.485015577594451,15.387573789729194,15.541855975188904,15.346973948243065,15.440354822688903,0.037287609884251366,-2.299999952316284,31.024999618530273,0.0,0.0,0.0,0.0,0.0,,,,,
frame_00164.png,1769712247111674673,1769712247.1116745,42.30116550321961,-83.69745370545967,239.27001953125,0.713428321179044,0.7006443192528201,0.008693525570345959,0.006480050274560753,0.03615000000000001,-0.009130000000000001,0.008950000000000001,1.9837,0.5985,-9.6128,6.718452429166494,15.0287749768997,19.219999313354492,19.100000381469727,19.119998931884766,19.010000228881836,15.606816650837517,15.509376411756936,15.525615419080582,15.436295458054161,15.519525984932299,0.03265409248504414,-2.1000001430511475,30.700000762939453,0.0,0.0,0.0,0.0,0.0,,,,,
frame_00165.png,1769712247153009094,1769712247.1530092,42.30116793953502,-83.69745369028513,239.2767333984375,0.7135901135540419,0.7004950897102052,0.00766050231961934,0.006090634944925692,0.03940000000000001,-0.01729,0.01152,1.973,-0.7209,-9.225200000000001,6.792792968147851,15.195070302168656,19.25,19.329999923706055,19.28999900817871,19.309999465942383,15.631177485000002,15.696138160648614,15.663657048431968,15.679897604540292,15.667717574655219,0.031105303436411654,-1.5,31.125,0.0,0.0,0.0,0.0,0.0,,,,,
frame_00166.png,1769712247173576572,1769712247.1735764,42.3011691609899,-83.69745368912575,239.2801055908203,0.7136280853634422,0.7004577421535806,0.007483847475898193,0.006156237858726137,0.015520000000000003,-0.034460000000000005,0.010320000000000001,1.7154,-0.9058,-9.6233,6.8096285721845184,15.232730538262437,19.399999618530273,19.309999465942383,19.389999389648438,19.3799991607666,15.752978558243067,15.679897604540292,15.744858280188904,15.736738002134743,15.728618111276752,0.032554082918273664,-1.100000023841858,31.125,0.0,0.0,0.0,0.0,0.0,,,,,
frame_00167.png,1769712247194540665,1769712247.1945405,42.3011691609899,-83.69745368912575,239.2801055908203,0.7137192024188258,0.7003655527428394,0.007291374333906786,0.00631098171245459,0.0033200000000000005,-0.019090000000000003,0.014130000000000002,0.7994,0.2555,-9.5927,6.825949758397681,15.26924005255011,19.65999984741211,19.329999923706055,19.489999771118164,19.5,15.964101141297226,15.696138160648614,15.82605951194584,15.83417979,15.83011965097292,0.036732646581788306,-0.800000011920929,31.325000762939453,0.0,0.0,0.0,0.0,0.0,,,,,
frame_00168.png,1769712247236285604,1769712247.2362857,42.30117286192525,-83.69745369080185,239.28927612304688,0.7139142812549311,0.7001566254295745,0.0075043756972310305,0.007126235522399625,-0.039420000000000004,-0.008380000000000002,0.010720000000000002,0.48310000000000003,0.15990000000000001,-9.6233,6.886538575873504,15.404773601914478,19.579999923706055,19.600000381469727,19.619998931884766,19.56999969482422,15.899140465648614,15.915381021756936,15.931620029080582,15.891020187594453,15.909290426020146,0.032750680869660265,-0.20000000298023224,31.125,0.0,0.0,0.0,0.0,0.0,,,,,
frame_00169.png,1769712247256536383,1769712247.2565362,42.30117286192525,-83.69745369080185,239.28927612304688,0.713945024152686,0.7001225734428589,0.00764898615264041,0.007237240786779578,-0.036000000000000004,0.004980000000000001,0.009130000000000001,0.6894,0.4693,-9.1845,6.893384892850574,15.420088402213164,19.779998779296875,19.78999900817871,19.549999237060547,19.549999237060547,16.061541380377808,16.06966165843197,15.874779631486131,15.874779631486131,15.97019057544551,0.03567438518403003,-0.10000000149011612,31.200000762939453,0.0,0.0,0.0,0.0,0.0,,,,,
frame_00170.png,1769712247277700673,1769712247.2777007,42.30117535236406,-83.69745369168355,239.29441833496094,0.7140209088953005,0.7000422940671708,0.007901625268788707,0.007245170502720957,-0.0002800000000000001,0.0083,0.009270000000000002,1.2723,0.5834,-9.3589,6.9346271942262065,15.512344955852372,19.729999542236328,19.739999771118164,19.68000030517578,19.689998626708984,16.020941538891677,16.029061816945838,15.980341697405548,15.988460426675033,16.004701369979525,0.03173965093790677,0.0,31.024999618530273,0.0,0.0,0.0,0.0,0.0,,,,,
frame_00171.png,1769712247297760008,1769712247.29776,42.301176597712846,-83.69745369397972,239.29702758789062,0.7140697481950469,0.6999944847458165,0.007961767170662808,0.0069804227394334095,0.020050000000000005,0.0335,0.010540000000000002,0.5479,0.4918,-10.1426,6.945157539641697,15.535900706726098,19.78999900817871,19.78999900817871,19.739999771118164,19.779998779296875,16.06966165843197,16.06966165843197,16.029061816945838,16.061541380377808,16.057481628546896,0.03357262199770528,0.0,31.399999618530273,0.0,0.0,0.0,0.0,0.0,,,,,
frame_00172.png,1769712247318813902,1769712247.318814,42.301176597712846,-83.69745369397972,239.29702758789062,0.7141066811701574,0.6999586597152279,0.008003753601749217,0.006742590458224234,0.028200000000000003,0.039150000000000004,0.010610000000000003,1.2276,0.1773,-9.5686,6.95728413919113,15.563027182322207,19.809999465942383,19.899999618530273,19.889999389648438,19.81999969482422,16.08590221454029,16.158983168243065,16.150862890188904,16.094022492594455,16.122442691391676,0.03594516044442176,0.0,31.225000381469727,0.0,0.0,0.0,0.0,0.0,,,,,
frame_00173.png,1769712247339594490,1769712247.3395946,42.3011791127036,-83.69745369129504,239.30166625976562,0.7141680548828614,0.6998973959577279,0.008176506514740337,0.006385080863697533,0.0034700000000000004,0.01725,0.007700000000000001,1.0190000000000001,0.5603,-10.1178,7.00775033114359,15.675917025748342,19.85999870300293,19.899999618530273,19.799999237060547,19.899999618530273,16.12650205602642,16.158983168243065,16.07778193648613,16.158983168243065,16.13056258224967,0.02900280447737467,0.10000000149011612,31.200000762939453,0.0,0.0,0.0,0.0,0.0,,,,,
frame_00174.png,1769712247359823977,1769712247.359824,42.30118164122575,-83.6974536892133,239.30751037597656,0.7141919940046295,0.6998712224064542,0.008397173120519318,0.0062892949184292736,-0.015190000000000002,0.007910000000000002,0.00632,1.6669,0.3673,-12.3903,7.048578860418682,15.767247996024969,19.899999618530273,19.8799991607666,19.869998931884766,20.0,16.158983168243065,16.142742612134743,16.134622334080582,16.2401844,16.169133128614597,0.02548860350842114,0.20000000298023224,31.200000762939453,0.0,0.0,0.0,0.0,0.0,,,,,
frame_00175.png,1769712247380708017,1769712247.380708,42.30118164122575,-83.6974536892133,239.30751037597656,0.7142165416597933,0.6998456890965095,0.008411810007977957,0.00632333179154407,-0.006910000000000001,-0.0027500000000000003,0.007060000000000001,1.5806,0.8520000000000001,-11.6137,7.064050325621493,15.801856735395745,20.020000457763672,19.959999084472656,19.959999084472656,20.119998931884766,16.256424956108322,16.207703287783357,16.207703287783357,16.337624639080584,16.252364042688907,0.028509770391984192,0.30000001192092896,30.850000381469727,0.0,0.0,0.0,0.0,0.0,,,,,
frame_00176.png,1769712247402016365,1769712247.4020162,42.30118291645814,-83.69745369031399,239.3117218017578,0.7142184754741432,0.6998429483433767,0.008371860209585885,0.006459791178639054,-0.011070000000000002,-0.02109,0.00109,1.5071,-0.2283,-10.529900000000001,7.0965450612910885,15.874545509404488,19.989999771118164,20.10999870300293,20.3799991607666,20.10999870300293,16.23206412194584,16.32950436102642,16.548747222134743,16.32950436102642,16.359955016533355,0.030577852250402916,0.5,31.600000381469727,0.0,0.0,0.0,0.0,0.0,,,,,
frame_00177.png,1769712247421927985,1769712247.421928,42.30118419085898,-83.69745368840994,239.31593322753906,0.7142053644030516,0.6998557646939507,0.008223798708430123,0.0067063564886666585,0.0068800000000000016,-0.03125000000000001,-0.00604,1.9278000000000002,0.8377,-10.6727,7.139962374173691,15.971667433284097,20.15999984741211,20.3799991607666,20.34000015258789,20.31999969482422,16.370105751297224,16.548747222134743,16.516267658702777,16.50002710259445,16.483786933682296,0.03206424767716926,0.6000000238418579,31.100000381469727,0.0,0.0,0.0,0.0,0.0,,,,,
frame_00178.png,1769712247442742771,1769712247.4427428,42.30118547539977,-83.69745368300964,239.32061767578125,0.7141950277791483,0.6998675919388833,0.008035197757548353,0.006800856284857398,0.012990000000000002,-0.04018,-0.0036300000000000004,1.6081,0.2737,-10.9258,7.155809528786021,16.0071165673226,20.28999900817871,20.31999969482422,20.270000457763672,20.44999885559082,16.47566626843197,16.50002710259445,16.459427261108324,16.605587619729196,16.510177062965987,0.03142730257055465,0.800000011920929,31.5,0.0,0.0,0.0,0.0,0.0,,,,,
frame_00179.png,1769712247463872716,1769712247.4638727,42.30118676472842,-83.69745367541367,239.32583618164062,0.7142044080498496,0.6998618829109884,0.007618857558149097,0.006881960473488132,0.030390000000000004,-0.029370000000000004,-0.00058,0.993,1.0719,-10.1964,7.174178691367072,16.04820728186666,20.299999237060547,20.44999885559082,20.489999771118164,20.489999771118164,16.48378654648613,16.605587619729196,16.63806873194584,16.63806873194584,16.59137790752675,0.03384618706126967,0.800000011920929,31.200000762939453,0.0,0.0,0.0,0.0,0.0,,,,,
frame_00180.png,1769712247484100204,1769712247.4841,42.30118805498825,-83.69745367160664,239.33094787597656,0.7141643654567359,0.6999097567304398,0.006929307800702815,0.006897553096382511,0.022980000000000004,-0.022700000000000005,0.0043100000000000005,0.8963000000000001,0.3663,-9.5877,7.20144237022499,16.109194495651092,20.44999885559082,20.270000457763672,20.510000228881836,20.469999313354492,16.605587619729196,16.459427261108324,16.65430928805416,16.621828175837518,16.585288086182302,0.029554152484765055,1.100000023841858,31.17500114440918,0.0,0.0,0.0,0.0,0.0,,,,,
frame_00181.png,1769712247504891004,1769712247.504891,42.301189352278975,-83.69745365820214,239.3362274169922,0.714169550210383,0.6999063696345444,0.006764448070973928,0.0068680084148799924,0.0273,-0.019430000000000003,0.0010600000000000002,1.4239000000000002,0.3138,-9.1111,7.215620601134778,16.14091034750243,20.69999885559082,20.689998626708984,20.6299991607666,20.43000030517578,16.808589924729194,16.800469646675033,16.75174952713474,16.589348612405548,16.73753942773613,0.036963781310266695,1.2000000476837158,31.075000762939453,0.0,0.0,0.0,0.0,0.0,,,,,
frame_00182.png,1769712247525803618,1769712247.5258036,42.30119065210774,-83.69745365039948,239.34085083007812,0.7141625326766627,0.6999175072737941,0.006454841064871241,0.0067598046806210755,0.02857,-0.007150000000000001,0.0020700000000000002,0.7589,0.2585,-8.3495,7.231101170231266,16.17553945173713,20.68000030517578,20.549999237060547,20.760000228881836,20.53999900817871,16.79235091740555,16.68678885148613,16.857311593054163,16.67866857343197,16.753779983844453,0.03574783603555331,1.3000000715255737,31.0,0.0,0.0,0.0,0.0,0.0,,,,,
frame_00183.png,1769712247546005305,1769712247.5460052,42.30119195363796,-83.69745363930367,239.34515380859375,0.7141747217402954,0.6999138208444079,0.005985611361018717,0.006267589232588765,0.06599000000000001,-0.012100000000000001,-0.005190000000000001,1.4573,1.8914000000000002,-8.4552,7.272688095214725,16.268566907709626,20.489999771118164,20.770000457763672,20.69999885559082,20.600000381469727,16.63806873194584,16.86543187110832,16.808589924729194,16.727390241756936,16.759870192385073,0.030199542926096272,1.3000000715255737,30.950000762939453,0.0,0.0,0.0,0.0,0.0,,,,,
frame_00184.png,1769712247566877168,1769712247.5668771,42.301193260383236,-83.69745362161018,239.34893798828125,0.714167242720231,0.6999269285510757,0.005654731058670409,0.005955512664242705,0.09097000000000001,-0.0035200000000000006,-0.0029700000000000004,0.6406000000000001,1.1143,-9.0408,7.279081378701722,16.28286829927303,20.850000381469727,20.81999969482422,20.619998931884766,20.6299991607666,16.930392546756934,16.90603171259445,16.743629249080584,16.75174952713474,16.832950758891677,0.03378289681574136,1.3000000715255737,30.950000762939453,0.0,0.0,0.0,0.0,0.0,,,,,
frame_00185.png,1769712247587794690,1769712247.5877948,42.30119457231534,-83.69745360229707,239.3521270751953,0.714148348260399,0.6999564518911926,0.005063535247863435,0.00524049078141285,0.08881,0.00903,-0.0005000000000000001,0.8625,0.1257,-9.2672,7.298270139532303,16.32579240592539,20.600000381469727,20.78999900817871,20.619998931884766,20.75,16.727390241756936,16.88167087843197,16.743629249080584,16.849191315,16.800470421067374,0.029075343073068843,1.100000023841858,30.67500114440918,0.0,0.0,0.0,0.0,0.0,,,,,
frame_00186.png,1769712247608281787,1769712247.6082819,42.30119588232163,-83.69745357722623,239.35491943359375,0.7141302269974854,0.6999896670993496,0.00431699843866283,0.0037213394285584406,0.10989000000000002,0.04325000000000001,-0.0028400000000000005,1.8952,-0.4662,-8.4742,7.324957901864259,16.38549132899624,20.75,20.829999923706055,20.739999771118164,20.760000228881836,16.849191315,16.914151990648616,16.84107103694584,16.857311593054163,16.865431483912154,0.029290556217047927,1.100000023841858,30.975000381469727,0.0,0.0,0.0,0.0,0.0,,,,,
frame_00187.png,1769712247628956260,1769712247.628956,42.30119720061948,-83.69745355229043,239.35755920410156,0.7140923802586456,0.7000328346399333,0.00402414927712476,0.003147873110066644,0.04259,0.01081,-0.0029600000000000004,1.7737,-2.0414,-10.749,7.36283073814869,16.470210591394334,20.979999542236328,20.739999771118164,20.829999923706055,20.850000381469727,17.03595306389168,16.84107103694584,16.914151990648616,16.930392546756934,16.930392159560768,0.02794023583443904,0.9000000357627869,30.80000114440918,0.0,0.0,0.0,0.0,0.0,,,,,
frame_00188.png,1769712247649679099,1769712247.6496792,42.30119984266611,-83.6974535221991,239.36199951171875,0.7142027692599671,0.6999199671003967,0.004152096285692006,0.0030338312425022365,-0.014520000000000002,0.02253,0.01641,0.6737000000000001,-1.1396,-10.0838,7.376939641766148,16.501771362252367,20.899999618530273,20.93000030517578,20.920000076293945,20.85999870300293,16.970992388243065,16.995353222405548,16.987232944351387,16.93851127602642,16.973022457756606,0.02855760664471584,0.9000000357627869,31.30000114440918,0.0,0.0,0.0,0.0,0.0,,,,,
frame_00189.png,1769712247670841758,1769712247.670842,42.30120117665708,-83.69745351300024,239.3648223876953,0.7142081656741708,0.6999116062786602,0.004522389492731943,0.0031602965110796915,-0.033870000000000004,0.010020000000000001,-0.0027300000000000007,2.5167,0.4451,-9.9186,7.4182742888258,16.594234487645988,21.100000381469727,20.869998931884766,21.059999465942383,21.010000228881836,17.133394851756936,16.946631554080582,17.100913739540292,17.06031389805416,17.06031351085799,0.028086804700692178,0.800000011920929,30.875,0.0,0.0,0.0,0.0,0.0,,,,,
frame_00190.png,1769712247691071312,1769712247.6910713,42.30120251224279,-83.69745350601723,239.36822509765625,0.7143042764962377,0.6998095380361594,0.004619024137047849,0.0038308835566756845,-0.04034000000000001,-0.02135,0.0061600000000000005,0.08080000000000001,0.0572,-11.6696,7.447763106094867,16.660199202547854,21.09000015258789,20.869998931884766,21.079999923706055,21.020000457763672,17.125274573702775,16.946631554080582,17.117154295648614,17.068434176108322,17.064373649885074,0.024259880834762673,0.699999988079071,30.875,0.0,0.0,0.0,0.0,0.0,,,,,
frame_00191.png,1769712247711726507,1769712247.7117267,42.301203850701654,-83.69745349474921,239.3712615966797,0.714306925599221,0.6998057314817838,0.004707867767716265,0.003923035472206039,-0.025510000000000005,-0.00022000000000000003,0.0007600000000000002,0.9784,0.8021,-10.6216,7.457411270667189,16.68178156780626,21.0,21.170000076293945,21.1299991607666,21.19999885559082,17.05219362,17.190235249351385,17.157754137134745,17.214594534729194,17.15369438530383,0.028289113820330815,0.699999988079071,31.0,0.0,0.0,0.0,0.0,0.0,,,,,
frame_00192.png,1769712247732777313,1769712247.732777,42.301205197248024,-83.69745348617579,239.37535095214844,0.714302146342973,0.6998112612299627,0.004518721044729069,0.004027846281914617,0.012700000000000001,-0.031100000000000003,-0.0015400000000000001,2.0463,-0.5159,-10.0165,7.494080570245429,16.76380859080481,20.969999313354492,21.1299991607666,21.18000030517578,21.19999885559082,17.027832785837518,17.157754137134745,17.19835552740555,17.214594534729194,17.149634246276754,0.023015393750294596,0.699999988079071,30.975000381469727,0.0,0.0,0.0,0.0,0.0,,,,,
frame_00193.png,1769712247753100661,1769712247.7531006,42.30120654543097,-83.69745347982592,239.3791961669922,0.7143762446958457,0.6997373635475076,0.004044960288443806,0.004223904131153314,0.018630000000000004,-0.020180000000000003,0.0029400000000000003,0.5044000000000001,-0.2152,-10.3574,7.515522637917996,16.81177320966428,21.43000030517578,21.139999389648438,21.189998626708984,21.279998779296875,17.401357832405548,17.165874415188906,17.206474256675033,17.279555210377808,17.263315428661823,0.026858690833276994,0.699999988079071,31.350000381469727,0.0,0.0,0.0,0.0,0.0,,,,,
frame_00194.png,1769712247773819905,1769712247.77382,42.30120789722266,-83.6974534738605,239.38294982910156,0.7143703234719846,0.6997441856878286,0.003913162876864148,0.004219323987182402,0.019160000000000003,-0.018120000000000004,-0.0019700000000000004,1.2486000000000002,0.1071,-9.881,7.527988736085663,16.839659123299466,21.43000030517578,21.28999900817871,21.270000457763672,21.329999923706055,17.401357832405548,17.28767548843197,17.27143648110832,17.320156600648613,17.320156600648613,0.028533681936846755,0.800000011920929,31.125,0.0,0.0,0.0,0.0,0.0,,,,,
frame_00195.png,1769712247794563772,1769712247.7945638,42.30120925657224,-83.69745347177218,239.38711547851562,0.7144051572004135,0.6997089776633031,0.0036876681136769596,0.004361083203911045,-0.00429,-0.03341,0.007360000000000001,1.8857000000000002,-2.112,-9.9033,7.565755300944466,16.924140662894715,21.43000030517578,21.31999969482422,21.350000381469727,21.420000076293945,17.401357832405548,17.31203632259445,17.336397156756938,17.393237554351387,17.360757216527084,0.02579844745616112,1.0,31.350000381469727,0.0,0.0,0.0,0.0,0.0,,,,,
frame_00196.png,1769712247835846497,1769712247.8358464,42.30121198334732,-83.69745348596965,239.39503479003906,0.7145979027431686,0.699493543618828,0.004430317389919366,0.006244366938623058,-0.06741000000000001,-0.034300000000000004,0.004560000000000001,1.1257000000000001,0.9601000000000001,-8.7658,7.613716794915398,17.031427647218052,21.279998779296875,21.43000030517578,21.529998779296875,21.809999465942383,17.279555210377808,17.401357832405548,17.48255751537781,17.70992065454029,17.468347803175362,0.025653759920042717,1.5,30.850000381469727,0.0,0.0,0.0,0.0,0.0,,,,,
frame_00197.png,1769712247856725828,1769712247.8567257,42.30121198334732,-83.69745348596965,239.39503479003906,0.7145948715373439,0.6994936443228716,0.004526886909927833,0.006505260897095904,-0.05070000000000001,-0.022680000000000002,-0.0005900000000000001,0.5107,0.4867,-8.6569,7.61907278831616,17.04340868309595,21.579999923706055,21.459999084472656,21.510000228881836,21.81999969482422,17.523158905648614,17.425717117783357,17.46631850805416,17.71804093259445,17.533308866020146,0.028744260730547977,1.600000023841858,30.75,0.0,0.0,0.0,0.0,0.0,,,,,
frame_00198.png,1769712247878199964,1769712247.8782,42.30121472431475,-83.69745349445186,239.4027557373047,0.7146354591932255,0.699446749569135,0.004755801371113689,0.006912838359004263,-0.018530000000000005,-0.010590000000000002,-0.0007600000000000002,1.2025000000000001,0.2024,-10.6884,7.6444446630828375,17.100164044636525,21.529998779296875,21.709999084472656,21.489999771118164,21.770000457763672,17.48255751537781,17.628719422783355,17.45007795194584,17.677441091108324,17.559698995303833,0.02687313112715088,1.8000000715255737,30.92500114440918,0.0,0.0,0.0,0.0,0.0,,,,,
frame_00199.png,1769712247897827177,1769712247.8978271,42.30121609490479,-83.6974534955738,239.40655517578125,0.71467015918309,0.6994088707258131,0.004808730059651463,0.007118373302432926,-0.01795,-0.010820000000000001,0.007500000000000001,1.4688,0.6503,-10.4943,7.668995055573385,17.15508179961433,21.6299991607666,21.649999618530273,21.65999984741211,21.799999237060547,17.563758747134745,17.579999303243067,17.588119581297228,17.70180037648613,17.60841950204029,0.02642585489951752,2.1000001430511475,30.700000762939453,0.0,0.0,0.0,0.0,0.0,,,,,
frame_00200.png,1769712247918531424,1769712247.9185314,42.30121609490479,-83.6974534955738,239.40655517578125,0.7146741110288322,0.6994047192169578,0.004736979435646363,0.007177380303654981,0.00169,-0.018550000000000004,0.0009800000000000002,1.4978,1.2396,-9.799100000000001,7.684285747909098,17.18928616092778,21.770000457763672,21.69999885559082,21.979999542236328,21.770000457763672,17.677441091108324,17.620599144729194,17.84796228389168,17.677441091108324,17.70586090270938,0.03005213462300742,2.299999952316284,30.92500114440918,0.0,0.0,0.0,0.0,0.0,,,,,
frame_00201.png,1769712247939441254,1769712247.9394412,42.30121886014752,-83.69745348796346,239.4142608642578,0.7147092147156348,0.6993702674272457,0.00443407337556819,0.007232318618788943,0.006900000000000001,-0.01353,0.0031400000000000004,0.9112,0.9834,-8.8446,7.715650116474258,17.259446371545927,21.719999313354492,21.850000381469727,21.899999618530273,21.869998931884766,17.63683970083752,17.742401766756934,17.783001608243065,17.758640774080583,17.730220962479528,0.02727634367865497,2.6000001430511475,31.0,0.0,0.0,0.0,0.0,0.0,,,,,
frame_00202.png,1769712247960726271,1769712247.9607263,42.301220241838614,-83.69745347549733,239.41766357421875,0.7146954439791153,0.6993886374518151,0.004118906935209952,0.006999340286598938,0.05285000000000001,0.0058200000000000005,-0.0048400000000000006,0.12710000000000002,1.3972,-8.502,7.722520488744445,17.274814982092,21.959999084472656,21.8799991607666,22.119998931884766,21.979999542236328,17.831721727783357,17.766761052134743,17.961643079080584,17.84796228389168,17.85202203572259,0.03341321190582677,3.0,30.875,0.0,0.0,0.0,0.0,0.0,,,,,
frame_00203.png,1769712247981458013,1769712247.981458,42.301223028985824,-83.69745344438527,239.42486572265625,0.7146441408104128,0.6994448055846516,0.003727242332159317,0.006842777988006432,0.01831,-0.036930000000000004,-0.004750000000000001,0.7063,1.8492000000000002,-11.009,7.7675219383526,17.375480524778467,22.09000015258789,21.850000381469727,21.959999084472656,21.979999542236328,17.937283793702772,17.742401766756934,17.831721727783357,17.84796228389168,17.839842393033685,0.026725123808404014,2.9000000953674316,30.625,0.0,0.0,0.0,0.0,0.0,,,,,
frame_00204.png,1769712248001770332,1769712248.0017703,42.301223028985824,-83.69745344438527,239.42486572265625,0.7146004906532966,0.6994914430623341,0.0035549851019271044,0.006724724646150187,0.04102000000000001,-0.008020000000000001,-0.01302,-0.1444,1.236,-11.1128,7.766491156776868,17.37317472824045,21.809999465942383,22.020000457763672,21.93000030517578,22.1299991607666,17.70992065454029,17.880443396108323,17.807362442405548,17.96976335713474,17.841872462547226,0.026978243276682082,2.9000000953674316,30.80000114440918,0.0,0.0,0.0,0.0,0.0,,,,,
frame_00205.png,1769712248023053073,1769712248.0230532,42.30122442182611,-83.69745343184094,239.4280242919922,0.7145214912442206,0.6995762341916955,0.0035295252359536346,0.006298694778282452,0.023710000000000005,0.037070000000000006,-0.011000000000000001,0.8285,-0.7018,-7.724,7.77698352108915,17.396645517665164,22.18000030517578,22.079999923706055,21.94999885559082,22.229999542236328,18.010364747405546,17.929163515648614,17.823601449729196,18.050964588891677,17.953523575418757,0.03201065729528832,2.9000000953674316,31.075000762939453,0.0,0.0,0.0,0.0,0.0,,,,,
frame_00206.png,1769712248042669126,1769712248.042669,42.301225824616914,-83.69745341376237,239.43154907226562,0.7144951651366409,0.6995999115710788,0.003912364330373967,0.006427762553882609,-0.038000000000000006,0.004190000000000001,0.0013900000000000002,0.8854000000000001,0.6739,-8.0693,7.82589043939005,17.50604735948918,22.1299991607666,22.18000030517578,22.15999984741211,22.1299991607666,17.96976335713474,18.010364747405546,17.994124191297228,17.96976335713474,17.986003913243064,0.027416614607392916,2.700000047683716,31.075000762939453,0.0,0.0,0.0,0.0,0.0,,,,,
frame_00207.png,1769712248063361918,1769712248.063362,42.30122722862026,-83.69745339932982,239.43331909179688,0.7144518887369393,0.6996429508819652,0.004008583898324959,0.006493936904997991,-0.022920000000000003,0.004600000000000001,-0.012170000000000002,0.37670000000000003,0.1893,-9.4571,7.829932205412145,17.515088547574646,22.15999984741211,22.299999237060547,22.329999923706055,22.149999618530273,17.994124191297228,18.107804986486133,18.132165820648613,17.986003913243067,18.05502472791876,0.030826916968049244,2.5,31.075000762939453,0.0,0.0,0.0,0.0,0.0,,,,,
frame_00208.png,1769712248084590693,1769712248.0845907,42.30122863181849,-83.69745338600237,239.43565368652344,0.7143929051565184,0.6997020118100441,0.004402248144426261,0.006363327925034795,-0.020040000000000002,0.040040000000000006,0.00101,0.9149,0.2697,-11.008600000000001,7.839014436351693,17.53540495325256,22.34000015258789,22.239999771118164,22.40999984741211,22.260000228881836,18.140286098702774,18.059084866945838,18.197126496297226,18.075325423054164,18.117955721250002,0.03322140375716777,2.5,30.80000114440918,0.0,0.0,0.0,0.0,0.0,,,,,
frame_00209.png,1769712248105481522,1769712248.1054814,42.30123146123788,-83.69745335521914,239.44044494628906,0.714303430001463,0.6997926270530662,0.004531155753384695,0.0063527661574832375,-0.005800000000000001,-0.019160000000000003,-0.01602,0.6955,-0.4164,-10.7423,7.897261227315563,17.665699529831276,22.299999237060547,22.40999984741211,22.3799991607666,22.3799991607666,18.107804986486133,18.197126496297226,18.172765662134744,18.172765662134744,18.16261570176321,0.02812887036218497,2.4000000953674316,30.649999618530273,0.0,0.0,0.0,0.0,0.0,,,,,
frame_00210.png,1769712248125420622,1769712248.1254206,42.30123146123788,-83.69745335521914,239.44044494628906,0.7142943073586497,0.6998023470846122,0.004519241555846003,0.006316165423309282,0.006870000000000001,0.0034400000000000008,-0.0027400000000000002,-1.1577,0.9624,-10.9479,7.885901984213212,17.640289584565902,22.420000076293945,22.299999237060547,22.399999618530273,22.40999984741211,18.205246774351387,18.107804986486133,18.18900621824307,18.197126496297226,18.174796118844455,0.030300326517667297,2.4000000953674316,30.80000114440918,0.0,0.0,0.0,0.0,0.0,,,,,
frame_00211.png,1769712248146564909,1769712248.146565,42.30123287947985,-83.6974533341425,239.44337463378906,0.7142174466262606,0.6998850064227171,0.00449322182666811,0.005850442457984093,0.04313,0.01726,-0.015390000000000003,2.3055000000000003,0.9549000000000001,-10.298200000000001,7.915160989053173,17.705740222852604,22.399999618530273,22.420000076293945,22.40999984741211,22.479999542236328,18.18900621824307,18.205246774351387,18.197126496297226,18.25396689389168,18.21133659569584,0.028555506094609266,2.299999952316284,30.649999618530273,0.0,0.0,0.0,0.0,0.0,,,,,
frame_00212.png,1769712248167418332,1769712248.1674185,42.301234302552174,-83.69745331702116,239.446533203125,0.7140138023921475,0.7000998400546838,0.00410620727785656,0.005257662094964475,0.016910000000000005,0.017120000000000003,-0.023370000000000005,0.48550000000000004,-2.6887000000000003,-9.6876,7.942041682509543,17.765870721272897,22.44999885559082,22.53999900817871,22.35999870300293,22.549999237060547,18.229606059729196,18.302687013431967,18.15652510602642,18.31080729148613,18.24990636766843,0.02724525321553464,2.4000000953674316,30.950000762939453,0.0,0.0,0.0,0.0,0.0,,,,,
frame_00213.png,1769712248187715004,1769712248.187715,42.301235728187876,-83.6974533090673,239.44972229003906,0.7140053779371014,0.7001066171343707,0.004456733123484318,0.005213679260457793,-0.022440000000000005,0.02578,0.007660000000000001,0.8151,0.453,-9.1822,7.955787964087943,17.796620328386883,22.399999618530273,22.459999084472656,22.709999084472656,22.600000381469727,18.18900621824307,18.237726337783357,18.440728642783355,18.351408681756936,18.30471747014168,0.028550204048818438,2.4000000953674316,30.725000381469727,0.0,0.0,0.0,0.0,0.0,,,,,
