image_filename,timestamp_ns,timestamp_sec,latitude,longitude,altitude,orientation_x,orientation_y,orientation_z,orientation_w,angular_velocity_x,angular_velocity_y,angular_velocity_z,linear_acceleration_x,linear_acceleration_y,linear_acceleration_z,vehicle_speed_mps,vehicle_speed_mph,wheel_speed_fl_rads,wheel_speed_fr_rads,wheel_speed_rl_rads,wheel_speed_rr_rads,wheel_speed_fl_mph,wheel_speed_fr_mph,wheel_speed_rl_mph,wheel_speed_rr_mph,avg_wheel_speed_mph,wheel_slip,steering_angle_deg,throttle_pedal,brake_pedal,brake_torque_actual,abs_active,esc_active,trac_active,marwis_road_condition,marwis_friction,marwis_surface_temp_c,marwis_ice_percent,marwis_water_film_height
frame_00000.png,1769616176858077143,1769616176.8580773,42.30106658709342,-83.697450973149,239.01954650878906,0.7077843646766449,0.7062727140632877,0.009373317084078823,0.011501626658733444,-0.00415,0.016150000000000005,-0.004730000000000001,1.0892,0.1746,-9.4269,1.930789693127629,4.319060696144919,27.639999389648438,28.209999084472656,30.34000015258789,30.170000076293945,22.443934345188907,22.906779352783357,24.63635985870277,24.498318229351387,23.621347946506607,4.469093770224254,3.4000000953674316,53.17499923706055,0.0,148.0,0.0,0.0,0.0,snow/ice covered,0.227973371744156,-7.90488958358765,100.0,520.796203613281
frame_00001.png,1769616176878586568,1769616176.8785865,42.30106658709342,-83.697450973149,239.01954650878906,0.7077843646766449,0.7062727140632877,0.009373317084078823,0.011501626658733444,-0.00415,0.016150000000000005,-0.004730000000000001,1.0892,0.1746,-9.4269,1.930789693127629,4.319060696144919,27.639999389648438,28.209999084472656,30.34000015258789,30.170000076293945,22.443934345188907,22.906779352783357,24.63635985870277,24.498318229351387,23.621347946506607,4.469093770224254,3.4000000953674316,53.17499923706055,0.0,148.0,0.0,0.0,0.0,snow/ice covered,0.227973371744156,-7.90488958358765,100.0,520.796203613281
frame_00002.png,1769616176897388684,1769616176.8973887,42.30106658709342,-83.697450973149,239.01954650878906,0.7077843646766449,0.7062727140632877,0.009373317084078823,0.011501626658733444,-0.00415,0.016150000000000005,-0.004730000000000001,1.0892,0.1746,-9.4269,1.930789693127629,4.319060696144919,27.639999389648438,28.209999084472656,30.34000015258789,30.170000076293945,22.443934345188907,22.906779352783357,24.63635985870277,24.498318229351387,23.621347946506607,4.469093770224254,3.4000000953674316,53.17499923706055,0.0,148.0,0.0,0.0,0.0,snow/ice covered,0.227973371744156,-7.90488958358765,100.0,520.796203613281
frame_00003.png,1769616176918083980,1769616176.9180841,42.30106658709342,-83.697450973149,239.01954650878906,0.7077843646766449,0.7062727140632877,0.009373317084078823,0.011501626658733444,-0.00415,0.016150000000000005,-0.004730000000000001,1.0892,0.1746,-9.4269,1.930789693127629,4.319060696144919,27.639999389648438,28.209999084472656,30.34000015258789,30.170000076293945,22.443934345188907,22.906779352783357,24.63635985870277,24.498318229351387,23.621347946506607,4.469093770224254,3.4000000953674316,53.17499923706055,0.0,148.0,0.0,0.0,0.0,snow/ice covered,0.227973371744156,-7.90488958358765,100.0,520.796203613281
frame_00004.png,1769616176938816144,1769616176.9388163,42.30106658709342,-83.697450973149,239.01954650878906,0.7077843646766449,0.7062727140632877,0.009373317084078823,0.011501626658733444,-0.00415,0.016150000000000005,-0.004730000000000001,1.0892,0.1746,-9.4269,1.930789693127629,4.319060696144919,27.639999389648438,28.209999084472656,30.34000015258789,30.170000076293945,22.443934345188907,22.906779352783357,24.63635985870277,24.498318229351387,23.621347946506607,4.469093770224254,3.4000000953674316,53.17499923706055,0.0,148.0,0.0,0.0,0.0,snow/ice covered,0.227973371744156,-7.90488958358765,100.0,520.796203613281
frame_00005.png,1769616176959846913,1769616176.959847,42.30106658709342,-83.697450973149,239.01954650878906,0.7077843646766449,0.7062727140632877,0.009373317084078823,0.011501626658733444,-0.00415,0.016150000000000005,-0.004730000000000001,1.0892,0.1746,-9.4269,1.930789693127629,4.319060696144919,27.639999389648438,28.209999084472656,30.34000015258789,30.170000076293945,22.443934345188907,22.906779352783357,24.63635985870277,24.498318229351387,23.621347946506607,4.469093770224254,3.4000000953674316,53.17499923706055,0.0,148.0,0.0,0.0,0.0,snow/ice covered,0.227973371744156,-7.90488958358765,100.0,520.796203613281
frame_00006.png,1769616176982096460,1769616176.9820964,42.30106658709342,-83.697450973149,239.01954650878906,0.7077843646766449,0.7062727140632877,0.009373317084078823,0.011501626658733444,-0.00415,0.016150000000000005,-0.004730000000000001,1.0892,0.1746,-9.4269,1.930789693127629,4.319060696144919,27.639999389648438,28.209999084472656,30.34000015258789,30.170000076293945,22.443934345188907,22.906779352783357,24.63635985870277,24.498318229351387,23.621347946506607,4.469093770224254,3.4000000953674316,53.17499923706055,0.0,148.0,0.0,0.0,0.0,snow/ice covered,0.227973371744156,-7.90488958358765,100.0,520.796203613281
frame_00007.png,1769616177002701466,1769616177.0027015,42.30106658709342,-83.697450973149,239.01954650878906,0.7077843646766449,0.7062727140632877,0.009373317084078823,0.011501626658733444,-0.00415,0.016150000000000005,-0.004730000000000001,1.0892,0.1746,-9.4269,1.930789693127629,4.319060696144919,27.639999389648438,28.209999084472656,30.34000015258789,30.170000076293945,22.443934345188907,22.906779352783357,24.63635985870277,24.498318229351387,23.621347946506607,4.469093770224254,3.4000000953674316,53.17499923706055,0.0,148.0,0.0,0.0,0.0,snow/ice covered,0.227973371744156,-7.90488958358765,100.0,520.796203613281
frame_00008.png,1769616177023313515,1769616177.0233135,42.30106658709342,-83.697450973149,239.01954650878906,0.7077843646766449,0.7062727140632877,0.009373317084078823,0.011501626658733444,-0.00415,0.016150000000000005,-0.004730000000000001,1.0892,0.1746,-9.4269,1.930789693127629,4.319060696144919,27.639999389648438,28.209999084472656,30.34000015258789,30.170000076293945,22.443934345188907,22.906779352783357,24.63635985870277,24.498318229351387,23.621347946506607,4.469093770224254,3.4000000953674316,53.17499923706055,0.0,148.0,0.0,0.0,0.0,snow/ice covered,0.227973371744156,-7.90488958358765,100.0,520.796203613281
frame_00009.png,1769616177044083579,1769616177.0440834,42.30106658709342,-83.697450973149,239.01954650878906,0.7077843646766449,0.7062727140632877,0.009373317084078823,0.011501626658733444,-0.00415,0.016150000000000005,-0.004730000000000001,1.0892,0.1746,-9.4269,1.930789693127629,4.319060696144919,27.639999389648438,28.209999084472656,30.34000015258789,30.170000076293945,22.443934345188907,22.906779352783357,24.63635985870277,24.498318229351387,23.621347946506607,4.469093770224254,3.4000000953674316,53.17499923706055,0.0,148.0,0.0,0.0,0.0,snow/ice covered,0.227973371744156,-7.90488958358765,100.0,520.796203613281
frame_00010.png,1769616177064700474,1769616177.0647004,42.30106658709342,-83.697450973149,239.01954650878906,0.7077843646766449,0.7062727140632877,0.009373317084078823,0.011501626658733444,-0.00415,0.016150000000000005,-0.004730000000000001,1.0892,0.1746,-9.4269,1.930789693127629,4.319060696144919,27.639999389648438,28.209999084472656,30.34000015258789,30.170000076293945,22.443934345188907,22.906779352783357,24.63635985870277,24.498318229351387,23.621347946506607,4.469093770224254,3.4000000953674316,53.17499923706055,0.0,148.0,0.0,0.0,0.0,snow/ice covered,0.227973371744156,-7.90488958358765,100.0,520.796203613281
frame_00011.png,1769616177085358356,1769616177.0853584,42.30106658709342,-83.697450973149,239.01954650878906,0.7077843646766449,0.7062727140632877,0.009373317084078823,0.011501626658733444,-0.00415,0.016150000000000005,-0.004730000000000001,1.0892,0.1746,-9.4269,1.930789693127629,4.319060696144919,27.639999389648438,28.209999084472656,30.34000015258789,30.170000076293945,22.443934345188907,22.906779352783357,24.63635985870277,24.498318229351387,23.621347946506607,4.469093770224254,3.4000000953674316,53.17499923706055,0.0,148.0,0.0,0.0,0.0,snow/ice covered,0.227973371744156,-7.90488958358765,100.0,520.796203613281
frame_00012.png,1769616177106045231,1769616177.1060452,42.30106658709342,-83.697450973149,239.01954650878906,0.7077843646766449,0.7062727140632877,0.009373317084078823,0.011501626658733444,-0.00415,0.016150000000000005,-0.004730000000000001,1.0892,0.1746,-9.4269,1.930789693127629,4.319060696144919,27.639999389648438,28.209999084472656,30.34000015258789,30.170000076293945,22.443934345188907,22.906779352783357,24.63635985870277,24.498318229351387,23.621347946506607,4.469093770224254,3.4000000953674316,53.17499923706055,0.0,148.0,0.0,0.0,0.0,snow/ice covered,0.227973371744156,-7.90488958358765,100.0,520.796203613281
frame_00013.png,1769616177126915479,1769616177.1269157,42.30106658709342,-83.697450973149,239.01954650878906,0.7077843646766449,0.7062727140632877,0.009373317084078823,0.011501626658733444,-0.00415,0.016150000000000005,-0.004730000000000001,1.0892,0.1746,-9.4269,1.930789693127629,4.319060696144919,27.639999389648438,28.209999084472656,30.34000015258789,30.170000076293945,22.443934345188907,22.906779352783357,24.63635985870277,24.498318229351387,23.621347946506607,4.469093770224254,3.4000000953674316,53.17499923706055,0.0,148.0,0.0,0.0,0.0,snow/ice covered,0.227973371744156,-7.90488958358765,100.0,520.796203613281
frame_00014.png,1769616177147500619,1769616177.1475005,42.30106658709342,-83.697450973149,239.01954650878906,0.7077843646766449,0.7062727140632877,0.009373317084078823,0.011501626658733444,-0.00415,0.016150000000000005,-0.004730000000000001,1.0892,0.1746,-9.4269,1.930789693127629,4.319060696144919,27.639999389648438,28.209999084472656,30.34000015258789,30.170000076293945,22.443934345188907,22.906779352783357,24.63635985870277,24.498318229351387,23.621347946506607,4.469093770224254,3.4000000953674316,53.17499923706055,0.0,148.0,0.0,0.0,0.0,snow/ice covered,0.227973371744156,-7.90488958358765,100.0,520.796203613281
frame_00015.png,1769616177168208382,1769616177.1682084,42.30106658709342,-83.697450973149,239.01954650878906,0.7077843646766449,0.7062727140632877,0.009373317084078823,0.011501626658733444,-0.00415,0.016150000000000005,-0.004730000000000001,1.0892,0.1746,-9.4269,1.930789693127629,4.319060696144919,27.639999389648438,28.209999084472656,30.34000015258789,30.170000076293945,22.443934345188907,22.906779352783357,24.63635985870277,24.498318229351387,23.621347946506607,4.469093770224254,3.4000000953674316,53.17499923706055,0.0,148.0,0.0,0.0,0.0,snow/ice covered,0.227973371744156,-7.90488958358765,100.0,520.796203613281
frame_00016.png,1769616177188865265,1769616177.1888652,42.30106658709342,-83.697450973149,239.01954650878906,0.7077843646766449,0.7062727140632877,0.009373317084078823,0.011501626658733444,-0.00415,0.016150000000000005,-0.004730000000000001,1.0892,0.1746,-9.4269,1.930789693127629,4.319060696144919,27.639999389648438,28.209999084472656,30.34000015258789,30.170000076293945,22.443934345188907,22.906779352783357,24.63635985870277,24.498318229351387,23.621347946506607,4.469093770224254,3.4000000953674316,53.17499923706055,0.0,148.0,0.0,0.0,0.0,snow/ice covered,0.227973371744156,-7.90488958358765,100.0,520.796203613281
frame_00017.png,1769616177209699308,1769616177.2096994,42.30106658709342,-83.697450973149,239.01954650878906,0.7077843646766449,0.7062727140632877,0.009373317084078823,0.011501626658733444,-0.00415,0.016150000000000005,-0.004730000000000001,1.0892,0.1746,-9.4269,1.930789693127629,4.319060696144919,27.639999389648438,28.209999084472656,30.34000015258789,30.170000076293945,22.443934345188907,22.906779352783357,24.63635985870277,24.498318229351387,23.621347946506607,4.469093770224254,3.4000000953674316,53.17499923706055,0.0,148.0,0.0,0.0,0.0,snow/ice covered,0.227973371744156,-7.90488958358765,100.0,520.796203613281
frame_00018.png,1769616177230241507,1769616177.2302415,42.30106658709342,-83.697450973149,239.01954650878906,0.7077843646766449,0.7062727140632877,0.009373317084078823,0.011501626658733444,-0.00415,0.016150000000000005,-0.004730000000000001,1.0892,0.1746,-9.4269,1.930789693127629,4.319060696144919,27.639999389648438,28.209999084472656,30.34000015258789,30.170000076293945,22.443934345188907,22.906779352783357,24.63635985870277,24.498318229351387,23.621347946506607,4.469093770224254,3.4000000953674316,53.17499923706055,0.0,148.0,0.0,0.0,0.0,snow/ice covered,0.227973371744156,-7.90488958358765,100.0,520.796203613281
frame_00019.png,1769616177250944230,1769616177.2509441,42.30106658709342,-83.697450973149,239.01954650878906,0.7077843646766449,0.7062727140632877,0.009373317084078823,0.011501626658733444,-0.00415,0.016150000000000005,-0.004730000000000001,1.0892,0.1746,-9.4269,1.930789693127629,4.319060696144919,27.639999389648438,28.209999084472656,30.34000015258789,30.170000076293945,22.443934345188907,22.906779352783357,24.63635985870277,24.498318229351387,23.621347946506607,4.469093770224254,3.4000000953674316,53.17499923706055,0.0,148.0,0.0,0.0,0.0,snow/ice covered,0.227973371744156,-7.90488958358765,100.0,520.796203613281
frame_00020.png,1769616177271745328,1769616177.2717452,42.30106658709342,-83.697450973149,239.01954650878906,0.7077843646766449,0.7062727140632877,0.009373317084078823,0.011501626658733444,-0.00415,0.016150000000000005,-0.004730000000000001,1.0892,0.1746,-9.4269,1.930789693127629,4.319060696144919,27.639999389648438,28.209999084472656,30.34000015258789,30.170000076293945,22.443934345188907,22.906779352783357,24.63635985870277,24.498318229351387,23.621347946506607,4.469093770224254,3.4000000953674316,53.17499923706055,0.0,148.0,0.0,0.0,0.0,snow/ice covered,0.227973371744156,-7.90488958358765,100.0,520.796203613281
frame_00021.png,1769616177293059550,1769616177.2930596,42.30106658709342,-83.697450973149,239.01954650878906,0.7077843646766449,0.7062727140632877,0.009373317084078823,0.011501626658733444,-0.00415,0.016150000000000005,-0.004730000000000001,1.0892,0.1746,-9.4269,1.930789693127629,4.319060696144919,27.639999389648438,28.209999084472656,30.34000015258789,30.170000076293945,22.443934345188907,22.906779352783357,24.63635985870277,24.498318229351387,23.621347946506607,4.469093770224254,3.4000000953674316,53.17499923706055,0.0,148.0,0.0,0.0,0.0,snow/ice covered,0.227973371744156,-7.90488958358765,100.0,520.796203613281
frame_00022.png,1769616177313557397,1769616177.3135574,42.30106658709342,-83.697450973149,239.01954650878906,0.7077843646766449,0.7062727140632877,0.009373317084078823,0.011501626658733444,-0.00415,0.016150000000000005,-0.004730000000000001,1.0892,0.1746,-9.4269,1.930789693127629,4.319060696144919,27.639999389648438,28.209999084472656,30.34000015258789,30.170000076293945,22.443934345188907,22.906779352783357,24.63635985870277,24.498318229351387,23.621347946506607,4.469093770224254,3.4000000953674316,53.17499923706055,0.0,148.0,0.0,0.0,0.0,snow/ice covered,0.227973371744156,-7.90488958358765,100.0,520.796203613281
frame_00023.png,1769616177334243335,1769616177.3342433,42.30106658709342,-83.697450973149,239.01954650878906,0.7077843646766449,0.7062727140632877,0.009373317084078823,0.011501626658733444,-0.00415,0.016150000000000005,-0.004730000000000001,1.0892,0.1746,-9.4269,1.930789693127629,4.319060696144919,27.639999389648438,28.209999084472656,30.34000015258789,30.170000076293945,22.443934345188907,22.906779352783357,24.63635985870277,24.498318229351387,23.621347946506607,4.469093770224254,3.4000000953674316,53.17499923706055,0.0,148.0,0.0,0.0,0.0,snow/ice covered,0.227973371744156,-7.90488958358765,100.0,520.796203613281
frame_00024.png,1769616177354974948,1769616177.354975,42.30106658709342,-83.697450973149,239.01954650878906,0.7077843646766449,0.7062727140632877,0.009373317084078823,0.011501626658733444,-0.00415,0.016150000000000005,-0.004730000000000001,1.0892,0.1746,-9.4269,1.930789693127629,4.319060696144919,27.639999389648438,28.209999084472656,30.34000015258789,30.170000076293945,22.443934345188907,22.906779352783357,24.63635985870277,24.498318229351387,23.621347946506607,4.469093770224254,3.4000000953674316,53.17499923706055,0.0,148.0,0.0,0.0,0.0,snow/ice covered,0.227973371744156,-7.90488958358765,100.0,520.796203613281
frame_00025.png,1769616177375700919,1769616177.375701,42.30106658709342,-83.697450973149,239.01954650878906,0.7077843646766449,0.7062727140632877,0.009373317084078823,0.011501626658733444,-0.00415,0.016150000000000005,-0.004730000000000001,1.0892,0.1746,-9.4269,1.930789693127629,4.319060696144919,27.639999389648438,28.209999084472656,30.34000015258789,30.170000076293945,22.443934345188907,22.906779352783357,24.63635985870277,24.498318229351387,23.621347946506607,4.469093770224254,3.4000000953674316,53.17499923706055,0.0,148.0,0.0,0.0,0.0,snow/ice covered,0.227973371744156,-7.90488958358765,100.0,520.796203613281
frame_00026.png,1769616177396319513,1769616177.3963194,42.30106658709342,-83.697450973149,239.01954650878906,0.7077843646766449,0.7062727140632877,0.009373317084078823,0.011501626658733444,-0.00415,0.016150000000000005,-0.004730000000000001,1.0892,0.1746,-9.4269,1.930789693127629,4.319060696144919,27.639999389648438,28.209999084472656,30.34000015258789,30.170000076293945,22.443934345188907,22.906779352783357,24.63635985870277,24.498318229351387,23.621347946506607,4.469093770224254,3.4000000953674316,53.17499923706055,0.0,148.0,0.0,0.0,0.0,snow/ice covered,0.227973371744156,-7.90488958358765,100.0,520.796203613281
frame_00027.png,1769616177417075790,1769616177.4170756,42.30106658709342,-83.697450973149,239.01954650878906,0.7077843646766449,0.7062727140632877,0.009373317084078823,0.011501626658733444,-0.00415,0.016150000000000005,-0.004730000000000001,1.0892,0.1746,-9.4269,1.930789693127629,4.319060696144919,27.639999389648438,28.209999084472656,30.34000015258789,30.170000076293945,22.443934345188907,22.906779352783357,24.63635985870277,24.498318229351387,23.621347946506607,4.469093770224254,3.4000000953674316,53.17499923706055,0.0,148.0,0.0,0.0,0.0,snow/ice covered,0.227973371744156,-7.90488958358765,100.0,520.796203613281
frame_00028.png,1769616177437067807,1769616177.4370677,42.30106658709342,-83.697450973149,239.01954650878906,0.7077843646766449,0.7062727140632877,0.009373317084078823,0.011501626658733444,-0.00415,0.016150000000000005,-0.004730000000000001,1.0892,0.1746,-9.4269,1.930789693127629,4.319060696144919,27.639999389648438,28.209999084472656,30.34000015258789,30.170000076293945,22.443934345188907,22.906779352783357,24.63635985870277,24.498318229351387,23.621347946506607,4.469093770224254,3.4000000953674316,53.17499923706055,0.0,148.0,0.0,0.0,0.0,snow/ice covered,0.227973371744156,-7.90488958358765,100.0,520.796203613281
frame_00029.png,1769616177457865351,1769616177.4578655,42.30106658709342,-83.697450973149,239.01954650878906,0.7077843646766449,0.7062727140632877,0.009373317084078823,0.011501626658733444,-0.00415,0.016150000000000005,-0.004730000000000001,1.0892,0.1746,-9.4269,1.930789693127629,4.319060696144919,27.639999389648438,28.209999084472656,30.34000015258789,30.170000076293945,22.443934345188907,22.906779352783357,24.63635985870277,24.498318229351387,23.621347946506607,4.469093770224254,3.4000000953674316,53.17499923706055,0.0,148.0,0.0,0.0,0.0,snow/ice covered,0.227973371744156,-7.90488958358765,100.0,520.796203613281
frame_00030.png,1769616177478607563,1769616177.4786077,42.30106658709342,-83.697450973149,239.01954650878906,0.7077843646766449,0.7062727140632877,0.009373317084078823,0.011501626658733444,-0.00415,0.016150000000000005,-0.004730000000000001,1.0892,0.1746,-9.4269,1.930789693127629,4.319060696144919,27.639999389648438,28.209999084472656,30.34000015258789,30.170000076293945,22.443934345188907,22.906779352783357,24.63635985870277,24.498318229351387,23.621347946506607,4.469093770224254,3.4000000953674316,53.17499923706055,0.0,148.0,0.0,0.0,0.0,snow/ice covered,0.227973371744156,-7.90488958358765,100.0,520.796203613281
frame_00031.png,1769616177499241919,1769616177.499242,42.30106658709342,-83.697450973149,239.01954650878906,0.7077843646766449,0.7062727140632877,0.009373317084078823,0.011501626658733444,-0.00415,0.016150000000000005,-0.004730000000000001,1.0892,0.1746,-9.4269,1.930789693127629,4.319060696144919,27.639999389648438,28.209999084472656,30.34000015258789,30.170000076293945,22.443934345188907,22.906779352783357,24.63635985870277,24.498318229351387,23.621347946506607,4.469093770224254,3.4000000953674316,53.17499923706055,0.0,148.0,0.0,0.0,0.0,snow/ice covered,0.227973371744156,-7.90488958358765,100.0,520.796203613281
frame_00032.png,1769616177519835183,1769616177.5198352,42.30106658709342,-83.697450973149,239.01954650878906,0.7077843646766449,0.7062727140632877,0.009373317084078823,0.011501626658733444,-0.00415,0.016150000000000005,-0.004730000000000001,1.0892,0.1746,-9.4269,1.930789693127629,4.319060696144919,27.639999389648438,28.209999084472656,30.34000015258789,30.170000076293945,22.443934345188907,22.906779352783357,24.63635985870277,24.498318229351387,23.621347946506607,4.469093770224254,3.4000000953674316,53.17499923706055,0.0,148.0,0.0,0.0,0.0,snow/ice covered,0.227973371744156,-7.90488958358765,100.0,520.796203613281
frame_00033.png,1769616177540555059,1769616177.540555,42.30106658709342,-83.697450973149,239.01954650878906,0.7077843646766449,0.7062727140632877,0.009373317084078823,0.011501626658733444,-0.00415,0.016150000000000005,-0.004730000000000001,1.0892,0.1746,-9.4269,1.930789693127629,4.319060696144919,27.639999389648438,28.209999084472656,30.34000015258789,30.170000076293945,22.443934345188907,22.906779352783357,24.63635985870277,24.498318229351387,23.621347946506607,4.469093770224254,3.4000000953674316,53.17499923706055,0.0,148.0,0.0,0.0,0.0,snow/ice covered,0.227973371744156,-7.90488958358765,100.0,520.796203613281
frame_00034.png,1769616177561430470,1769616177.5614305,42.30106658709342,-83.697450973149,239.01954650878906,0.7077843646766449,0.7062727140632877,0.009373317084078823,0.011501626658733444,-0.00415,0.016150000000000005,-0.004730000000000001,1.0892,0.1746,-9.4269,1.930789693127629,4.319060696144919,27.639999389648438,28.209999084472656,30.34000015258789,30.170000076293945,22.443934345188907,22.906779352783357,24.63635985870277,24.498318229351387,23.621347946506607,4.469093770224254,3.4000000953674316,53.17499923706055,0.0,148.0,0.0,0.0,0.0,snow/ice covered,0.227973371744156,-7.90488958358765,100.0,520.796203613281
frame_00035.png,1769616177581855304,1769616177.5818553,42.30106658709342,-83.697450973149,239.01954650878906,0.7077843646766449,0.7062727140632877,0.009373317084078823,0.011501626658733444,-0.00415,0.016150000000000005,-0.004730000000000001,1.0892,0.1746,-9.4269,1.930789693127629,4.319060696144919,27.639999389648438,28.209999084472656,30.34000015258789,30.170000076293945,22.443934345188907,22.906779352783357,24.63635985870277,24.498318229351387,23.621347946506607,4.469093770224254,3.4000000953674316,53.17499923706055,0.0,148.0,0.0,0.0,0.0,snow/ice covered,0.227973371744156,-7.90488958358765,100.0,520.796203613281
frame_00036.png,1769616177602627616,1769616177.6026275,42.30106658709342,-83.697450973149,239.01954650878906,0.7077843646766449,0.7062727140632877,0.009373317084078823,0.011501626658733444,-0.00415,0.016150000000000005,-0.004730000000000001,1.0892,0.1746,-9.4269,1.930789693127629,4.319060696144919,27.639999389648438,28.209999084472656,30.34000015258789,30.170000076293945,22.443934345188907,22.906779352783357,24.63635985870277,24.498318229351387,23.621347946506607,4.469093770224254,3.4000000953674316,53.17499923706055,0.0,148.0,0.0,0.0,0.0,snow/ice covered,0.227973371744156,-7.90488958358765,100.0,520.796203613281
frame_00037.png,1769616177623361687,1769616177.6233618,42.30106658709342,-83.697450973149,239.01954650878906,0.7077843646766449,0.7062727140632877,0.009373317084078823,0.011501626658733444,-0.00415,0.016150000000000005,-0.004730000000000001,1.0892,0.1746,-9.4269,1.930789693127629,4.319060696144919,27.639999389648438,28.209999084472656,30.34000015258789,30.170000076293945,22.443934345188907,22.906779352783357,24.63635985870277,24.498318229351387,23.621347946506607,4.469093770224254,3.4000000953674316,53.17499923706055,0.0,148.0,0.0,0.0,0.0,snow/ice covered,0.227973371744156,-7.90488958358765,100.0,520.796203613281
frame_00038.png,1769616177644111831,1769616177.6441119,42.30106658709342,-83.697450973149,239.01954650878906,0.7077843646766449,0.7062727140632877,0.009373317084078823,0.011501626658733444,-0.00415,0.016150000000000005,-0.004730000000000001,1.0892,0.1746,-9.4269,1.930789693127629,4.319060696144919,27.639999389648438,28.209999084472656,30.34000015258789,30.170000076293945,22.443934345188907,22.906779352783357,24.63635985870277,24.498318229351387,23.621347946506607,4.469093770224254,3.4000000953674316,53.17499923706055,0.0,148.0,0.0,0.0,0.0,snow/ice covered,0.227973371744156,-7.90488958358765,100.0,520.796203613281
frame_00039.png,1769616177664827999,1769616177.6648278,42.30106658709342,-83.697450973149,239.01954650878906,0.7077843646766449,0.7062727140632877,0.009373317084078823,0.011501626658733444,-0.00415,0.016150000000000005,-0.004730000000000001,1.0892,0.1746,-9.4269,1.930789693127629,4.319060696144919,27.639999389648438,28.209999084472656,30.34000015258789,30.170000076293945,22.443934345188907,22.906779352783357,24.63635985870277,24.498318229351387,23.621347946506607,4.469093770224254,3.4000000953674316,53.17499923706055,0.0,148.0,0.0,0.0,0.0,snow/ice covered,0.227973371744156,-7.90488958358765,100.0,520.796203613281
frame_00040.png,1769616177685432848,1769616177.685433,42.30106658709342,-83.697450973149,239.01954650878906,0.7077843646766449,0.7062727140632877,0.009373317084078823,0.011501626658733444,-0.00415,0.016150000000000005,-0.004730000000000001,1.0892,0.1746,-9.4269,1.930789693127629,4.319060696144919,27.639999389648438,28.209999084472656,30.34000015258789,30.170000076293945,22.443934345188907,22.906779352783357,24.63635985870277,24.498318229351387,23.621347946506607,4.469093770224254,3.4000000953674316,53.17499923706055,0.0,148.0,0.0,0.0,0.0,snow/ice covered,0.227973371744156,-7.90488958358765,100.0,520.796203613281
frame_00041.png,1769616177706089742,1769616177.7060897,42.30106658709342,-83.697450973149,239.01954650878906,0.7077843646766449,0.7062727140632877,0.009373317084078823,0.011501626658733444,-0.00415,0.016150000000000005,-0.004730000000000001,1.0892,0.1746,-9.4269,1.930789693127629,4.319060696144919,27.639999389648438,28.209999084472656,30.34000015258789,30.170000076293945,22.443934345188907,22.906779352783357,24.63635985870277,24.498318229351387,23.621347946506607,4.469093770224254,3.4000000953674316,53.17499923706055,0.0,148.0,0.0,0.0,0.0,snow/ice covered,0.227973371744156,-7.90488958358765,100.0,520.796203613281
frame_00042.png,1769616177727109703,1769616177.7271097,42.30106658709342,-83.697450973149,239.01954650878906,0.7077843646766449,0.7062727140632877,0.009373317084078823,0.011501626658733444,-0.00415,0.016150000000000005,-0.004730000000000001,1.0892,0.1746,-9.4269,1.930789693127629,4.319060696144919,27.639999389648438,28.209999084472656,30.34000015258789,30.170000076293945,22.443934345188907,22.906779352783357,24.63635985870277,24.498318229351387,23.621347946506607,4.469093770224254,3.4000000953674316,53.17499923706055,0.0,148.0,0.0,0.0,0.0,snow/ice covered,0.227973371744156,-7.90488958358765,100.0,520.796203613281
frame_00043.png,1769616177747471731,1769616177.7474716,42.30106658709342,-83.697450973149,239.01954650878906,0.7077843646766449,0.7062727140632877,0.009373317084078823,0.011501626658733444,-0.00415,0.016150000000000005,-0.004730000000000001,1.0892,0.1746,-9.4269,1.930789693127629,4.319060696144919,27.639999389648438,28.209999084472656,30.34000015258789,30.170000076293945,22.443934345188907,22.906779352783357,24.63635985870277,24.498318229351387,23.621347946506607,4.469093770224254,3.4000000953674316,53.17499923706055,0.0,148.0,0.0,0.0,0.0,snow/ice covered,0.227973371744156,-7.90488958358765,100.0,520.796203613281
frame_00044.png,1769616177831358535,1769616177.8313584,42.301066933089594,-83.69745097301589,239.01988220214844,0.7077843646766449,0.7062727140632877,0.009373317084078823,0.011501626658733444,-0.00415,0.016150000000000005,-0.004730000000000001,1.0892,0.1746,-9.4269,1.930789693127629,4.319060696144919,34.47999954223633,34.20000076293945,32.72999954223633,33.689998626708984,27.998077533891678,27.770715943513874,26.57706139889168,27.356589506675036,27.42561109574307,5.349901755310467,1.100000023841858,53.47500228881836,0.0,84.0,0.0,0.0,0.0,snow/ice covered,0.227973371744156,-7.90488958358765,100.0,520.796203613281
frame_00045.png,1769616177872685276,1769616177.8726852,42.301068011405334,-83.69745098093344,239.02041625976562,0.7077843646766449,0.7062727140632877,0.009373317084078823,0.011501626658733444,-0.00415,0.016150000000000005,-0.004730000000000001,1.0892,0.1746,-9.4269,1.930789693127629,4.319060696144919,40.16999816894531,39.34000015258789,31.489999771118164,31.42999839782715,32.61840888056671,31.944442838702777,25.57017015194584,25.521448483620873,28.91361758870905,5.694422612425103,0.0,53.35000228881836,0.0,64.0,0.0,0.0,0.0,snow/ice covered,0.227973371744156,-7.90488958358765,100.0,520.796203613281
frame_00046.png,1769616177899694855,1769616177.899695,42.3010683824428,-83.6974509833835,239.02069091796875,0.7077843646766449,0.7062727140632877,0.009373317084078823,0.011501626658733444,-0.00415,0.016150000000000005,-0.004730000000000001,1.0892,0.1746,-9.4269,1.930789693127629,4.319060696144919,41.73999786376953,41.349998474121094,31.010000228881836,30.349998474121094,33.893263108161165,33.57658000797226,25.180406098054164,24.64447858797226,29.323681950539964,5.789365561987475,-0.30000001192092896,53.45000076293945,0.0,36.0,0.0,0.0,0.0,snow/ice covered,0.227973371744156,-7.90488958358765,100.0,520.796203613281
frame_00047.png,1769616177911921963,1769616177.911922,42.3010683824428,-83.6974509833835,239.02069091796875,0.7074634568170886,0.7065948292865464,0.010307639929232051,0.01062812556480724,0.01785,0.00837,-0.00936,1.7931000000000001,0.1364,-9.7558,1.930789693127629,4.319060696144919,42.30999755859375,41.80999755859375,29.549999237060547,29.459999084472656,34.35610811575562,33.95010350575562,23.99487183148613,23.92179087778336,29.055718582695185,5.727323514723829,-0.30000001192092896,53.45000076293945,0.0,36.0,0.0,0.0,0.0,snow/ice covered,0.227973371744156,-7.90488958358765,100.0,520.796203613281
frame_00048.png,1769616177932807145,1769616177.9328072,42.30106952271559,-83.69745097775495,239.02169799804688,0.7074248555583127,0.7066371657071432,0.010169376650844563,0.010515396245946463,0.02096,0.0009100000000000001,-0.008140000000000001,1.6644,1.0874000000000001,-10.26,2.151498225289252,4.81277244007854,41.86000061035156,40.82999801635742,28.969999313354492,29.09000015258789,33.990706444811096,33.15433484186394,23.52390654583752,23.621348333702773,28.572574041553832,4.936822153404693,-0.30000001192092896,53.22500228881836,0.0,36.0,0.0,0.0,0.0,snow/ice covered,0.227973371744156,-7.90488958358765,100.0,520.796203613281
frame_00049.png,1769616177952796366,1769616177.9527965,42.30106952271559,-83.69745097775495,239.02169799804688,0.7073868826827948,0.7066782662580557,0.01004132246812349,0.010430630370078969,0.030060000000000007,-0.005940000000000001,-0.01139,1.718,0.896,-10.022,2.168700777521115,4.851253517268083,40.119998931884766,38.939998626708984,29.19999885559082,29.25,32.577809039080584,31.61963791167503,23.710668294729196,23.751269685,27.914846232621205,4.7541511968521215,-0.30000001192092896,53.525001525878906,0.0,32.0,0.0,0.0,0.0,snow/ice covered,0.227973371744156,-7.90488958358765,100.0,520.796203613281
frame_00050.png,1769616177973467798,1769616177.9734678,42.30107030737404,-83.69745096756202,239.02264404296875,0.7071982763641427,0.7068778753914798,0.00957441176078845,0.010129058645699254,0.0187,-0.0045000000000000005,-0.013310000000000002,1.3435000000000001,0.859,-9.9238,2.225282575781521,4.977823605068716,37.27000045776367,36.31999969482422,29.639999389648438,29.329999923706055,30.263584001108324,29.49217462259445,24.067952785188904,23.816230360648614,26.909985442385075,4.405974091766475,-0.20000000298023224,53.72500228881836,0.0,0.0,0.0,0.0,0.0,snow/ice covered,0.227973371744156,-7.90488958358765,100.0,520.796203613281
frame_00051.png,1769616178015491204,1769616178.0154912,42.30107111810176,-83.6974509582172,239.02426147460938,-0.7070195230825927,-0.7070634381418615,-0.009235498364819421,-0.009969653606161802,0.020010000000000003,-0.00928,-0.018770000000000002,1.1117000000000001,0.0655,-10.0395,2.2698541693912007,5.077527585677953,30.459999084472656,30.189998626708984,30.67999839782715,30.979999542236328,24.73380009778336,24.514557236675035,24.912441568620874,25.156045263891677,24.829211041742738,3.89001992067514,-0.20000000298023224,54.125,0.0,0.0,0.0,0.0,0.0,snow/ice covered,0.227973371744156,-7.90488958358765,100.0,520.796203613281
frame_00052.png,1769616178035669026,1769616178.035669,42.30107152775002,-83.69745095046,239.02520751953125,-0.7068287296225588,-0.7072582783079454,-0.009012631224908493,-0.009881660965841331,0.018880000000000004,-0.00808,-0.021910000000000002,1.8959000000000001,0.1436,-10.4125,2.3157075684157653,5.180098888091963,27.920000076293945,27.920000076293945,31.35999870300293,31.219999313354492,22.671297484351385,22.671297484351385,25.464608086026423,25.350927290837518,24.03953258639168,3.6407478130685647,-0.4000000059604645,54.47500228881836,0.0,0.0,0.0,0.0,0.0,snow/ice covered,0.227973371744156,-7.90488958358765,100.0,520.796203613281
frame_00053.png,1769616178056635705,1769616178.0566356,42.30107152775002,-83.69745095046,239.02520751953125,-0.7067477422077654,-0.7073397484981243,-0.008915139944077968,-0.009931231475195035,0.006820000000000001,-0.020460000000000006,-0.023360000000000006,1.7252,-0.6681,-10.1677,2.3330911252315505,5.218984861675465,27.479999542236328,27.389999389648438,32.16999816894531,31.849998474121094,22.314012993891676,22.240932040188905,26.12233512056671,25.862492417972263,24.13494314315489,3.624451647749517,-0.4000000059604645,54.60000228881836,0.0,0.0,0.0,0.0,0.0,snow/ice covered,0.227973371744156,-7.90488958358765,100.0,520.796203613281
frame_00054.png,1769616178077289525,1769616178.0772896,42.30107279389721,-83.69745094048949,239.0294189453125,-0.7066427183015206,-0.7074441301083993,-0.008877045779365753,-0.010003474638279572,-0.00014000000000000004,-0.0011800000000000003,-0.015430000000000001,0.9633,0.6814,-10.2032,2.352759041043894,5.262980809272729,27.19999885559082,27.3799991607666,32.34000015258789,32.89999771118164,22.086649854729195,22.23281176213474,26.260378298702776,26.71510147945839,24.323735348756273,3.621665217912409,-0.5,54.97500228881836,0.0,0.0,0.0,0.0,0.0,snow/ice covered,0.227973371744156,-7.90488958358765,100.0,520.796203613281
frame_00055.png,1769616178097499884,1769616178.0974998,42.30107279389721,-83.69745094048949,239.0294189453125,-0.7064790910235706,-0.7076084549581876,-0.008762010800395015,-0.010039700440248439,0.0032700000000000003,-0.012180000000000002,-0.022310000000000003,1.6132,-0.1534,-10.5081,2.3859233244545073,5.337167321405266,26.920000076293945,27.349998474121094,33.5,33.70000076293945,21.859288264351388,22.20845092797226,27.20230887,27.36471133351387,24.65868984895938,3.620183022942364,-0.5,54.95000076293945,0.0,0.0,0.0,0.0,0.0,snow/ice covered,0.227973371744156,-7.90488958358765,100.0,520.796203613281
frame_00056.png,1769616178118385074,1769616178.118385,42.30107322821474,-83.69745093750666,239.03109741210938,-0.7062789283169262,-0.7078052473092215,-0.008787992246966641,-0.010226362466356508,-0.012870000000000003,-0.013630000000000001,-0.021380000000000003,1.3772,0.673,-9.9059,2.428991371611109,5.433507958811754,27.309999465942383,27.639999389648438,35.14999771118164,34.81999969482422,22.175971364540292,22.443934345188907,28.542122224458392,28.274160792594454,25.359047181695512,3.667159296338133,-0.5,55.17499923706055,0.0,0.0,0.0,0.0,0.0,snow/ice covered,0.227973371744156,-7.90488958358765,100.0,520.796203613281
frame_00057.png,1769616178139140439,1769616178.1391404,42.30107322821474,-83.69745093750666,239.03109741210938,-0.7062109555748336,-0.7078727327745165,-0.00878581705274353,-0.01025133352956392,-0.0032400000000000003,-0.003940000000000001,-0.019110000000000002,1.0225,1.1818,-10.0023,2.439258811981847,5.4564756068746725,27.809999465942383,27.85999870300293,36.98999786376953,36.209999084472656,22.581975974540292,22.622575816026423,30.036219313161165,29.402853112783355,26.160906054127807,3.794469532891781,-0.6000000238418579,55.275001525878906,0.0,0.0,0.0,0.0,0.0,snow/ice covered,0.227973371744156,-7.90488958358765,100.0,520.796203613281
frame_00058.png,1769616178160082043,1769616178.1600819,42.30107455589438,-83.69745092589888,239.03594970703125,-0.7060398190748318,-0.7080438563772568,-0.008768835343128558,-0.01023615425472541,-0.0002800000000000001,-0.0030800000000000003,-0.026590000000000003,1.371,-0.327,-9.4147,2.468273357627371,5.521379404610972,27.939998626708984,28.029998779296875,37.790000915527344,38.0,22.687536491675036,22.76061744537781,30.685829167216646,30.856350360000004,26.747583366067378,3.8443661277343377,-0.800000011920929,55.42499923706055,0.0,0.0,0.0,0.0,0.0,snow/ice covered,0.227973371744156,-7.90488958358765,100.0,520.796203613281
frame_00059.png,1769616178180596229,1769616178.180596,42.30107455589438,-83.69745092589888,239.03594970703125,-0.7058142100888977,-0.7082659884815705,-0.008904077884933683,-0.01031056709536759,-0.0019300000000000003,-0.0006600000000000001,-0.02035,1.4349,1.1292,-10.4108,2.5107443621102905,5.616384493378994,28.049999237060547,27.979999542236328,38.09000015258789,38.869998931884766,22.77685800148613,22.72001760389168,30.929431313702775,31.562797514080582,26.997276108290293,3.8068781865124555,-1.0,55.32500076293945,0.0,0.0,0.0,0.0,0.0,snow/ice covered,0.227973371744156,-7.90488958358765,100.0,520.796203613281
frame_00060.png,1769616178201470606,1769616178.2014706,42.30107501102568,-83.69745091967694,239.03770446777344,-0.7056670311924329,-0.7084170511380784,-0.008733428388387005,-0.010151353282794774,0.028000000000000004,0.0016000000000000003,-0.023030000000000002,1.5204,-0.5098,-9.7738,2.539106755133457,5.679829464828235,28.329999923706055,27.920000076293945,37.98999786376953,38.2599983215332,23.004221140648614,22.671297484351385,30.848228533161162,31.06747139426949,26.89780463810766,3.73567116841616,-1.3000000715255737,55.70000076293945,0.0,0.0,0.0,0.0,0.0,snow/ice covered,0.227973371744156,-7.90488958358765,100.0,520.796203613281
frame_00061.png,1769616178222304443,1769616178.2223046,42.30107501102568,-83.69745091967694,239.03770446777344,-0.7055728560265534,-0.7085119124183634,-0.00868098918410563,-0.010122016923086423,0.011580000000000002,-0.00288,-0.026820000000000004,1.0258,-1.6459000000000001,-9.1356,2.549487819534867,5.703051283030326,28.139999389648438,27.779998779296875,38.02000045776367,37.63999938964844,22.849938955188904,22.557615140377806,30.872590916108322,30.564026545188906,26.711042889215985,3.683640662446056,-1.7000000476837158,55.650001525878906,0.0,0.0,0.0,0.0,0.0,snow/ice covered,0.227973371744156,-7.90488958358765,100.0,520.796203613281
frame_00062.png,1769616178242527317,1769616178.2425272,42.30107640027441,-83.69745091559308,239.0426788330078,-0.7054976748039117,-0.7085846116314357,-0.008765650731143193,-0.010200116306248902,-0.0068000000000000005,-0.00619,-0.0033700000000000006,1.32,1.8433000000000002,-9.8366,2.5755749530902334,5.761406635565667,27.93000030517578,27.920000076293945,37.689998626708984,37.599998474121094,22.67941776240555,22.671297484351385,30.604626386675033,30.53154543297226,26.621721766601055,3.6206982861204136,-2.200000047683716,55.97500228881836,0.0,0.0,0.0,0.0,0.0,snow/ice covered,0.227973371744156,-7.90488958358765,100.0,520.796203613281
frame_00063.png,1769616178263016995,1769616178.263017,42.30107640027441,-83.69745091559308,239.0426788330078,-0.7053084563619776,-0.7087793125848726,-0.008418403859740062,-0.010049771761291031,0.00458,-0.021810000000000003,-0.010520000000000002,0.8444,-0.8863000000000001,-10.1762,2.6232748248502586,5.868108386700538,27.579999923706055,28.059999465942383,37.599998474121094,37.5099983215332,22.395214225648612,22.78497827954029,30.53154543297226,30.458464479269484,26.542550604357658,3.523186835559072,-2.700000047683716,55.95000076293945,0.0,0.0,0.0,0.0,0.0,snow/ice covered,0.227973371744156,-7.90488958358765,100.0,520.796203613281
frame_00064.png,1769616178283968034,1769616178.283968,42.30107686966012,-83.69745091092045,239.04415893554688,-0.7052495705234524,-0.7088381454952535,-0.008453777731341337,-0.010003020014208887,0.0020100000000000005,0.00117,-0.0119,1.657,-0.279,-9.9308,2.644850975856363,5.916372941932133,27.65999984741211,28.010000228881836,37.349998474121094,37.48999786376953,22.460174901297226,22.74437843805416,30.32854312797226,30.442223923161166,26.493830097621203,3.478052745770453,-3.200000047683716,56.400001525878906,0.0,0.0,0.0,0.0,0.0,snow/ice covered,0.227973371744156,-7.90488958358765,100.0,520.796203613281
frame_00065.png,1769616178304626797,1769616178.3046267,42.30107686966012,-83.69745091092045,239.04415893554688,-0.7051986886140696,-0.7088882992446466,-0.008447518254988535,-0.010041324930536314,-0.00455,-0.006050000000000001,-0.014370000000000003,1.8113000000000001,0.7959,-9.790000000000001,2.663117688715826,5.95723448259598,27.69999885559082,27.78999900817871,37.38999938964844,37.27000045776367,22.492654464729195,22.56573541843197,30.361024240188904,30.263584001108324,26.4207495311146,3.4350695961863917,-3.799999952316284,56.375,0.0,0.0,0.0,0.0,0.0,snow/ice covered,0.227973371744156,-7.90488958358765,100.0,520.796203613281
frame_00066.png,1769616178325191124,1769616178.3251913,42.3010783175963,-83.69745091355368,239.0487823486328,-0.705049463839694,-0.7090398761827749,-0.0082419773320731,-0.009988860382090412,-8e-05,0.003110000000000001,-0.010590000000000002,0.8221,-0.1039,-8.9122,2.7091590161343664,6.06022616955161,27.979999542236328,27.779998779296875,37.43000030517578,36.959999084472656,22.72001760389168,22.557615140377806,30.393505352405548,30.011860027783356,26.4207495311146,3.3596969472625218,-5.0,56.29999923706055,0.0,0.0,0.0,0.0,0.0,snow/ice covered,0.227973371744156,-7.90488958358765,100.0,520.796203613281
frame_00067.png,1769616178346374905,1769616178.346375,42.3010783175963,-83.69745091355368,239.0487823486328,-0.7050151351004051,-0.7090743623155356,-0.008247685940921881,-0.00995909949714398,0.0034400000000000008,0.00515,-0.009500000000000001,1.2235,0.3356,-9.126900000000001,2.7215739758528774,6.087997689544336,28.010000228881836,27.81999969482422,37.72999954223633,36.97999954223633,22.74437843805416,22.590096252594453,30.63710749889168,30.02810058389168,26.499920693357993,3.352813855180916,-5.900000095367432,56.20000076293945,0.0,0.0,0.0,0.0,0.0,snow/ice covered,0.227973371744156,-7.90488958358765,100.0,520.796203613281
frame_00068.png,1769616178366753036,1769616178.366753,42.301078810235154,-83.69745091559402,239.05014038085938,-0.7049241614316704,-0.7091668224537647,-0.008148037534389588,-0.009897173587700028,0.014730000000000002,-0.015460000000000002,-0.011850000000000001,1.1769,0.8843000000000001,-9.996500000000001,2.753312487924695,6.158994836738268,28.09000015258789,27.889999389648438,37.89999771118164,37.61000061035156,22.809339113702777,22.646936650188906,30.775147579458388,30.5396672598111,26.692772650790292,3.333949509353132,-7.0,56.25,0.0,0.0,0.0,0.0,0.0,snow/ice covered,0.227973371744156,-7.90488958358765,100.0,520.796203613281
frame_00069.png,1769616178387418015,1769616178.387418,42.30107980773967,-83.69745091978102,239.0526885986328,-0.7048012573148053,-0.7092922028243528,-0.008064773624181528,-0.009732323794346381,-0.008020000000000001,0.009800000000000001,-0.008730000000000002,1.1234,-0.2353,-9.8649,2.7876267558488865,6.235753795228609,28.03999900817871,28.279998779296875,37.82999801635742,38.07999801635742,22.768737723431972,22.96361975037781,30.71830718186394,30.92130948686394,26.842993535634413,3.304691047323545,-8.0,56.35000228881836,0.0,0.0,0.0,0.0,0.0,snow/ice covered,0.227973371744156,-7.90488958358765,100.0,520.796203613281
frame_00070.png,1769616178409044004,1769616178.409044,42.30107980773967,-83.69745091978102,239.0526885986328,-0.704786067535342,-0.709307472289425,-0.00808575029647433,-0.009702030952222707,0.0013400000000000003,0.0072000000000000015,-0.00408,1.2214,1.1862000000000001,-9.518,2.7999784896033253,6.263383882533263,28.19999885559082,28.389999389648438,37.869998931884766,38.23999786376953,22.898659074729196,23.052941260188906,30.750788294080582,31.051230838161164,26.93840486678996,3.300934665989938,-8.90000057220459,56.150001525878906,0.0,0.0,0.0,0.0,0.0,snow/ice covered,0.227973371744156,-7.90488958358765,100.0,520.796203613281
frame_00071.png,1769616178428770861,1769616178.4287708,42.30108031504615,-83.6974509251352,239.0540771484375,-0.7046662243908854,-0.7094280122443749,-0.00802252008029339,-0.009646077816961269,0.0010700000000000002,-0.0026000000000000003,-0.020370000000000003,1.7711000000000001,-0.25730000000000003,-10.4136,2.8358648548651435,6.343659528442035,28.34000015258789,28.510000228881836,38.48999786376953,38.38999938964844,23.012341418702775,23.15038304805416,31.254233143161162,31.173033460188904,27.14749776752675,3.279469546845938,-10.0,56.22500228881836,0.0,0.0,0.0,0.0,0.0,snow/ice covered,0.227973371744156,-7.90488958358765,100.0,520.796203613281
frame_00072.png,1769616178449213183,1769616178.4492133,42.301080823733614,-83.69745092726102,239.05526733398438,-0.704496007183618,-0.7095949875393697,-0.008180106380419381,-0.009665163265368423,-0.01602,0.0024000000000000002,-0.020030000000000003,1.5981,-0.8707,-9.0364,2.8699840604811913,6.4199821442527965,28.760000228881836,28.34000015258789,39.11000061035156,38.279998779296875,23.35338535305416,23.012341418702775,31.757681089811097,31.083711950377808,27.30177995298646,3.2526255275378246,-10.90000057220459,56.20000076293945,0.0,0.0,0.0,0.0,0.0,snow/ice covered,0.227973371744156,-7.90488958358765,100.0,520.796203613281
frame_00073.png,1769616178470648631,1769616178.4706485,42.30108185685109,-83.69745093668432,239.05679321289062,-0.7044084215139133,-0.7096775197193671,-0.008531018180339415,-0.009685836775989451,-0.020730000000000002,0.028030000000000006,-0.009940000000000001,1.3945,0.7198,-8.2566,2.89660950236686,6.479541660224524,28.689998626708984,28.549999237060547,39.869998931884766,37.029998779296875,23.296543406675035,23.18286261148613,32.37480673408058,30.06870042537781,27.23072829440489,3.2025701388053602,-11.90000057220459,56.29999923706055,0.0,0.0,0.0,0.0,0.0,snow/ice covered,0.227973371744156,-7.90488958358765,100.0,520.796203613281
frame_00074.png,1769616178490783515,1769616178.4907835,42.30108185685109,-83.69745093668432,239.05679321289062,-0.7043454998612377,-0.709739023141909,-0.00865898991878683,-0.009641459867593181,-0.011860000000000002,0.024530000000000003,-0.017310000000000002,1.6209,0.0799,-8.2346,2.9129489522621315,6.516092029273253,28.76999855041504,28.6299991607666,40.61000061035156,36.959999084472656,23.36150408232365,23.247823287134747,32.9756949198111,30.011860027783356,27.39922057926321,3.2048547589833656,-12.699999809265137,56.125,0.0,0.0,0.0,0.0,0.0,snow/ice covered,0.227973371744156,-7.90488958358765,100.0,520.796203613281
frame_00075.png,1769616178511303584,1769616178.5113037,42.30108238153569,-83.69745094499422,239.0567626953125,-0.7042251164163986,-0.7098510042497762,-0.009220023954294406,-0.009671004713885205,-0.0313,0.03402,-0.0026400000000000004,1.3911,0.49050000000000005,-9.5744,2.955300621092403,6.610830171346441,28.78999900817871,28.729999542236328,41.619998931884766,35.98999786376953,23.37774463843197,23.32902451889168,33.79582286908058,29.224210093161165,27.431700529891348,3.1495091870291203,-13.5,55.95000076293945,0.0,0.0,0.0,0.0,0.0,snow/ice covered,0.227973371744156,-7.90488958358765,100.0,520.796203613281
frame_00076.png,1769616178552859725,1769616178.5528595,42.30108398698935,-83.69745096309995,239.05661010742188,-0.704072598717195,-0.7099961242088474,-0.00989716740196923,-0.009451212697210066,-0.01609,0.031030000000000005,-0.00863,2.1331,-0.013600000000000001,-10.1774,3.0205102299176048,6.756700153711887,28.799999237060547,29.079999923706055,43.05999755859375,33.869998931884766,23.38586491648613,23.613228055648616,34.96511503075562,27.502751414080585,27.366739854242738,3.050311428901938,-15.100000381469727,56.10000228881836,0.0,0.0,0.0,0.0,0.0,snow/ice covered,0.227973371744156,-7.90488958358765,100.0,520.796203613281
frame_00077.png,1769616178573421741,1769616178.5734217,42.301084528593734,-83.697450968302,239.05667114257812,-0.7039760653571949,-0.7100923506855693,-0.010039781072070411,-0.009260437250467612,0.012730000000000002,0.02364,-0.0119,1.6226,0.0789,-10.3119,3.0737264789327563,6.87574170978384,28.75,28.729999542236328,43.02000045776367,32.959999084472656,23.345265075,23.32902451889168,34.93263701610832,26.763823147783356,27.09268743944584,2.9403294339713617,-15.90000057220459,56.400001525878906,0.0,0.0,0.0,0.0,0.0,snow/ice covered,0.227973371744156,-7.90488958358765,100.0,520.796203613281
frame_00078.png,1769616178596742321,1769616178.5967424,42.301084528593734,-83.697450968302,239.05667114257812,-0.7039294241499358,-0.7101388507411728,-0.010062473914142589,-0.009215481684278718,0.00321,0.00979,-0.013080000000000001,1.2641,-0.3648,-10.0273,3.0861869606576224,6.903615059773462,28.68000030517578,28.729999542236328,42.66999816894531,32.29999923706055,23.28842467740555,23.32902451889168,34.648431930566716,26.227897186486132,26.87344457833752,2.892662662338441,-17.0,56.025001525878906,0.0,48.0,0.0,0.0,0.0,snow/ice covered,0.227973371744156,-7.90488958358765,100.0,520.796203613281
frame_00079.png,1769616178615069107,1769616178.6150692,42.30108564463679,-83.69745098105392,239.0579071044922,-0.7038503929820992,-0.7102170130960749,-0.010209212286948254,-0.009065902730245708,0.00022000000000000003,0.014330000000000002,-0.01063,2.2306,0.4979,-10.7118,3.1232021444878666,6.986415805090688,28.760000228881836,28.6299991607666,42.41999816894531,31.03999900817871,23.35338535305416,23.247823287134747,34.44542962556671,25.204765383431972,26.5628509122969,2.8020712842401587,-17.30000114440918,55.900001525878906,0.0,48.0,0.0,0.0,0.0,snow/ice covered,0.227973371744156,-7.90488958358765,100.0,520.796203613281
frame_00080.png,1769616178635612743,1769616178.6356127,42.30108564463679,-83.69745098105392,239.0579071044922,-0.7038163414097015,-0.7102521524451166,-0.010188763752896615,-0.008979231867410632,0.015140000000000002,0.009550000000000001,-0.009710000000000002,1.7625000000000002,0.7049000000000001,-10.478,3.1406790790272443,7.025510659039204,28.829999923706055,28.489999771118164,42.0,29.939998626708984,23.410225750648614,23.13414249194584,34.10438724,24.311554931675033,26.24007760356737,2.7349708621972133,-18.0,56.17499923706055,0.0,64.0,0.0,0.0,0.0,snow/ice covered,0.227973371744156,-7.90488958358765,100.0,520.796203613281
frame_00081.png,1769616178656198475,1769616178.6561985,42.30108677866555,-83.69745099760254,239.0600128173828,-0.7036840961641438,-0.7103877579027957,-0.010057582655243055,-0.00876192094370171,0.015830000000000004,0.007940000000000001,-0.006740000000000001,1.9109,0.4127,-10.0502,3.201986324612579,7.1626512889788625,29.219999313354492,28.260000228881836,41.37999725341797,29.059999465942383,23.726908850837518,22.94738074305416,33.600939293350066,23.59698749954029,25.96805409669551,2.625480712240233,-18.200000762939453,56.20000076293945,0.0,92.0,0.0,0.0,0.0,snow/ice covered,0.227973371744156,-7.90488958358765,100.0,520.796203613281
frame_00082.png,1769616178679458096,1769616178.6794581,42.30108677866555,-83.69745099760254,239.0600128173828,-0.7036503774978754,-0.7104231208565519,-0.009970402790775231,-0.00870210708530291,0.020760000000000004,-0.004480000000000001,-0.00987,2.0982000000000003,0.4302,-10.5052,3.222482853331607,7.208500793931606,29.85999870300293,28.209999084472656,41.18000030517578,28.739999771118164,24.246594256026423,22.906779352783357,33.43853992740555,23.33714479694584,25.98226458329029,2.6043922760143365,-18.399999618530273,56.20000076293945,0.0,92.0,0.0,0.0,0.0,snow/ice covered,0.227973371744156,-7.90488958358765,100.0,520.796203613281
frame_00083.png,1769616178697597497,1769616178.6975975,42.30108793289726,-83.69745101265566,239.0637969970703,-0.7035922362693325,-0.7104845450526068,-0.009753380054551525,-0.008634111443664513,0.017720000000000003,-0.011530000000000002,-0.007230000000000001,1.3824,-0.21760000000000002,-10.935500000000001,3.2512712182259365,7.272898638898327,30.389999389648438,28.149999618530273,41.70000076293945,28.099998474121094,24.676959700188903,22.858059233243065,33.86078509351387,22.81745784297226,26.053315467479525,2.5822464688475284,-18.399999618530273,55.97500228881836,0.0,104.0,0.0,0.0,0.0,snow/ice covered,0.227973371744156,-7.90488958358765,100.0,520.796203613281
frame_00084.png,1769616178718369460,1769616178.7183695,42.301088523647586,-83.69745102174517,239.06582641601562,-0.7035300602971917,-0.7105493986857706,-0.009537640137911942,-0.008604632828858505,0.01725,-0.00986,-0.006360000000000001,1.7366000000000001,0.8339000000000001,-9.990300000000001,3.302360724490412,7.387182799041582,30.969999313354492,28.35999870300293,42.0099983215332,27.349998474121094,25.147924985837516,23.02858042602642,34.11250596926949,22.20845092797226,26.124365577276425,2.536444986939516,-18.399999618530273,56.25,0.0,104.0,0.0,0.0,0.0,snow/ice covered,0.227973371744156,-7.90488958358765,100.0,520.796203613281
frame_00085.png,1769616178739076142,1769616178.7390761,42.301088523647586,-83.69745102174517,239.06582641601562,-0.7034976811543151,-0.7105834454256121,-0.009411700709242925,-0.008579020184586809,0.021430000000000005,-0.014690000000000002,-0.009650000000000002,1.8054000000000001,-0.3617,-10.1264,3.3200126220622073,7.426669034795834,31.35999870300293,28.18000030517578,42.56999969482422,27.01999855041504,25.464608086026423,22.88242006740555,34.567232247594454,21.940487947323646,26.21368708708752,2.5296694876626016,-18.30000114440918,56.10000228881836,0.0,104.0,0.0,0.0,0.0,snow/ice covered,0.227973371744156,-7.90488958358765,100.0,520.796203613281
frame_00086.png,1769616178759659268,1769616178.7596593,42.30108971405991,-83.69745104342594,239.070556640625,-0.7034859610675337,-0.7105953258124184,-0.00933788312204812,-0.008636518582755338,-0.0027800000000000004,-0.0051600000000000005,0.003910000000000001,1.0506,0.0477,-9.236500000000001,3.3451264576064803,7.482847178078241,31.559999465942383,28.53999900817871,43.25,26.939998626708984,25.62701054954029,23.17474233343197,35.119398765,21.875527271675033,26.449169729911823,2.534639837012487,-18.30000114440918,56.07500076293945,0.0,132.0,0.0,0.0,0.0,snow/ice covered,0.227973371744156,-7.90488958358765,100.0,520.796203613281
frame_00087.png,1769616178780651902,1769616178.7806518,42.30109032142511,-83.69745105600313,239.07261657714844,-0.7034099100054901,-0.7106675796927469,-0.009380820096385863,-0.008836848648746851,-0.007760000000000001,-0.009760000000000001,-0.0068000000000000005,1.5273,1.0331000000000001,-9.5591,3.3957292749553973,7.596042644318727,31.760000228881836,28.84000015258789,43.869998931884766,26.059999465942383,25.789413013054162,23.418346028702775,35.62284361408058,21.160959839540293,26.49789062384445,2.4883809721188044,-18.30000114440918,56.20000076293945,0.0,132.0,0.0,0.0,0.0,snow/ice covered,0.227973371744156,-7.90488958358765,100.0,520.796203613281
frame_00088.png,1769616178821740900,1769616178.8217409,42.30109093132701,-83.6974510672996,239.07467651367188,-0.7033097761313601,-0.7107664219794962,-0.009407134029107481,-0.008829383550351165,-0.007470000000000001,0.013440000000000002,-0.011780000000000002,1.2068,-0.8669,-9.7019,3.4268504235019717,7.665658786348501,31.44999885559082,29.479999542236328,44.959999084472656,25.85999870300293,25.537689039729198,23.93803143389168,36.50793378778336,20.998557376026422,26.745552909357666,2.489009053858211,-18.600000381469727,55.97500228881836,0.0,160.0,0.0,0.0,0.0,snow/ice covered,0.227973371744156,-7.90488958358765,100.0,520.796203613281
frame_00089.png,1769616178842456617,1769616178.8424566,42.301092166450296,-83.69745109597882,239.07850646972656,-0.703231103908199,-0.710840827557869,-0.009550516726650197,-0.008950977776395924,-0.0009400000000000002,-0.014050000000000002,-0.008990000000000001,2.0777,0.3657,-9.5776,3.480711954965285,7.786143800540045,31.42999839782715,29.829999923706055,45.34000015258789,25.51999855041504,25.521448483620873,24.222234970648614,36.81649815870278,20.72247411732365,26.82066393257398,2.444665885918226,-18.700000762939453,56.07500076293945,0.0,192.0,0.0,0.0,0.0,snow/ice covered,0.227973371744156,-7.90488958358765,100.0,520.796203613281
frame_00090.png,1769616178883860949,1769616178.883861,42.30109279204117,-83.69745111264372,239.080322265625,-0.7031432757323195,-0.7109252853864673,-0.009676022367379317,-0.009008161951201092,-0.014820000000000002,0.017900000000000003,-0.0019400000000000003,0.9883000000000001,0.10200000000000001,-9.7569,3.5104923794730465,7.852760823338437,31.059999465942383,29.979999542236328,46.82999801635742,24.81999969482422,25.22100593954029,24.344036043891677,38.026390161863944,20.154068592594456,26.936375184472592,2.430178989332971,-19.30000114440918,56.125,0.0,196.0,0.0,0.0,0.0,snow/ice covered,0.227973371744156,-7.90488958358765,100.0,520.796203613281
frame_00091.png,1769616178904378054,1769616178.9043782,42.301094699505555,-83.69745116186748,239.08547973632812,-0.7030390750927846,-0.7110270806922213,-0.009662764305277991,-0.009120328994055594,0.004030000000000001,-0.00918,-0.003920000000000001,1.3171000000000002,-0.0658,-9.8035,3.5794482301658515,8.0070109239872,31.119998931884766,29.939998626708984,47.869998931884766,24.029998779296875,25.269726059080583,24.311554931675033,38.87088049408058,19.51258056537781,26.9911855125535,2.370944010041748,-19.600000381469727,56.29999923706055,0.0,212.0,0.0,0.0,0.0,snow/ice covered,0.227973371744156,-7.90488958358765,100.0,520.796203613281
frame_00092.png,1769616178927638276,1769616178.9276383,42.301094699505555,-83.69745116186748,239.08547973632812,-0.7030068792611442,-0.7110588321685671,-0.00962876737225084,-0.009162518511376568,-0.0010600000000000002,-0.010660000000000003,-0.00923,0.9243,-0.49400000000000005,-9.8522,3.588630014024851,8.02755002357275,31.28999900817871,29.92999839782715,48.53999710083008,22.969999313354492,25.40776768843197,24.303434653620872,39.414925184647295,18.651851225837518,26.944494688134416,2.356502869370158,-20.200000762939453,56.10000228881836,0.0,216.0,0.0,0.0,0.0,snow/ice covered,0.227973371744156,-7.90488958358765,100.0,520.796203613281
frame_00093.png,1769616178946422186,1769616178.9464223,42.301095342864734,-83.69745117511863,239.0872039794922,-0.7029786921074674,-0.7110855083187192,-0.009709423808427653,-0.00916980868348405,-0.0017900000000000004,0.010340000000000002,-0.0033900000000000007,1.4299000000000002,0.7005,-9.3792,3.6112715760276726,8.078197839279342,31.229999542236328,29.639999389648438,48.80999755859375,21.869998931884766,25.35904756889168,24.067952785188904,39.63416804575562,17.758640774080583,26.704952293479195,2.3058056790376344,-20.700000762939453,55.82500076293945,0.0,216.0,0.0,0.0,0.0,snow/ice covered,0.227973371744156,-7.90488958358765,100.0,520.796203613281
frame_00094.png,1769616178966654275,1769616178.9666543,42.301095342864734,-83.69745117511863,239.0872039794922,-0.7029456844226153,-0.7111192352106315,-0.00963346237999216,-0.009164849570019087,0.011640000000000001,-0.00987,-0.00961,1.9764000000000002,0.5814,-9.402000000000001,3.6309279452798466,8.1221679579143,31.309999465942383,29.479999542236328,47.82999801635742,20.579999923706055,25.424008244540293,23.93803143389168,38.838399381863944,16.711149685648614,26.227897186486132,2.2291744423888056,-21.30000114440918,55.875,0.0,204.0,0.0,0.0,0.0,snow/ice covered,0.227973371744156,-7.90488958358765,100.0,520.796203613281
frame_00095.png,1769616178987311814,1769616178.9873118,42.30109731261737,-83.69745122471366,239.09222412109375,-0.7028525334363073,-0.7112149065938658,-0.009419044438057928,-0.009107935151120664,0.008860000000000002,-0.00693,-0.007960000000000002,1.6194000000000002,0.5604,-10.0111,3.6861615732473787,8.245722269659991,31.420000076293945,29.34000015258789,45.87999725341797,19.100000381469727,25.513329754351386,23.824350638702775,37.254980783350064,15.509376411756936,25.525509397040288,2.095606250402225,-22.0,56.04999923706055,0.0,212.0,0.0,0.0,0.0,snow/ice covered,0.227973371744156,-7.90488958358765,100.0,520.796203613281
frame_00096.png,1769616179008410922,1769616179.008411,42.30109731261737,-83.69745122471366,239.09222412109375,-0.7028280418624617,-0.7112404646007761,-0.009346705132655772,-0.009076573660426674,0.014630000000000002,-0.006020000000000001,-0.007620000000000001,1.5170000000000001,0.7936000000000001,-10.1716,3.7010983440344294,8.279134929704377,30.67999839782715,28.8799991607666,43.939998626708984,17.600000381469727,24.912441568620874,23.450825592134745,35.679684011675036,14.291362581756935,24.5835784385469,1.9693414405343805,-22.899999618530273,56.07500076293945,0.0,208.0,0.0,0.0,0.0,snow/ice covered,0.227973371744156,-7.90488958358765,100.0,520.796203613281
frame_00097.png,1769616179028571634,1769616179.0285716,42.30109798100867,-83.69745124352781,239.0938262939453,-0.7027401253207057,-0.7113310757747157,-0.009189719550665998,-0.008942368590290841,0.020560000000000005,-0.0016100000000000003,-0.01246,1.7553,-0.3226,-9.7532,3.7321493586740844,8.348594186392408,29.3799991607666,27.760000228881836,42.029998779296875,16.579999923706055,23.856830202134745,22.54137613305416,34.12874652537781,13.463112805648613,23.49751641655383,1.8145476821538464,-23.899999618530273,55.900001525878906,0.0,208.0,0.0,0.0,0.0,snow/ice covered,0.227973371744156,-7.90488958358765,100.0,520.796203613281
frame_00098.png,1769616179049298210,1769616179.0492983,42.30109932836326,-83.69745127698799,239.0977325439453,-0.7026785347829068,-0.7113956292729221,-0.008922022614318183,-0.008918123076089152,0.02135,-0.00335,-0.007180000000000001,0.9593,0.5161,-9.9513,3.773854171310493,8.441885349971294,28.989999771118164,27.56999969482422,39.80999755859375,14.5,23.54014710194584,22.38709394759445,32.32608506575561,11.77413369,22.506864951323976,1.6660946007043924,-24.80000114440918,55.92499923706055,0.0,212.0,0.0,0.0,0.0,snow/ice covered,0.227973371744156,-7.90488958358765,100.0,520.796203613281
frame_00099.png,1769616179070513526,1769616179.0705135,42.30109932836326,-83.69745127698799,239.0977325439453,-0.7026366339954319,-0.711438380384882,-0.008847040286241042,-0.0088837695309287,0.015370000000000002,-0.005830000000000001,-0.012410000000000001,1.4564000000000001,-0.514,-10.1036,3.788247578033425,8.47408253720609,30.719999313354492,29.739999771118164,36.279998779296875,10.779999732971191,24.944922680837518,24.14915401694584,29.45969351037781,8.753459174770146,21.826807345732828,1.5757133294254104,-25.700000762939453,55.72500228881836,0.0,212.0,0.0,0.0,0.0,snow/ice covered,0.227973371744156,-7.90488958358765,100.0,520.796203613281
frame_00100.png,1769616179090968451,1769616179.0909686,42.301100012811304,-83.69745129631134,239.09971618652344,-0.7026079705602759,-0.7114684951985847,-0.008712982930657044,-0.00887152599511923,0.014100000000000001,-0.008130000000000002,-0.0015600000000000002,1.4577,0.5279,-9.8628,3.821434720766342,8.548320184271063,30.369998931884766,29.459999084472656,34.86000061035156,11.059999465942383,24.660719144080584,23.92179087778336,28.306641904811098,8.980821539540292,21.467493366553832,1.511311334132534,-26.5,55.82500076293945,0.0,212.0,0.0,0.0,0.0,snow/ice covered,0.227973371744156,-7.90488958358765,100.0,520.796203613281
frame_00101.png,1769616179111523501,1769616179.1115236,42.30110070487282,-83.69745131691825,239.1019287109375,-0.7025737425594156,-0.7115056728678938,-0.008456254186615431,-0.008849039947524394,0.00799,-0.01623,0.00075,1.5772000000000002,-0.2175,-10.0556,3.879555252247551,8.678332325962637,29.869998931884766,28.279998779296875,32.709999084472656,11.019999504089355,24.254714534080584,22.96361975037781,26.560820842783354,8.948341201715984,20.681874082239432,1.3831622603764844,-27.100000381469727,55.650001525878906,0.0,196.0,0.0,0.0,0.0,snow/ice covered,0.227973371744156,-7.90488958358765,100.0,520.796203613281
frame_00102.png,1769616179153011316,1769616179.153011,42.30110209973966,-83.69745136186228,239.1064453125,-0.7025844800740151,-0.7114936279247263,-0.008285271249633124,-0.00912250305328423,-0.0064800000000000005,-0.029050000000000006,0.0036100000000000004,1.5051,1.1249,-9.9552,3.9315149355478867,8.79456301992449,29.329999923706055,26.849998474121094,28.40999984741211,11.569999694824219,23.816230360648614,21.80244631797226,23.069181816297224,9.394946427594453,19.520701230628134,1.2196328784503652,-27.899999618530273,55.82500076293945,0.0,264.0,0.0,0.0,0.0,snow/ice covered,0.227973371744156,-7.90488958358765,100.0,520.796203613281
frame_00103.png,1769616179173435273,1769616179.1734354,42.30110351950087,-83.69745141243526,239.11114501953125,-0.7026211382510535,-0.7114551304020456,-0.00821132145804174,-0.009365239309025074,-0.014440000000000001,-0.022910000000000003,0.00468,1.5731000000000002,-0.3514,-11.646700000000001,3.9970888595437364,8.941247953467766,28.5,25.719999313354492,27.53999900817871,11.649999618530273,23.142262770000002,20.884876580837517,22.362733113431972,9.459907103243065,18.96244489187814,1.1207828024189577,-28.0,55.54999923706055,0.0,264.0,0.0,0.0,0.0,snow/ice covered,0.227973371744156,-7.90488958358765,100.0,520.796203613281
frame_00104.png,1769616179196640789,1769616179.1966407,42.30110351950087,-83.69745141243526,239.11114501953125,-0.702637433910907,-0.7114365870823929,-0.008234722075973663,-0.009529343103485383,-0.026390000000000004,-0.020120000000000002,0.004660000000000001,1.9205,-0.48200000000000004,-11.2164,4.016428588228239,8.984509766151277,27.599998474121094,24.75,27.53999900817871,11.859999656677246,22.41145323297226,20.097228195,22.362733113431972,9.630429070418758,18.625460902955748,1.0730636826870963,-28.100000381469727,55.60000228881836,0.0,252.0,0.0,0.0,0.0,snow/ice covered,0.227973371744156,-7.90488958358765,100.0,520.796203613281
frame_00105.png,1769616179215065107,1769616179.215065,42.30110569671571,-83.69745150586486,239.11888122558594,-0.7027322619128844,-0.7113386004189647,-0.008137853150096023,-0.009926679550441141,-0.0067,-0.04632000000000001,0.013920000000000002,0.45890000000000003,1.3469,-9.058300000000001,4.044612733870356,9.047556008903955,28.34000015258789,24.25,27.78999900817871,11.630000114440918,23.012341418702775,19.691223585,22.56573541843197,9.44366732152708,18.67824193591546,1.0644516505378552,-28.100000381469727,55.70000076293945,0.0,252.0,0.0,0.0,0.0,snow/ice covered,0.227973371744156,-7.90488958358765,100.0,520.796203613281
frame_00106.png,1769616179235581661,1769616179.2355816,42.30110569671571,-83.69745150586486,239.11888122558594,-0.7027011152451753,-0.7113659574670803,-0.008234005927178442,-0.010090507248014264,-0.037590000000000005,-0.011320000000000002,-0.007940000000000001,1.4504000000000001,-1.9662000000000002,-9.902000000000001,4.069323577969992,9.102832684504193,29.09000015258789,23.619998931884766,28.6299991607666,11.979999542236328,23.621348333702773,19.17965690908058,23.247823287134747,9.727870083891679,18.944174653452443,1.081129612071331,-28.100000381469727,55.775001525878906,0.0,240.0,0.0,0.0,0.0,snow/ice covered,0.227973371744156,-7.90488958358765,100.0,520.796203613281
frame_00107.png,1769616179256346717,1769616179.2563467,42.30110643720517,-83.6974515366791,239.12132263183594,-0.7028848824224089,-0.7111719287831579,-0.008474779733022738,-0.01074745929772557,-0.01947,-0.041150000000000006,0.011260000000000001,1.9982000000000002,1.9583000000000002,-9.0044,4.140157223225377,9.261283298921775,28.920000076293945,23.09000015258789,30.059999465942383,12.09999942779541,23.48330670435139,18.749293013702776,24.408996719540294,9.825311097364597,19.116726883739766,1.0641552867695332,-28.100000381469727,55.75,0.0,216.0,0.0,0.0,0.0,snow/ice covered,0.227973371744156,-7.90488958358765,100.0,520.796203613281
frame_00108.png,1769616179277312218,1769616179.2773123,42.30110718121664,-83.69745157063583,239.12344360351562,-0.7028793036712421,-0.7111727688448897,-0.008580407911349315,-0.010970593611911845,-0.031060000000000004,-0.011430000000000003,0.0012600000000000003,0.4499,-0.9442,-9.1089,4.159402271967556,9.304333318255106,29.25,23.029998779296875,32.40999984741211,12.130000114440918,23.751269685,18.700571345377806,26.317218696297225,9.84967193152708,19.65468291455053,1.1124224855517628,-28.0,55.875,0.0,208.0,0.0,0.0,0.0,snow/ice covered,0.227973371744156,-7.90488958358765,100.0,520.796203613281
frame_00109.png,1769616179298313239,1769616179.2983131,42.30110718121664,-83.69745157063583,239.12344360351562,-0.7029472160605468,-0.7111011902689396,-0.008799880696716523,-0.011084707057370594,-0.04723000000000001,0.014380000000000002,0.020040000000000002,1.3205,-0.3195,-9.2951,4.172886941213207,9.334497714277472,30.479999542236328,22.94999885559082,34.869998931884766,12.579999923706055,24.750040653891677,18.635610669729196,28.31476063408058,10.215075925648613,20.478871970837517,1.1938911549053461,-28.0,55.85000228881836,0.0,204.0,0.0,0.0,0.0,snow/ice covered,0.227973371744156,-7.90488958358765,100.0,520.796203613281
frame_00110.png,1769616179318419689,1769616179.3184197,42.30110868563707,-83.69745163138305,239.12753295898438,-0.7030328890685718,-0.7110087795604517,-0.009020115513258188,-0.011397797681208598,-0.027840000000000004,0.00030000000000000003,0.008230000000000001,1.1639000000000002,2.1989,-9.022300000000001,4.204880890127274,9.406066258361305,31.619998931884766,22.529998779296875,37.30999755859375,12.819999694824219,25.675730669080583,18.294566735377806,30.296062015755616,10.409957952594452,21.169079343202114,1.2505773148668127,-28.0,55.97500228881836,0.0,256.0,0.0,0.0,0.0,snow/ice covered,0.227973371744156,-7.90488958358765,100.0,520.796203613281
frame_00111.png,1769616179338993083,1769616179.338993,42.30110944732253,-83.69745166025483,239.12939453125,-0.7030293733426219,-0.7110068171452397,-0.00925501177059114,-0.011547768078817484,-0.017030000000000003,0.008230000000000001,0.011340000000000001,1.3942,0.8599,-9.8657,4.255773771142184,9.519910579618799,32.91999816894531,22.06999969482422,39.12999725341797,14.559999465942383,26.731342035566716,17.921043237594454,31.773918548350068,11.822853809540293,22.062289407762883,1.3174891427022535,-27.80000114440918,55.47500228881836,0.0,448.0,0.0,0.0,0.0,snow/ice covered,0.227973371744156,-7.90488958358765,100.0,520.796203613281
frame_00112.png,1769616179360236904,1769616179.360237,42.30111021114863,-83.69745168805152,239.13116455078125,-0.7030657979364944,-0.7109680266005458,-0.009397888926344942,-0.011602956837544023,-0.019400000000000004,0.0027,0.005520000000000001,2.003,0.09720000000000001,-9.4288,4.295634425245727,9.609076471209178,34.52000045776367,21.619998931884766,39.93000030517578,18.020000457763672,28.03055864610832,17.55563846908058,32.42352840240555,14.632406516108324,23.160533008425695,1.4102766876525066,-27.700000762939453,55.5,0.0,448.0,0.0,0.0,0.0,snow/ice covered,0.227973371744156,-7.90488958358765,100.0,520.796203613281
frame_00113.png,1769616179380745362,1769616179.3807454,42.30111021114863,-83.69745168805152,239.13116455078125,-0.703078083406025,-0.7109550694337836,-0.009420477691372336,-0.011634108499620273,-0.007490000000000002,-0.0013200000000000002,0.0036000000000000008,1.0083,1.9647000000000001,-9.4579,4.306053944806959,9.63238431129648,35.84000015258789,20.489999771118164,38.09000015258789,20.03999900817871,29.102410568702776,16.63806873194584,30.929431313702775,16.27266396343197,23.23564364444584,1.412242171151331,-27.399999618530273,55.82500076293945,0.0,520.0,0.0,0.0,0.0,snow/ice covered,0.227973371744156,-7.90488958358765,100.0,520.796203613281
frame_00114.png,1769616179401126960,1769616179.4011269,42.30111254279742,-83.69745175761656,239.13673400878906,-0.7030671301735738,-0.7109683559295569,-0.009479346944531597,-0.011434566796488247,0.005680000000000001,0.020120000000000002,-0.007420000000000001,2.5186,-0.4133,-10.386700000000001,4.341286163846678,9.711196671355188,35.540000915527344,19.719999313354492,36.07999801635742,19.75,28.858808422216647,16.01282126083752,29.29729104686394,16.037182095000002,22.55152570622953,1.3222190291696037,-27.200000762939453,55.75,0.0,652.0,0.0,0.0,0.0,snow/ice covered,0.227973371744156,-7.90488958358765,100.0,520.796203613281
frame_00115.png,1769616179421711330,1769616179.4217114,42.30111254279742,-83.69745175761656,239.13673400878906,-0.7030542700584594,-0.7109849227400983,-0.00928961651465348,-0.011350595307463865,0.032130000000000006,0.00030000000000000003,0.0010600000000000002,0.8563000000000001,1.1514,-9.5299,4.3872660795313,9.814050983946746,35.0099983215332,19.3799991607666,34.97999954223633,19.959999084472656,28.428441429269487,15.736738002134743,28.404082143891678,16.207703287783357,22.194241215769818,1.2614760461377128,-26.899999618530273,55.42499923706055,0.0,652.0,0.0,0.0,0.0,snow/ice covered,0.227973371744156,-7.90488958358765,100.0,520.796203613281
frame_00116.png,1769616179442845961,1769616179.442846,42.30111333568971,-83.69745178310924,239.13864135742188,-0.7029610672038502,-0.7110820688147172,-0.009172889552845068,-0.011130476317611267,0.018260000000000002,-0.00221,-0.016390000000000002,1.7389000000000001,-0.9961000000000001,-9.6349,4.419098270316662,9.885257684802156,34.41999816894531,18.94999885559082,35.369998931884766,20.529998779296875,27.949355865566712,15.387573789729194,28.72076524408058,16.670548295377806,22.182060798688575,1.2439537244225645,-26.5,55.29999923706055,0.0,608.0,0.0,0.0,0.0,snow/ice covered,0.227973371744156,-7.90488958358765,100.0,520.796203613281
frame_00117.png,1769616179466059959,1769616179.46606,42.30111413291097,-83.697451807331,239.1406707763672,-0.7029643766928099,-0.7110808650012037,-0.009102430896548342,-0.011055961369451047,0.008640000000000002,-0.007040000000000001,0.00395,1.9712,0.46,-9.7066,4.457225426127077,9.970545844720704,33.77000045776367,18.329999923706055,36.040000915527344,20.639999389648438,27.421551731108323,14.884128940648614,29.264813032216647,16.759869805188906,22.08259087729062,1.2147825426210856,-26.0,55.35000228881836,0.0,608.0,0.0,0.0,0.0,snow/ice covered,0.227973371744156,-7.90488958358765,100.0,520.796203613281
frame_00118.png,1769616179484001401,1769616179.4840014,42.30111413291097,-83.697451807331,239.1406707763672,-0.7029381609795237,-0.7111074126424151,-0.00903293128899676,-0.01107229317094033,0.007600000000000001,-0.011930000000000003,-0.007640000000000001,1.5559,0.5524,-10.3313,4.473071272758414,10.005992052884208,33.91999816894531,17.770000457763672,37.89999771118164,21.529998779296875,27.543351255566712,14.429404211108324,30.775147579458388,17.48255751537781,22.55761514037781,1.254410659248487,-25.80000114440918,55.125,0.0,520.0,0.0,0.0,0.0,snow/ice covered,0.227973371744156,-7.90488958358765,100.0,520.796203613281
frame_00119.png,1769616179504497726,1769616179.5044978,42.30111655053352,-83.69745187882282,239.14691162109375,-0.7028839552487394,-0.7111717380143642,-0.008723677944465495,-0.01062082608076877,0.015820000000000004,0.007060000000000001,0.004260000000000001,1.3756000000000002,0.6322,-9.8789,4.522519614606419,10.116605026697684,34.71999740600586,17.28999900817871,40.7599983215332,23.75,28.19295801205284,14.03963860843197,33.097494444269486,19.285218975,23.653827509938573,1.3381191069055487,-25.5,54.5,0.0,416.0,0.0,0.0,0.0,snow/ice covered,0.227973371744156,-7.90488958358765,100.0,520.796203613281
frame_00120.png,1769616179525872684,1769616179.5258727,42.30111655053352,-83.69745187882282,239.14691162109375,-0.702921065876206,-0.7111385508793705,-0.00864932171064,-0.010446331154675803,0.035190000000000006,0.014250000000000002,0.010050000000000002,1.7453,1.2579,-9.7628,4.540217739298349,10.15619466974605,35.380001068115234,16.809999465942383,41.88999938964844,24.78999900817871,28.72888707091942,13.649874554540292,34.0150657301889,20.12970775843197,24.130883778520143,1.3759768853587289,-25.30000114440918,54.650001525878906,0.0,416.0,0.0,0.0,0.0,snow/ice covered,0.227973371744156,-7.90488958358765,100.0,520.796203613281
frame_00121.png,1769616179546090468,1769616179.5460906,42.30111736404947,-83.69745190631775,239.14903259277344,-0.7029004881368283,-0.7111663207278776,-0.008444765017431391,-0.010102177150626505,0.033900000000000007,0.009930000000000001,-0.0072000000000000015,1.7197,-0.539,-9.8001,4.576886010044848,10.238219391309721,35.619998931884766,16.020000457763672,42.209999084472656,25.56999969482422,28.923767549080583,13.008388076108323,34.274908432783356,20.763075507594454,24.242534891391678,1.367846787105278,-25.0,54.54999923706055,0.0,356.0,0.0,0.0,0.0,snow/ice covered,0.227973371744156,-7.90488958358765,100.0,520.796203613281
frame_00122.png,1769616179566549574,1769616179.5665495,42.30111818909123,-83.69745193328329,239.15103149414062,-0.7029828814516228,-0.711089414571204,-0.008408736432918406,-0.00980846687091295,0.02096,0.023180000000000003,0.014980000000000004,1.3792,-0.23550000000000001,-10.0288,4.602653267802647,10.295859200878454,35.82999801635742,15.719999313354492,42.459999084472656,25.739999771118164,29.094288741863938,12.764784380837519,34.47791073778336,20.90111713694584,24.309525249357666,1.3610972892173536,-25.0,54.775001525878906,0.0,356.0,0.0,0.0,0.0,snow/ice covered,0.227973371744156,-7.90488958358765,100.0,520.796203613281
frame_00123.png,1769616179587440753,1769616179.5874407,42.301119851070354,-83.69745199367567,239.1553955078125,-0.7030382434674806,-0.7110362860037442,-0.00844217151996237,-0.009662191686622123,0.0026100000000000003,-0.0025900000000000003,0.006120000000000001,1.6936,-0.0557,-9.725200000000001,4.663050419197787,10.430964004720298,36.029998779296875,15.799999237060547,41.48999786376953,24.739999771118164,29.25669120537781,12.82974505648613,33.690260803161166,20.08910791694584,23.966451245492735,1.297625726121503,-25.0,54.47500228881836,0.0,352.0,0.0,0.0,0.0,snow/ice covered,0.227973371744156,-7.90488958358765,100.0,520.796203613281
frame_00124.png,1769616179608464760,1769616179.6084647,42.301119851070354,-83.69745199367567,239.1553955078125,-0.7030726906546639,-0.7110019020159872,-0.00846575827660007,-0.009665294721928092,-0.0036900000000000006,0.0021500000000000004,0.00982,1.4071,-0.6816,-9.673300000000001,4.677053257257995,10.4622875132907,36.30999755859375,15.979999542236328,40.80999755859375,22.760000228881836,29.484052795755616,12.975906963891678,33.138094285755614,18.481330033054164,23.519846019614267,1.2480596131329769,-25.0,54.17499923706055,0.0,348.0,0.0,0.0,0.0,snow/ice covered,0.227973371744156,-7.90488958358765,100.0,520.796203613281
frame_00125.png,1769616179629146180,1769616179.629146,42.30112069437675,-83.6974520253688,239.15748596191406,-0.7031639411219897,-0.7109086677419617,-0.00867469311153152,-0.009699883224088603,-0.01565,0.018130000000000004,0.0165,1.097,1.1152,-9.7702,4.701654060321382,10.517318033695313,36.75,16.350000381469727,40.72999954223633,21.829999923706055,29.841338835000002,13.276351056756935,33.07313515889168,17.726161210648613,23.479246565324306,1.2324366811103034,-25.30000114440918,53.625,0.0,372.0,0.0,0.0,0.0,snow/ice covered,0.227973371744156,-7.90488958358765,100.0,520.796203613281
frame_00126.png,1769616179649846440,1769616179.6498466,42.30112154394795,-83.69745205809275,239.15969848632812,-0.7032224977051,-0.7108517570336391,-0.008756197794628717,-0.009551295397482945,0.00477,0.008940000000000002,0.005040000000000001,2.3916,-0.5531,-9.8804,4.74389128738643,10.6118001764062,37.349998474121094,16.809999465942383,40.72999954223633,21.139999389648438,30.32854312797226,13.649874554540292,33.07313515889168,17.165874415188906,23.554356814148285,1.2196381784984967,-25.399999618530273,53.775001525878906,0.0,424.0,0.0,0.0,0.0,snow/ice covered,0.227973371744156,-7.90488958358765,100.0,520.796203613281
frame_00127.png,1769616179670256297,1769616179.6702564,42.30112154394795,-83.69745205809275,239.15969848632812,-0.703377707718813,-0.7106958960647048,-0.00893020444915335,-0.009560075810939329,-0.0010700000000000002,0.014490000000000001,0.01801,1.3925,0.8895000000000001,-9.672600000000001,4.790172541306872,10.715328564550996,38.04999923706055,17.029998779296875,40.16999816894531,19.600000381469727,30.896950201486128,13.828516025377809,32.61840888056671,15.915381021756936,23.314814032296894,1.1758375295581853,-25.700000762939453,53.900001525878906,0.0,508.0,0.0,0.0,0.0,snow/ice covered,0.227973371744156,-7.90488958358765,100.0,520.796203613281
frame_00128.png,1769616179711479904,1769616179.71148,42.3011241226102,-83.69745215402418,239.16632080078125,-0.7034848015410811,-0.7105950325395812,-0.008838207040504562,-0.009258500261198283,0.02755,0.004020000000000001,0.010050000000000002,1.8724,0.5234,-10.0995,4.853726199751925,10.857494285273072,37.86000061035156,14.589999198913574,39.36000061035156,18.60999870300293,30.7426695648111,11.847213869310437,31.960683394811095,15.111490531026423,22.415514339989763,1.064520021934877,-25.899999618530273,53.525001525878906,0.0,532.0,0.0,0.0,0.0,snow/ice covered,0.227973371744156,-7.90488958358765,100.0,520.796203613281
frame_00129.png,1769616179732119960,1769616179.73212,42.30112499003964,-83.69745218430158,239.1685791015625,-0.7035480746079853,-0.710536147611518,-0.008677633473695368,-0.009120763678329246,0.021080000000000005,-0.006980000000000001,0.00534,1.8983,0.1743,-10.0601,4.891848601745837,10.942771811189333,38.98999786376953,14.6899995803833,37.87999725341797,17.03999900817871,31.660237753161162,11.928415101067372,30.75890702335007,13.83663630343197,22.046049045252644,1.0146677117684073,-26.0,53.650001525878906,0.0,532.0,0.0,0.0,0.0,snow/ice covered,0.227973371744156,-7.90488958358765,100.0,520.796203613281
frame_00130.png,1769616179752807276,1769616179.7528071,42.30112587337638,-83.69745221491696,239.1708221435547,-0.7036741704341632,-0.7104176594564167,-0.008317128842870967,-0.008957475317850629,0.020380000000000002,-0.01017,0.0038800000000000006,1.3313000000000001,-0.2371,-9.9258,4.944303668906195,11.060110649123025,38.43000030517578,13.84000015258789,37.64999771118164,15.90999984741211,31.205514572405548,11.238207728702776,30.57214527445839,12.919066566297225,21.483733535465987,0.9424519534232207,-25.899999618530273,53.92499923706055,0.0,644.0,0.0,0.0,0.0,snow/ice covered,0.227973371744156,-7.90488958358765,100.0,520.796203613281
frame_00131.png,1769616179774289107,1769616179.7742891,42.30112587337638,-83.69745221491696,239.1708221435547,-0.703774617271316,-0.7103207925609824,-0.008234300281284482,-0.008823606917144096,0.016690000000000003,0.01742,0.019660000000000004,2.0079000000000002,0.2816,-9.1743,4.977210732552369,11.133721776075697,37.48999786376953,14.4399995803833,38.65999984741211,15.420000076293945,30.442223923161166,11.725412796067372,31.392276321297228,12.521182234351388,21.52027381871929,0.9328912875263656,-26.30000114440918,53.79999923706055,0.0,664.0,0.0,0.0,0.0,snow/ice covered,0.227973371744156,-7.90488958358765,100.0,520.796203613281
frame_00132.png,1769616179794343446,1769616179.7943435,42.301128551531036,-83.69745230978259,239.17787170410156,-0.7038576742897833,-0.710237888095891,-0.00803592442437563,-0.009052103352890839,-0.01207,-0.042390000000000004,0.00807,2.4125,-0.46830000000000005,-9.5881,5.033039505115316,11.258607390572656,35.619998931884766,14.699999809265137,38.18000030517578,13.949999809265137,28.923767549080583,11.936535379121532,31.00251226740555,11.327528464121533,20.7975859149323,0.8472609616307486,-26.30000114440918,53.625,0.0,664.0,0.0,0.0,0.0,snow/ice covered,0.227973371744156,-7.90488958358765,100.0,520.796203613281
frame_00133.png,1769616179815017220,1769616179.8150172,42.301128551531036,-83.69745230978259,239.17787170410156,-0.7038934882046208,-0.7102004651047794,-0.007983274582492693,-0.009247916253218835,-0.020040000000000002,-0.03536,0.009850000000000003,0.216,-0.1623,-9.607800000000001,5.035326217740409,11.263722629512232,34.279998779296875,14.9399995803833,36.880001068115234,14.469999313354492,27.835675070377807,12.131417406067373,29.94690090091942,11.749772855837517,20.41594155830053,0.8125394445357209,-26.5,53.79999923706055,0.0,672.0,0.0,0.0,0.0,snow/ice covered,0.227973371744156,-7.90488958358765,100.0,520.796203613281
frame_00134.png,1769616179835618220,1769616179.8356183,42.30113036525055,-83.69745238349253,239.18133544921875,-0.7041493742595181,-0.7099327440156531,-0.008941598283440462,-0.009444867625946256,-0.04839,0.005200000000000001,0.014080000000000002,2.8908,1.4051,-8.993,5.102266351886529,11.413463693189053,33.529998779296875,15.00999927520752,35.56999969482422,14.630000114440918,27.22666815537781,12.188257803661823,28.883167707594453,11.879694981527082,20.044447162040292,0.7562107087615962,-27.0,53.775001525878906,0.0,688.0,0.0,0.0,0.0,snow/ice covered,0.227973371744156,-7.90488958358765,100.0,520.796203613281
frame_00135.png,1769616179878163001,1769616179.8781629,42.30113036525055,-83.69745238349253,239.18133544921875,-0.7044539070430483,-0.7096185049804586,-0.009541733796356174,-0.00975835832722759,-0.057150000000000006,0.04138000000000001,0.04264000000000001,-0.4006,-0.5411,-9.687800000000001,5.127966569903412,11.47095353887974,33.279998779296875,14.769999504089355,35.7599983215332,14.969999313354492,27.02366585037781,11.993375776715984,29.037448344269485,12.155777465837517,20.0525668593002,0.7481168231859602,-27.899999618530273,54.0,0.0,688.0,0.0,0.0,0.0,snow/ice covered,0.227973371744156,-7.90488958358765,100.0,520.796203613281
frame_00136.png,1769616179897835379,1769616179.8978353,42.30113407015912,-83.69745254963684,239.18678283691406,-0.7047068540938058,-0.709355982335723,-0.010298832830445803,-0.009811939668736188,-0.04996000000000001,0.03345,0.037790000000000004,2.9216,1.9334,-8.7738,5.176410607370791,11.579319944052017,33.439998626708984,15.079999923706055,36.369998931884766,15.339999198913574,27.153587201675034,12.245098975648615,29.532774464080582,12.456220784310437,20.346920356428665,0.7571774901064312,-28.0,53.79999923706055,0.0,696.0,0.0,0.0,0.0,snow/ice covered,0.227973371744156,-7.90488958358765,100.0,520.796203613281
frame_00137.png,1769616179918192820,1769616179.9181929,42.30113407015912,-83.69745254963684,239.18678283691406,-0.7049630320693766,-0.7090958898763395,-0.010630178592161681,-0.009856047845442301,-0.033690000000000005,0.01872,0.036070000000000005,1.4665000000000001,-1.2703,-11.234,5.211432626635299,11.657662099825565,34.619998931884766,15.149999618530273,39.20000076293945,15.389999389648438,28.111758329080583,12.301939373243066,31.83076204351387,12.496821400188903,21.185320286506606,0.8172872146314487,-28.30000114440918,53.67499923706055,0.0,704.0,0.0,0.0,0.0,snow/ice covered,0.227973371744156,-7.90488958358765,100.0,520.796203613281
frame_00138.png,1769616179939640918,1769616179.9396408,42.30113501019718,-83.6974525879305,239.1884765625,-0.7054432551176812,-0.7086020946404722,-0.011535113568309576,-0.009991317984712316,-0.03672,0.039310000000000005,0.04232,2.1019,1.1183,-10.058,5.257046842354354,11.759698363536149,35.91999816894531,15.420000076293945,41.5099983215332,14.609999656677246,29.167369695566713,12.521182234351388,33.70650135926949,11.863454425418759,21.814626928651585,0.8550328634527928,-28.5,53.70000076293945,0.0,708.0,0.0,0.0,0.0,snow/ice covered,0.227973371744156,-7.90488958358765,100.0,520.796203613281
frame_00139.png,1769616179960703295,1769616179.9607031,42.30113595237746,-83.69745262803889,239.1904754638672,-0.7057289321899136,-0.7083124985102384,-0.01182769703988597,-0.010009211107805081,-0.021230000000000002,0.018220000000000004,0.04267000000000001,2.2448,0.12140000000000001,-10.680200000000001,5.296536757024993,11.848034933259488,38.349998474121094,16.09000015258789,41.86000061035156,14.929999351501465,31.14055234797226,13.065228473702776,33.990706444811096,12.123297128013212,22.579946098624834,0.9057967186810879,-28.100000381469727,53.97500228881836,0.0,728.0,0.0,0.0,0.0,snow/ice covered,0.227973371744156,-7.90488958358765,100.0,520.796203613281
frame_00140.png,1769616179980647016,1769616179.9806468,42.30113595237746,-83.69745262803889,239.1904754638672,-0.7058522470511478,-0.7081863784911373,-0.011939213318677087,-0.01010513917688596,-0.029370000000000004,0.0015400000000000001,0.03526000000000001,1.7032,-0.4106,-11.5108,5.313261298580427,11.885446729246501,41.54999923706055,16.510000228881836,41.15999984741211,15.09999942779541,33.73898247148613,13.406272408054162,33.42229937129723,12.261338757364596,23.207223252050532,0.9525747563988951,-27.700000762939453,53.67499923706055,0.0,840.0,0.0,0.0,0.0,snow/ice covered,0.227973371744156,-7.90488958358765,100.0,520.796203613281
frame_00141.png,1769616180001097756,1769616180.0010977,42.30113786653414,-83.69745269422465,239.1949462890625,-0.7062852752814015,-0.7077398876485842,-0.01247984405723908,-0.010469710795987599,-0.04018,-0.018790000000000005,0.031830000000000004,2.3341000000000003,2.8399,-9.6455,5.36877104221146,12.009618695164503,45.459999084472656,15.839999198913574,37.40999984741211,15.130000114440918,36.913938397783355,12.862225394310435,30.37726479629723,12.28569959152708,23.109782044979525,0.9242727543285233,-26.899999618530273,53.525001525878906,0.0,916.0,0.0,0.0,0.0,snow/ice covered,0.227973371744156,-7.90488958358765,100.0,520.796203613281
frame_00142.png,1769616180022571152,1769616180.0225713,42.30113882465141,-83.69745272306632,239.19757080078125,-0.7064542481515669,-0.7075723451527827,-0.012384393886781033,-0.010507065796527541,0.014300000000000002,-0.007160000000000001,0.019290000000000005,1.588,0.7631,-10.103,5.400068288521792,12.079628757325938,47.37999725341797,15.40999984741211,32.75,15.429999351501465,38.472994613350075,12.513061956297227,26.593301955,12.529301738013212,22.52716506566513,0.864888856952915,-25.899999618530273,53.57500076293945,0.0,968.0,0.0,0.0,0.0,snow/ice covered,0.227973371744156,-7.90488958358765,100.0,520.796203613281
frame_00143.png,1769616180042533939,1769616180.0425339,42.30113882465141,-83.69745272306632,239.19757080078125,-0.7065194739914917,-0.7075074604367276,-0.012316291232802826,-0.010570490406174369,0.0007100000000000001,-0.01882,0.018120000000000004,1.8495000000000001,-0.5974,-10.247300000000001,5.418254710194541,12.120310691422576,48.869998931884766,15.210000038146973,29.06999969482422,15.929999351501465,39.68288971408058,12.350660267175694,23.605107777594455,12.93530634801321,22.143491026715985,0.8269738780200342,-24.80000114440918,53.625,0.0,1060.0,0.0,0.0,0.0,snow/ice covered,0.227973371744156,-7.90488958358765,100.0,520.796203613281
frame_00144.png,1769616180063103579,1769616180.0631034,42.301140773165415,-83.69745276819242,239.20352172851562,-0.7068134666193964,-0.7072092689846842,-0.012269853748424542,-0.0109189723240044,-0.010830000000000001,0.0026400000000000004,0.020530000000000003,1.9092,1.8762,-10.0504,5.445736588450102,12.181786004167572,49.31999969482422,15.279999732971191,27.44999885559082,15.899999618530273,40.04829448259445,12.407500664770147,22.289652159729197,12.910946288243066,21.914098398834216,0.7989232770414022,-23.5,53.85000228881836,0.0,1072.0,0.0,0.0,0.0,snow/ice covered,0.227973371744156,-7.90488958358765,100.0,520.796203613281
frame_00145.png,1769616180084301194,1769616180.0843012,42.30114175172499,-83.69745278661732,239.20651245117188,-0.7069204867482735,-0.7071104201026518,-0.011825973616322514,-0.01088235019936338,0.04948000000000001,-0.026580000000000003,0.015300000000000001,1.8401,1.8033000000000001,-9.8154,5.483015363113905,12.26517638636402,48.64999771118164,15.519999504089355,26.349998474121094,15.309999465942383,39.50424669445839,12.602382691715986,21.396441707972258,12.431860724540291,21.48373295467173,0.7516040762819006,-22.5,53.775001525878906,0.0,1172.0,0.0,0.0,0.0,snow/ice covered,0.227973371744156,-7.90488958358765,100.0,520.796203613281
frame_00146.png,1769616180104920458,1769616180.1049206,42.30114175172499,-83.69745278661732,239.20651245117188,-0.7069601591463679,-0.7070768883032464,-0.011479285355200226,-0.010855110081177592,0.05294000000000001,-0.04535,0.009600000000000001,1.6709,-0.0694,-11.151200000000001,5.499555625506671,12.302175960920895,48.12999725341797,15.639999389648438,22.729999542236328,15.630000114440918,39.08200152835007,12.699823705188903,18.456969198891677,12.691704201527081,20.732624658489435,0.685281101843179,-21.30000114440918,53.95000076293945,0.0,1168.0,0.0,0.0,0.0,snow/ice covered,0.227973371744156,-7.90488958358765,100.0,520.796203613281
frame_00147.png,1769616180125557388,1769616180.1255574,42.30114372989852,-83.697452813281,239.21377563476562,0.7071169632502329,0.7069317984213046,0.010790383789358173,0.01079816105950032,0.039650000000000005,-0.015830000000000004,0.01734,0.6366,0.5938,-9.5832,5.526484804484227,12.362414918542948,47.78999710083008,15.489999771118164,18.8799991607666,16.40999984741211,38.80591826964729,12.578022631945839,15.330733392134745,13.325071176297227,20.009936367506278,0.6186106435800391,-19.80000114440918,53.900001525878906,0.0,1252.0,0.0,0.0,0.0,snow/ice covered,0.227973371744156,-7.90488958358765,100.0,520.796203613281
frame_00148.png,1769616180146433535,1769616180.1464336,42.301144724842764,-83.69745282589085,239.21730041503906,0.7072086905050167,0.7068465389663581,0.010510488433833651,0.010647443746883202,0.024220000000000005,-0.020660000000000005,0.00966,2.608,-0.45080000000000003,-9.0311,5.57203508378585,12.46430816032392,46.53999710083008,15.529999732971191,16.469999313354492,17.969999313354492,37.790906744647295,12.610502969770145,13.373791295837517,14.591805125837517,19.591751534023118,0.5718282380394846,-19.200000762939453,53.625,0.0,1256.0,0.0,0.0,0.0,snow/ice covered,0.227973371744156,-7.90488958358765,100.0,520.796203613281
frame_00149.png,1769616180166719347,1769616180.1667192,42.301144724842764,-83.69745282589085,239.21730041503906,0.7074889018852661,0.7065692896131327,0.010041893158708999,0.01088361459086971,0.00192,-0.034890000000000004,0.028230000000000005,0.5462,0.0521,-9.1799,5.618025982064657,12.567187040319716,44.75,15.639999389648438,16.31999969482422,20.479999542236328,36.337412595,12.699823705188903,13.251990222594452,16.62994845389168,19.72979374416876,0.569945102342236,-18.80000114440918,53.775001525878906,0.0,1196.0,0.0,0.0,0.0,snow/ice covered,0.227973371744156,-7.90488958358765,100.0,520.796203613281
frame_00150.png,1769616180187497048,1769616180.187497,42.30114774353799,-83.69745286890522,239.22653198242188,0.7077206824498794,0.706337029782281,0.01000009078628386,0.010928594387586829,0.005700000000000001,0.004880000000000001,0.03585000000000001,-0.4975,0.2514,-9.801400000000001,5.613460844887516,12.556975102362681,42.79999923706055,15.789999961853027,16.10999870300293,21.299999237060547,34.75399399648613,12.821625552824306,13.08146748102642,17.29579576648613,19.488220699205748,0.5519837015157341,-18.80000114440918,54.04999923706055,0.0,1080.0,0.0,0.0,0.0,snow/ice covered,0.227973371744156,-7.90488958358765,100.0,520.796203613281
frame_00151.png,1769616180210448766,1769616180.2104487,42.30114774353799,-83.69745286890522,239.22653198242188,0.7078428140996489,0.7062141800641878,0.010101165765994421,0.010865028942665361,-0.005330000000000001,0.022140000000000003,0.035120000000000005,1.5705,-0.9151,-9.815900000000001,5.628945247630943,12.591612782235563,41.07999801635742,15.859999656677246,16.579999923706055,20.59000015258789,33.35733714686394,12.878465950418759,13.463112805648613,16.719269963702775,19.104546466658523,0.517243803241115,-18.80000114440918,54.07500076293945,0.0,984.0,0.0,0.0,0.0,snow/ice covered,0.227973371744156,-7.90488958358765,100.0,520.796203613281
frame_00152.png,1769616180228672329,1769616180.2286723,42.30114875944138,-83.697452886261,239.2296600341797,0.7081067071397645,0.7059419115936623,0.010296649539823925,0.011175319566793282,-0.035350000000000006,-0.0030400000000000006,0.04889,0.8312,1.5835000000000001,-9.459800000000001,5.662228280938771,12.666064930763175,39.55999755859375,15.90999984741211,18.079999923706055,20.94999885559082,32.123082760755615,12.919066566297225,14.681126635648614,17.011592229729196,19.18371704810766,0.5145759281175398,-18.80000114440918,53.92499923706055,0.0,984.0,0.0,0.0,0.0,snow/ice covered,0.227973371744156,-7.90488958358765,100.0,520.796203613281
frame_00153.png,1769616180249643307,1769616180.2496433,42.30115080027464,-83.69745292400626,239.23568725585938,0.7086533866451379,0.7054024581407762,0.009792017512221049,0.01103929519343477,0.044950000000000004,-0.045660000000000006,0.04082000000000001,1.4071,-0.9768,-10.4604,5.727338070648691,12.811711623756883,37.91999816894531,16.020000457763672,21.35999870300293,21.93000030517578,30.791388135566713,13.008388076108323,17.34451588602642,17.807362442405548,19.73791363502675,0.5406148854011467,-18.80000114440918,53.775001525878906,0.0,852.0,0.0,0.0,0.0,snow/ice covered,0.227973371744156,-7.90488958358765,100.0,520.796203613281
frame_00154.png,1769616180270145476,1769616180.2701457,42.30115080027464,-83.69745292400626,239.23568725585938,0.7088645798312714,0.7051924804472179,0.009595970159803796,0.011067535318547487,0.023770000000000003,-0.03318000000000001,0.05917000000000001,-0.7265,-1.562,-10.6789,5.719812983903539,12.794878456213183,36.23999786376953,16.229999542236328,23.15999984741211,21.75,29.427212398161167,13.178909268891678,18.80613341129723,17.661200535000003,19.76836390333752,0.5450216249407213,-18.700000762939453,53.875,0.0,852.0,0.0,0.0,0.0,snow/ice covered,0.227973371744156,-7.90488958358765,100.0,520.796203613281
frame_00155.png,1769616180290792415,1769616180.2907925,42.30115183217641,-83.69745294086222,239.23878479003906,0.7094024300022715,0.7046562970136627,0.009541139448484275,0.010801020502231107,0.029990000000000003,0.018600000000000002,0.07789000000000001,1.1047,1.7623,-9.486600000000001,5.726942884646135,12.810827616380326,32.599998474121094,16.399999618530273,24.1299991607666,22.8799991607666,26.47149933297226,13.316950898243064,19.593781797134746,18.578770272134744,19.490250575121202,0.521388871879,-18.5,53.625,0.0,924.0,0.0,0.0,0.0,snow/ice covered,0.227973371744156,-7.90488958358765,100.0,520.796203613281
frame_00156.png,1769616180311422780,1769616180.3114228,42.301152861478535,-83.69745295144438,239.24143981933594,0.7100744441043539,0.7040042908867821,0.008718709192784694,0.00980950319349805,0.08791000000000002,0.012110000000000003,0.06130000000000001,1.4018000000000002,-1.6680000000000001,-8.77,5.760709449061543,12.886361394983728,32.0099983215332,16.489999771118164,26.739999771118164,25.760000228881836,25.992413769269486,13.39003185194584,21.71312635694584,20.917357693054164,20.50323241780383,0.5910800410878683,-17.600000381469727,53.5,0.0,924.0,0.0,0.0,0.0,snow/ice covered,0.227973371744156,-7.90488958358765,100.0,520.796203613281
frame_00157.png,1769616180334882808,1769616180.3348827,42.30115493056343,-83.6974529962545,239.2464599609375,0.7105676125771829,0.7035136474469562,0.008463786413037905,0.009517359497093198,0.023000000000000003,-0.014780000000000003,0.07064000000000002,1.2516,-1.1019,-8.8949,5.788342133782387,12.948174052743173,31.84000015258789,16.729999542236328,27.56999969482422,27.559999465942383,25.854373688702776,13.58491387889168,22.38709394759445,22.37897366954029,21.0513387961823,0.6258152470326429,-16.700000762939453,53.150001525878906,0.0,1024.0,0.0,0.0,0.0,snow/ice covered,0.227973371744156,-7.90488958358765,100.0,520.796203613281
frame_00158.png,1769616180352969869,1769616180.35297,42.30115493056343,-83.6974529962545,239.2464599609375,0.7108662361528851,0.703213352579815,0.008431570923022953,0.009438414223664144,0.015850000000000003,0.00543,0.08476000000000002,-0.3947,1.024,-9.1668,5.7844070112713695,12.939371419793378,31.469999313354492,17.31999969482422,29.03999900817871,29.479999542236328,25.553929595837516,14.06399944259445,23.58074694343197,23.93803143389168,21.784176853938902,0.6835575815232887,-15.699999809265137,52.125,0.0,972.0,0.0,0.0,0.0,snow/ice covered,0.227973371744156,-7.90488958358765,100.0,520.796203613281
frame_00159.png,1769616180373900245,1769616180.3739002,42.3011559697133,-83.69745301467762,239.2480926513672,0.7115881300915279,0.7024937709550451,0.008436772613121972,0.008582292821716195,0.030850000000000002,0.0158,0.06149000000000001,1.5964,-1.0639,-9.8081,5.814706522204045,13.007149607779116,33.63999938964844,18.549999237060547,33.29999923706055,32.529998779296875,27.315989665188905,15.06277041148613,27.03990640648613,26.41465893537781,23.958331354634744,0.8419355567576553,-13.90000057220459,51.32500076293945,0.0,928.0,0.0,0.0,0.0,snow/ice covered,0.227973371744156,-7.90488958358765,100.0,520.796203613281
frame_00160.png,1769616180394361876,1769616180.394362,42.301158065891585,-83.69745306628829,239.25152587890625,0.7121771811369063,0.7018969403649733,0.00877177521688952,0.008209977693243149,-0.006090000000000001,0.04175000000000001,0.08646000000000001,2.7186000000000003,-0.4887,-9.788400000000001,5.855246807329012,13.09783579318656,37.25,20.25,35.619998931884766,34.5099983215332,30.247343445,16.443186705,28.923767549080583,28.022436819269487,25.909183629587517,0.9781270767698407,-12.300000190734863,51.375,0.0,928.0,0.0,0.0,0.0,snow/ice covered,0.227973371744156,-7.90488958358765,100.0,520.796203613281
frame_00161.png,1769616180414948484,1769616180.4149487,42.30115912135623,-83.69745308457951,239.25315856933594,0.7129556933290531,0.7011073440785524,0.009049798640227504,0.007795676582513096,0.028900000000000006,0.05699000000000001,0.07329000000000001,0.9034000000000001,0.9073,-9.7498,5.887198668286631,13.169310189037098,40.30999755859375,22.139999389648438,37.29999923706055,35.459999084472656,32.73208967575562,17.977883635188903,30.28794328648613,28.793846197783356,27.4479406988035,1.0842352640195814,-9.5,51.400001525878906,0.0,928.0,0.0,0.0,0.0,snow/ice covered,0.227973371744156,-7.90488958358765,100.0,520.796203613281
frame_00162.png,1769616180436021659,1769616180.4360218,42.30115912135623,-83.69745308457951,239.25315856933594,0.7131547376554382,0.7009054153542738,0.009222722756388212,0.007540575018844293,0.012120000000000002,0.05974000000000001,0.05732000000000001,2.0821,-1.8937000000000002,-9.9381,5.907681415441683,13.21512886545812,43.09000015258789,24.09000015258789,40.86000061035156,37.89999771118164,34.98947741370278,19.561302233702776,33.178697224811096,30.775147579458388,29.62615611291876,1.2418363388310198,-7.400000095367432,51.70000076293945,0.0,760.0,0.0,0.0,0.0,snow/ice covered,0.227973371744156,-7.90488958358765,100.0,520.796203613281
frame_00163.png,1769616180458503271,1769616180.4585032,42.30116125646937,-83.69745313553662,239.25662231445312,0.7136904368137966,0.70035628170702,0.00967958099739868,0.007303751485678173,-0.01271,0.04061000000000001,0.08532000000000002,2.7705,1.0163,-9.956100000000001,5.956682018127385,13.324740273629873,46.31999969482422,26.279998779296875,44.14999771118164,40.0099983215332,37.61226682259446,21.33960131037781,35.85020520445839,32.488487529269484,31.822640216675033,1.3882371861050946,-5.400000095367432,51.45000076293945,0.0,752.0,0.0,0.0,0.0,snow/ice covered,0.227973371744156,-7.90488958358765,100.0,520.796203613281
frame_00164.png,1769616180476976046,1769616180.4769762,42.301162331595705,-83.69745314704441,239.25894165039062,0.7143715399543397,0.6996626851926602,0.009692654716658393,0.0071751165011848,0.016390000000000002,0.013720000000000001,0.05618000000000001,-0.5123,1.6308,-11.3817,5.982837224399192,13.383247900747529,49.16999816894531,28.09000015258789,45.55999755859375,39.040000915527344,39.92649186056671,22.809339113702777,36.995138080755616,31.700840692216648,32.857952436810436,1.455155331537656,-3.299999952316284,51.57500076293945,0.0,752.0,0.0,0.0,0.0,snow/ice covered,0.227973371744156,-7.90488958358765,100.0,520.796203613281
frame_00165.png,1769616180498187132,1769616180.498187,42.30116341336116,-83.69745316770232,239.26095581054688,0.7147161069563187,0.6993121809805936,0.009845869923659802,0.00681313692919757,0.0013700000000000001,0.02645,0.050620000000000005,2.9971,-1.2874,-10.7133,6.02971426182189,13.48810902083986,51.96999740600586,29.40999984741211,46.28999710083008,36.30999755859375,42.20011705705284,23.881191036297228,37.587904439647296,29.484052795755616,33.288316332188245,1.4679750349553073,-1.3000000715255737,51.75,0.0,696.0,0.0,0.0,0.0,snow/ice covered,0.227973371744156,-7.90488958358765,100.0,520.796203613281
frame_00166.png,1769616180518479597,1769616180.5184796,42.30116341336116,-83.69745316770232,239.26095581054688,0.7149389879574403,0.6990836043005817,0.009831364907917584,0.006906660592960725,-0.011430000000000003,-0.01589,0.06359000000000001,2.6269,1.353,-10.7074,6.055353436100417,13.545462315350468,55.30999755859375,30.44999885559082,47.959999084472656,34.66999816894531,44.91222797575561,24.725679819729198,38.94396144778336,28.152358170566714,34.18355685345872,1.5236168436067343,0.6000000238418579,51.5,0.0,696.0,0.0,0.0,0.0,snow/ice covered,0.227973371744156,-7.90488958358765,100.0,520.796203613281
frame_00167.png,1769616180539072204,1769616180.5390723,42.30116559408412,-83.69745318459462,239.2671356201172,0.7153966915978056,0.6986235726714901,0.009316573197314229,0.0067733907680463295,0.03391,-0.01923,0.032490000000000005,1.0346,-0.23720000000000002,-10.243400000000001,6.0812172238952265,13.60331805682019,58.28999710083008,30.75,48.459999084472656,32.30999755859375,47.3320150796473,24.969283515,39.34996605778336,26.236015915755615,34.47182014204657,1.534074407292396,2.1000001430511475,51.275001525878906,0.0,792.0,0.0,0.0,0.0,snow/ice covered,0.227973371744156,-7.90488958358765,100.0,520.796203613281
frame_00168.png,1769616180559962977,1769616180.559963,42.301166690961935,-83.69745319151792,239.27044677734375,0.7157124264878372,0.6983034583350055,0.009032710979312223,0.006812692612153035,0.013920000000000002,-0.026850000000000002,0.04490000000000001,1.9680000000000002,0.38330000000000003,-10.4359,6.124180975136486,13.699425390521812,60.29999923706055,30.170000076293945,47.5,28.139999389648438,48.96415534648614,24.498318229351387,38.57043795,22.849938955188904,33.720712620256606,1.4614691243610023,3.4000000953674316,51.625,0.0,792.0,0.0,0.0,0.0,snow/ice covered,0.227973371744156,-7.90488958358765,100.0,520.796203613281
frame_00169.png,1769616180580524433,1769616180.5805244,42.301166690961935,-83.69745319151792,239.27044677734375,0.715840014435576,0.6981747619413312,0.00885195442073913,0.00683508770778849,0.022040000000000004,-0.029430000000000005,0.03595000000000001,1.6783000000000001,1.4511,-10.476,6.140595748619494,13.73614425391689,57.96999740600586,27.06999969482422,48.43000030517578,26.079999923706055,47.07217237705284,21.98108933759445,39.32560677240555,21.17720039564861,32.38901722067536,1.357940963778068,3.799999952316284,51.57500076293945,0.0,720.0,0.0,0.0,0.0,snow/ice covered,0.227973371744156,-7.90488958358765,100.0,520.796203613281
frame_00170.png,1769616180601070945,1769616180.601071,42.30116890406736,-83.69745320343613,239.2777862548828,0.7160379935044737,0.6979769038450008,0.008436084078718284,0.006831254822563472,0.028490000000000005,-0.021320000000000006,0.022670000000000003,1.0907,-0.2626,-9.9038,6.1614220493289285,13.782731439025854,54.97999954223633,25.19999885559082,50.23999786376953,26.010000228881836,44.64426654389168,20.462631414729195,40.79534147816117,21.120359998054163,31.755649858709056,1.3040171680914292,4.0,51.42499923706055,0.0,744.0,0.0,0.0,0.0,snow/ice covered,0.227973371744156,-7.90488958358765,100.0,520.796203613281
frame_00171.png,1769616180645050429,1769616180.6450503,42.30117001428061,-83.69745320254911,239.281494140625,0.7163298724933881,0.6976765799421811,0.008088878744259238,0.007312565517546272,-0.0034600000000000004,-0.023250000000000003,0.011730000000000003,0.9578000000000001,1.1314,-8.9049,6.211320521602717,13.894351327593983,51.09000015258789,21.03999900817871,51.25,22.709999084472656,41.485551173702774,17.08467318343197,41.615472525,18.440728642783355,29.656606381229526,1.1344361951127528,3.700000047683716,51.125,0.0,832.0,0.0,0.0,0.0,snow/ice covered,0.227973371744156,-7.90488958358765,100.0,520.796203613281
frame_00172.png,1769616180663270707,1769616180.6632707,42.30117001428061,-83.69745320254911,239.281494140625,0.7163619488377225,0.6976396372178761,0.008123304044003573,0.007648971913871168,-0.03835,-0.025130000000000006,0.004920000000000001,0.2745,-0.26730000000000004,-9.689,6.228170882605488,13.93204457413552,49.14999771118164,17.06999969482422,52.75,22.56999969482422,39.91025130445839,13.860997137594453,42.833486355000005,18.327047847594454,28.73294566116183,1.0623638912628657,3.299999952316284,51.45000076293945,0.0,788.0,0.0,0.0,0.0,snow/ice covered,0.227973371744156,-7.90488958358765,100.0,520.796203613281
frame_00173.png,1769616180683858066,1769616180.6838582,42.30117001428061,-83.69745320254911,239.281494140625,0.7163958361930777,0.6975990693854672,0.008462372710309031,0.007805928891743477,-0.027190000000000002,0.012480000000000002,-3e-05,2.623,0.5998,-9.2409,6.261830967599591,14.007340164662232,47.93000030517578,17.93000030517578,53.05999755859375,21.60999870300293,38.91960216240555,14.559325562405549,43.085207230755614,17.54751819102642,28.527913286648285,1.0366402865419524,2.200000047683716,51.70000076293945,0.0,784.0,0.0,0.0,0.0,snow/ice covered,0.227973371744156,-7.90488958358765,100.0,520.796203613281
frame_00174.png,1769616180704544255,1769616180.7045443,42.30117679366808,-83.69745319600473,239.30003356933594,0.7163915988699717,0.6975985590995435,0.00859185314899103,0.00809366852744721,-0.03608000000000001,-0.01736,0.004430000000000001,2.0159000000000002,-0.0217,-9.1358,6.311832804656663,14.119191274048676,47.20000076293945,18.170000076293945,52.47999954223633,18.600000381469727,38.32683580351387,14.754207589351388,42.61424349389168,15.103371801756936,27.69966467212847,0.9618449905867446,2.200000047683716,51.5,0.0,804.0,0.0,0.0,0.0,snow/ice covered,0.227973371744156,-7.90488958358765,100.0,520.796203613281
frame_00175.png,1769616180725233210,1769616180.725233,42.30117679366808,-83.69745319600473,239.30003356933594,0.716329628547802,0.6976557202449217,0.009085521373194868,0.008112495022171966,0.00151,0.031080000000000007,-0.010260000000000002,1.4994,1.6187,-10.1683,6.342471702194254,14.187728649506415,47.70000076293945,18.059999465942383,52.31999969482422,18.079999923706055,38.73284041351387,14.66488607954029,42.48432214259446,14.681126635648614,27.640793817824306,0.9482183865129051,1.8000000715255737,51.625,0.0,804.0,0.0,0.0,0.0,snow/ice covered,0.227973371744156,-7.90488958358765,100.0,520.796203613281
frame_00176.png,1769616180746240071,1769616180.74624,42.30117679366808,-83.69745319600473,239.30003356933594,0.7162639788164226,0.6977239711390237,0.00909839825036299,0.008024456201882139,0.01048,0.014480000000000002,-0.020100000000000003,2.8366000000000002,0.4348,-10.354700000000001,6.370689463736071,14.250850089009768,48.15999984741211,18.350000381469727,51.12999725341797,18.059999465942383,39.10636391129723,14.900369496756936,41.51802918835007,14.66488607954029,27.54741216898613,0.9330364151560789,1.8000000715255737,51.5,0.0,756.0,0.0,0.0,0.0,snow/ice covered,0.227973371744156,-7.90488958358765,100.0,520.796203613281
frame_00177.png,1769616180766897082,1769616180.7668972,42.301177940924916,-83.69745318779565,239.30294799804688,0.7161261226575382,0.6978657960874356,0.009043312603565227,0.008057642079700967,-0.0023600000000000006,-0.0016400000000000002,-0.019360000000000002,0.7688,0.24700000000000003,-9.7321,6.399349790133637,14.314961519541539,46.41999816894531,18.399999618530273,46.77000045776367,18.15999984741211,37.69346650556671,14.940969338243065,37.977671591108326,14.746087311297225,26.339548686553833,0.8400013615542993,1.600000023841858,51.35000228881836,0.0,764.0,0.0,0.0,0.0,snow/ice covered,0.227973371744156,-7.90488958358765,100.0,520.796203613281
frame_00178.png,1769616180787331363,1769616180.7873313,42.301177940924916,-83.69745318779565,239.30294799804688,0.7159654610713043,0.6980300078065838,0.009219205633107692,0.007910309854223719,-0.00923,0.032830000000000005,-0.016560000000000002,2.2074000000000003,-0.055200000000000006,-11.0509,6.405072971801463,14.327763933541565,44.5099983215332,18.719999313354492,43.46999740600586,18.619998931884766,36.14252901926949,15.200812040837517,35.298038687052845,15.119610809080582,25.440247639060107,0.7755909266137481,1.7000000476837158,50.97500228881836,0.0,764.0,0.0,0.0,0.0,snow/ice covered,0.227973371744156,-7.90488958358765,100.0,520.796203613281
frame_00179.png,1769616180808137966,1769616180.808138,42.30118140802104,-83.69745315382357,239.31289672851562,0.7157923023288643,0.6982045609316192,0.009338004053192172,0.00803571411455713,-0.010190000000000001,-0.012990000000000002,-0.022670000000000003,3.4877000000000002,1.9377000000000002,-9.8291,6.469763076249524,14.472471815785612,42.68000030517578,18.770000457763672,41.13999938964844,18.479999542236328,34.65655375740555,15.241413431108322,33.406058815188906,15.005930013891678,24.577489004398615,0.6982233109337356,1.7000000476837158,51.0,0.0,768.0,0.0,0.0,0.0,snow/ice covered,0.227973371744156,-7.90488958358765,100.0,520.796203613281
frame_00180.png,1769616180828901957,1769616180.828902,42.30118140802104,-83.69745315382357,239.31289672851562,0.7157199294138552,0.6982801852671147,0.009057816957305733,0.008229304655784435,0.01152,-0.06695000000000001,-0.02177,0.5497000000000001,-0.2775,-11.126000000000001,6.475060668270932,14.48432221128198,40.52000045776367,18.279998779296875,38.38999938964844,18.68000030517578,32.902613966108326,14.843527550377807,31.173033460188904,15.16833247740555,23.52187686352015,0.6239542672696642,1.5,50.775001525878906,0.0,768.0,0.0,0.0,0.0,snow/ice covered,0.227973371744156,-7.90488958358765,100.0,520.796203613281
frame_00181.png,1769616180849532144,1769616180.8495321,42.30118257138216,-83.69745314427992,239.31703186035156,0.7155781476396497,0.6984200577148497,0.009280339744623514,0.008438773395335506,-0.045840000000000006,0.015300000000000001,-0.018680000000000006,0.8326,-0.3788,-11.2448,6.470723405275264,14.474620014196448,37.22999954223633,18.510000228881836,37.11000061035156,18.739999771118164,30.23110288889168,15.030290848054163,30.1336626498111,15.21705259694584,22.653027245925696,0.5650170590805156,0.800000011920929,50.57500076293945,0.0,572.0,0.0,0.0,0.0,snow/ice covered,0.227973371744156,-7.90488958358765,100.0,520.796203613281
frame_00182.png,1769616180870110445,1769616180.8701105,42.301183745214495,-83.69745312783664,239.320556640625,0.7154004603355949,0.6985965782080608,0.00932436189235812,0.008835074584170124,-0.031720000000000005,-0.06354000000000001,-0.014510000000000002,1.9835,-0.29960000000000003,-10.2009,6.547713171287137,14.64684150137905,33.46999740600586,18.829999923706055,37.27000045776367,18.94999885559082,27.177946487052843,15.290133550648614,30.263584001108324,15.387573789729194,22.029809457134743,0.504065532153165,0.6000000238418579,50.900001525878906,0.0,524.0,0.0,0.0,0.0,snow/ice covered,0.227973371744156,-7.90488958358765,100.0,520.796203613281
frame_00183.png,1769616180890823686,1769616180.8908236,42.301183745214495,-83.69745312783664,239.320556640625,0.7153657674874783,0.6986296350747304,0.009393701407170208,0.008956007831227767,0.0034900000000000005,-0.0033900000000000007,-0.014720000000000002,1.6025,1.8412000000000002,-10.2931,6.567246745291662,14.690536934412732,28.459999084472656,19.1299991607666,37.91999816894531,19.309999465942383,23.109781657783355,15.533735697134745,30.791388135566713,15.679897604540292,21.278700773756277,0.44846310715238086,0.0,50.75,0.0,512.0,0.0,0.0,0.0,snow/ice covered,0.227973371744156,-7.90488958358765,100.0,520.796203613281
frame_00184.png,1769616180911739096,1769616180.911739,42.301187289386625,-83.69745309069867,239.33213806152344,0.715222023282777,0.698783187715188,0.009116275109271748,0.008741138714356642,0.04098,-0.0027400000000000002,-0.024100000000000003,2.7099,-0.18460000000000001,-9.834200000000001,6.612379673126959,14.791496586004621,25.729999542236328,19.399999618530273,39.790000915527344,20.03999900817871,20.892996858891678,15.752978558243067,32.309847607216646,16.27266396343197,21.30712174694584,0.4404980336544278,-0.6000000238418579,50.92499923706055,0.0,492.0,0.0,0.0,0.0,snow/ice covered,0.227973371744156,-7.90488958358765,100.0,520.796203613281
frame_00185.png,1769616180932140430,1769616180.9321406,42.301187289386625,-83.69745309069867,239.33213806152344,0.7151759061122496,0.6988326146141305,0.008972589279765741,0.0087116421940781,0.023990000000000004,-0.01631,-0.014930000000000002,2.3179000000000003,-1.1368,-9.1668,6.63535156424416,14.842883328120331,23.369998931884766,19.25,42.70000076293945,21.28999900817871,18.976654604080583,15.631177485000002,34.672794313513876,17.28767548843197,21.64207547275661,0.45807758468026116,-0.9000000357627869,50.67499923706055,0.0,492.0,0.0,0.0,0.0,snow/ice covered,0.227973371744156,-7.90488958358765,100.0,520.796203613281
frame_00186.png,1769616180952902099,1769616180.952902,42.301189681403514,-83.69745304672806,239.33932495117188,0.7150529725668815,0.6989760796169263,0.008241423383550855,0.007985329500545393,0.07746000000000001,0.014460000000000002,-0.021530000000000004,1.909,-0.0251,-9.0768,6.671904248966914,14.92464949068405,21.09000015258789,20.079999923706055,44.45000076293945,21.53999900817871,17.125274573702775,16.305145075648614,36.09381044851388,17.49067779343197,21.75372697282431,0.4575703762023331,-1.2000000476837158,50.85000228881836,0.0,372.0,0.0,0.0,0.0,snow/ice covered,0.227973371744156,-7.90488958358765,100.0,520.796203613281
frame_00187.png,1769616180973717006,1769616180.973717,42.301189681403514,-83.69745304672806,239.33932495117188,0.7150097541544127,0.6990258200900644,0.008022920067669467,0.007719265836000239,0.06873000000000001,0.006050000000000001,-0.013120000000000001,2.1624000000000003,0.38280000000000003,-8.8961,6.693462891953861,14.972874881527272,20.68000030517578,21.209999084472656,45.06999969482422,18.760000228881836,16.79235091740555,17.222714812783355,36.59725529759446,15.233293153054163,21.461403545209382,0.43335222627735365,-1.2000000476837158,50.54999923706055,0.0,288.0,0.0,0.0,0.0,snow/ice covered,0.227973371744156,-7.90488958358765,100.0,520.796203613281
frame_00188.png,1769616180994262950,1769616180.994263,42.301192092469684,-83.69745299464111,239.3456268310547,0.7149641826458951,0.6990843537799516,0.00751749845730676,0.0071253807265987176,0.08226000000000001,0.0034800000000000005,-0.00858,1.3257,1.2627000000000002,-8.819,6.726722100039589,15.047273734462559,23.619998931884766,22.479999542236328,45.78999710083008,19.149999618530273,19.17965690908058,18.25396689389168,37.18189982964729,15.549976253243067,22.541374971465657,0.4980371440867367,-0.9000000357627869,50.17499923706055,0.0,288.0,0.0,0.0,0.0,snow/ice covered,0.227973371744156,-7.90488958358765,100.0,520.796203613281
frame_00189.png,1769616181014986013,1769616181.014986,42.30119331136596,-83.69745295474287,239.34788513183594,0.7147487457800086,0.6993286875520149,0.006500865625146082,0.005599635595735762,0.14189000000000002,0.024990000000000005,-0.027500000000000004,2.869,0.5575,-8.8969,6.783981553838422,15.175359697043321,26.53999900817871,23.600000381469727,45.0,19.010000228881836,21.550723893431968,19.163417901756937,36.5404149,15.436295458054161,23.172713038310768,0.5269959658897314,-0.6000000238418579,49.900001525878906,0.0,284.0,0.0,0.0,0.0,snow/ice covered,0.227973371744156,-7.90488958358765,100.0,520.796203613281
