image_filename,timestamp_ns,timestamp_sec,latitude,longitude,altitude,orientation_x,orientation_y,orientation_z,orientation_w,angular_velocity_x,angular_velocity_y,angular_velocity_z,linear_acceleration_x,linear_acceleration_y,linear_acceleration_z,vehicle_speed_mps,vehicle_speed_mph,wheel_speed_fl_rads,wheel_speed_fr_rads,wheel_speed_rl_rads,wheel_speed_rr_rads,wheel_speed_fl_mph,wheel_speed_fr_mph,wheel_speed_rl_mph,wheel_speed_rr_mph,avg_wheel_speed_mph,wheel_slip,steering_angle_deg,throttle_pedal,brake_pedal,brake_torque_actual,abs_active,esc_active,trac_active,marwis_road_condition,marwis_friction,marwis_surface_temp_c,marwis_ice_percent,marwis_water_film_height
arenacam6_1769615062685319844.png,1769615062685319844,1769615062.68532,42.29944128267303,-83.6975522581557,234.33575439453125,0.7317283375239436,0.6815166753212997,0.006085476752875131,0.008463350172245247,-0.0007400000000000001,-0.0005700000000000001,0.0006500000000000001,-0.017,0.2048,-9.799100000000001,0.00950562366827342,0.021263509808507546,0.0,0.0,0.0,0.0,0.0,0.0,0.0,0.0,0.0,0.0,3.1000001430511475,0.0,1812.0,1820.0,0.0,0.0,0.0,snow covered,0.265721380710602,-8.90156364440918,100.0,431.793212890625
arenacam6_1769615062705843934.png,1769615062705843934,1769615062.705844,42.29944128176413,-83.69755225678847,234.3357696533203,0.7317280578023909,0.681517134730723,0.006075057310257356,0.008458024109872266,0.0006100000000000001,-0.0012000000000000001,-1e-05,-0.023,0.2165,-9.7965,0.00932714650736517,0.020864267108185446,0.0,0.0,0.0,0.0,0.0,0.0,0.0,0.0,0.0,0.0,3.1000001430511475,0.0,1812.0,1820.0,0.0,0.0,0.0,snow covered,0.265721380710602,-8.90156364440918,100.0,431.793212890625
arenacam6_1769615062724449582.png,1769615062724449582,1769615062.7244496,42.29944128093977,-83.69755225543307,234.3357696533203,0.7317308047816141,0.6815142166322508,0.00607402632436839,0.008456244201306747,0.00032,-0.00014000000000000004,0.00072,-0.0273,0.21480000000000002,-9.808300000000001,0.009241581106048308,0.020672862439363702,0.0,0.0,0.0,0.0,0.0,0.0,0.0,0.0,0.0,0.0,3.1000001430511475,0.0,1812.0,1820.0,0.0,0.0,0.0,snow covered,0.265721380710602,-8.90156364440918,100.0,431.793212890625
arenacam6_1769615062745152108.png,1769615062745152108,1769615062.745152,42.299441282634746,-83.69755225587606,234.33583068847656,0.7317311462174546,0.6815138698632972,0.006071902200880347,0.00845617188248124,0.00017,-0.0006300000000000001,-0.00014000000000000004,-0.026600000000000002,0.2024,-9.806700000000001,0.009248143166037014,0.020687541373834842,0.0,0.0,0.0,0.0,0.0,0.0,0.0,0.0,0.0,0.0,3.1000001430511475,0.0,1812.0,1820.0,0.0,0.0,0.0,snow covered,0.265721380710602,-8.90156364440918,100.0,431.793212890625
arenacam6_1769615062765995172.png,1769615062765995172,1769615062.7659953,42.29944128184767,-83.69755225453004,234.33584594726562,0.731724974342683,0.681520539556885,0.006062666531492919,0.008459323839402367,-0.00030000000000000003,-0.00111,-0.00111,-0.0178,0.1927,-9.798300000000001,0.009241302059957483,0.020672238230001295,0.0,0.0,0.0,0.0,0.0,0.0,0.0,0.0,0.0,0.0,3.1000001430511475,0.0,1812.0,1820.0,0.0,0.0,0.0,snow covered,0.265721380710602,-8.90156364440918,100.0,431.793212890625
arenacam6_1769615062786680514.png,1769615062786680514,1769615062.7866805,42.2994412811406,-83.69755225320495,234.3358612060547,0.7317263676627139,0.6815191163758735,0.006058144399765015,0.008456699581474304,0.00099,-0.0004300000000000001,0.00042000000000000007,-0.0194,0.19210000000000002,-9.8086,0.009241017935552483,0.020671602660754775,0.0,0.0,0.0,0.0,0.0,0.0,0.0,0.0,0.0,0.0,3.1000001430511475,0.0,1812.0,1820.0,0.0,0.0,0.0,snow covered,0.265721380710602,-8.90156364440918,100.0,431.793212890625
arenacam6_1769615062807362279.png,1769615062807362279,1769615062.8073623,42.29944128282239,-83.697552253687,234.33592224121094,0.7317303314130895,0.6815146795689146,0.00606336995654898,0.008467536060731772,-0.0013000000000000002,-0.00101,0.0010800000000000002,-0.0296,0.1892,-9.8007,0.009020440301139281,0.020178183727230504,0.0,0.0,0.0,0.0,0.0,0.0,0.0,0.0,0.0,0.0,3.1000001430511475,0.0,1812.0,1820.0,0.0,0.0,0.0,snow covered,0.265721380710602,-8.90156364440918,100.0,431.793212890625
arenacam6_1769615062828007123.png,1769615062828007123,1769615062.8280072,42.299441281676856,-83.6975522524623,234.33590698242188,0.7317296661538724,0.6815154043563824,0.0060641352890207865,0.008466141889647831,0.00058,-0.00055,0.00055,-0.0247,0.1882,-9.800600000000001,0.009106001253002578,0.020369578442891587,0.0,0.0,0.0,0.0,0.0,0.0,0.0,0.0,0.0,0.0,3.1000001430511475,0.0,1812.0,1820.0,0.0,0.0,0.0,snow covered,0.265721380710602,-8.90156364440918,100.0,431.793212890625
arenacam6_1769615062848550039.png,1769615062848550039,1769615062.84855,42.29944128061036,-83.69755225130531,234.33590698242188,0.7317236236964738,0.6815218879110605,0.006075453048230449,0.008458350483633978,-0.00029,0.0005900000000000001,-0.00102,-0.0267,0.18610000000000002,-9.802900000000001,0.00889270056058099,0.01989243759198604,0.0,0.0,0.0,0.0,0.0,0.0,0.0,0.0,0.0,0.0,3.1000001430511475,0.0,1812.0,1820.0,0.0,0.0,0.0,snow covered,0.265721380710602,-8.90156364440918,100.0,431.793212890625
arenacam6_1769615062871003327.png,1769615062871003327,1769615062.8710034,42.29944128121749,-83.6975522509424,234.3359375,0.7317283847408782,0.6815167279009693,0.00607960851561244,0.008459250318910316,-0.00014000000000000004,-0.00012,0.00020000000000000004,-0.0234,0.1935,-9.7852,0.008679502501081947,0.01941552632477025,0.0,0.0,0.0,0.0,0.0,0.0,0.0,0.0,0.0,0.0,3.1000001430511475,0.0,1812.0,1820.0,0.0,0.0,0.0,snow covered,0.265721380710602,-8.90156364440918,100.0,431.793212890625
arenacam6_1769615062890064250.png,1769615062890064250,1769615062.8900642,42.29944128121749,-83.6975522509424,234.3359375,0.7317324865161817,0.6815123466369637,0.006078535491487979,0.008458189197688887,-0.0002800000000000001,0.00051,0.0005700000000000001,-0.020300000000000002,0.2074,-9.8064,0.008878957054916783,0.019861694194425548,0.0,0.0,0.0,0.0,0.0,0.0,0.0,0.0,0.0,0.0,3.1000001430511475,0.0,1812.0,1820.0,0.0,0.0,0.0,snow covered,0.265721380710602,-8.90156364440918,100.0,431.793212890625
arenacam6_1769615062910961812.png,1769615062910961812,1769615062.9109619,42.29944128184954,-83.69755225071626,234.3359832763672,0.7317335821609583,0.6815112272880469,0.00608086878273352,0.008451914166576481,0.0007600000000000002,0.0012500000000000002,0.00035000000000000005,-0.031900000000000005,0.1832,-9.803600000000001,0.0086584405158227,0.019368411927464434,0.0,0.0,0.0,0.0,0.0,0.0,0.0,0.0,0.0,0.0,3.1000001430511475,0.0,1780.0,1820.0,0.0,0.0,0.0,snow covered,0.265721380710602,-8.90156364440918,100.0,431.793212890625
arenacam6_1769615062931390248.png,1769615062931390248,1769615062.9313903,42.299441280973994,-83.69755224993831,234.33596801757812,0.731729547096483,0.6815156317084323,0.006079316169704925,0.008447221906706062,0.0004000000000000001,0.00035000000000000005,-0.0011400000000000002,-0.0302,0.19260000000000002,-9.7981,0.008551646106197942,0.019129519240798427,0.0,0.0,0.0,0.0,0.0,0.0,0.0,0.0,0.0,0.0,3.1000001430511475,0.0,1780.0,1820.0,0.0,0.0,0.0,snow covered,0.265721380710602,-8.90156364440918,100.0,431.793212890625
arenacam6_1769615062953668842.png,1769615062953668842,1769615062.9536688,42.29944128012361,-83.69755224920132,234.33596801757812,0.7317308498440994,0.681514093785029,0.0060876030327090035,0.008452481772761115,-0.0008600000000000002,-0.0007000000000000001,0.00072,-0.029900000000000003,0.2054,-9.7989,0.008651390118607818,0.019352640611918576,0.0,0.0,0.0,0.0,0.0,0.0,0.0,0.0,0.0,0.0,3.1000001430511475,0.0,1716.0,1820.0,0.0,0.0,0.0,snow covered,0.265721380710602,-8.90156364440918,100.0,431.793212890625
arenacam6_1769615062972863648.png,1769615062972863648,1769615062.9728637,42.29944128173098,-83.69755224993264,234.3360137939453,0.7317253852552214,0.6815199448584524,0.0060879863004180915,0.00845350554715213,-0.0009800000000000002,-0.00020000000000000004,-0.0006700000000000001,-0.0258,0.2044,-9.8132,0.008558537399083443,0.01914493464950572,0.0,0.0,0.0,0.0,0.0,0.0,0.0,0.0,0.0,0.0,3.1000001430511475,0.0,1672.0,1820.0,0.0,0.0,0.0,snow covered,0.265721380710602,-8.90156364440918,100.0,431.793212890625
arenacam6_1769615062993586316.png,1769615062993586316,1769615062.9935865,42.299441281026404,-83.69755224918026,234.3360137939453,0.7317240664297892,0.681521377981573,0.00609132115879382,0.008449720000795202,-0.00036,0.00051,0.0006100000000000001,-0.007500000000000001,0.2025,-9.7947,0.008765429517476372,0.019607739904823597,0.0,0.0,0.0,0.0,0.0,0.0,0.0,0.0,0.0,0.0,3.1000001430511475,0.0,1412.0,1812.0,0.0,0.0,0.0,snow covered,0.265721380710602,-8.90156364440918,100.0,431.793212890625
arenacam6_1769615063014107418.png,1769615063014107418,1769615063.0141075,42.299441280340304,-83.69755224844663,234.3360137939453,0.7317280876963184,0.6815169324833968,0.006097429227754776,0.00845563548896895,-0.0012100000000000001,-0.00072,0.00128,-0.0216,0.22240000000000001,-9.8145,0.008885914885119294,0.019877258443118755,0.0,0.0,0.0,0.0,0.0,0.0,0.0,0.0,0.0,0.0,3.1000001430511475,0.0,544.0,1784.0,0.0,0.0,0.0,snow covered,0.265721380710602,-8.90156364440918,100.0,431.793212890625
arenacam6_1769615063034811765.png,1769615063034811765,1769615063.0348117,42.29944128186697,-83.69755224898053,234.33607482910156,0.7317282940635982,0.6815166129677401,0.006092417494807215,0.00846713439272822,-0.00010000000000000002,-0.0012300000000000002,-0.0005700000000000001,-0.10060000000000001,0.25270000000000004,-9.7913,0.008023363267275978,0.017947782227100327,0.0,0.0,0.0,0.0,0.0,0.0,0.0,0.0,0.0,0.0,3.1000001430511475,0.0,0.0,1620.0,0.0,0.0,0.0,snow covered,0.265721380710602,-8.90156364440918,100.0,431.793212890625
arenacam6_1769615063055316175.png,1769615063055316175,1769615063.0553162,42.29944128101796,-83.69755224809948,234.33607482910156,0.7317269789473704,0.6815181481967988,0.006084446288662379,0.008462947023417615,-0.00039000000000000005,1e-05,-0.00032,-0.1272,0.23170000000000002,-9.7324,0.007339588353826569,0.016418218772208806,0.0,0.0,0.0,0.0,0.0,0.0,0.0,0.0,0.0,0.0,3.1000001430511475,0.0,0.0,1620.0,0.0,0.0,0.0,snow covered,0.265721380710602,-8.90156364440918,100.0,431.793212890625
arenacam6_1769615063076309638.png,1769615063076309638,1769615063.0763097,42.29944127878032,-83.69755224694445,234.33602905273438,0.7317237405248102,0.6815216985571131,0.006096322027128474,0.008448479505164513,0.00033000000000000005,0.00524,-0.00068,-0.0261,0.2076,-9.798300000000001,0.0065756610727692785,0.01470935928012051,0.0,0.0,0.0,0.0,0.0,0.0,0.0,0.0,0.0,0.0,3.1000001430511475,0.0,0.0,1416.0,0.0,0.0,0.0,snow covered,0.265721380710602,-8.90156364440918,100.0,431.793212890625
arenacam6_1769615063096942235.png,1769615063096942235,1769615063.0969424,42.29944128003003,-83.69755224737376,234.33609008789062,0.7317216419344242,0.6815238796512524,0.006097950750104043,0.008453116972160406,-0.0006900000000000001,0.00404,4e-05,0.0146,0.1656,-9.8961,0.006846252015066732,0.015314654982583378,0.0,0.0,0.0,0.0,0.0,0.0,0.0,0.0,0.0,0.0,3.1000001430511475,0.0,0.0,1232.0,0.0,0.0,0.0,snow covered,0.265721380710602,-8.90156364440918,100.0,431.793212890625
arenacam6_1769615063117664337.png,1769615063117664337,1769615063.1176643,42.29944127772082,-83.69755224630369,234.33604431152344,0.731728728515626,0.6815162149960018,0.006095881931516971,0.008459124417216156,-0.00036,-0.00018,0.0004500000000000001,-0.0162,0.1943,-9.9258,0.0060621284803605005,0.013560617682857618,0.0,0.0,0.0,0.0,0.0,0.0,0.0,0.0,0.0,0.0,3.1000001430511475,0.0,0.0,1072.0,0.0,0.0,0.0,snow covered,0.265721380710602,-8.90156364440918,100.0,431.793212890625
arenacam6_1769615063138377353.png,1769615063138377353,1769615063.1383774,42.29944127572458,-83.69755224540556,234.33596801757812,0.7317205016873256,0.6815249045935373,0.006106091515113412,0.008463301697773389,-0.00062,-0.0037200000000000006,-0.0017900000000000004,0.1155,0.1588,-9.9392,0.007139437604780088,0.01597049355563677,0.0,0.0,0.0,0.0,0.0,0.0,0.0,0.0,0.0,0.0,3.1000001430511475,0.0,0.0,1016.0,0.0,0.0,0.0,snow covered,0.265721380710602,-8.90156364440918,100.0,431.793212890625
arenacam6_1769615063159169817.png,1769615063159169817,1769615063.1591697,42.29944127683015,-83.69755224583753,234.33599853515625,0.7317311348742112,0.6815135507574386,0.006107233782807158,0.008457427812841752,-9e-05,-0.0030900000000000003,0.0018200000000000002,-0.0037,0.1739,-9.860700000000001,0.007026737912977254,0.01571839110705534,0.0,0.0,0.0,0.0,0.0,0.0,0.0,0.0,0.0,0.0,3.1000001430511475,0.0,0.0,1016.0,0.0,0.0,0.0,snow covered,0.265721380710602,-8.90156364440918,100.0,431.793212890625
arenacam6_1769615063181305183.png,1769615063181305183,1769615063.1813052,42.29944127500374,-83.69755224494953,234.3359375,0.7317288589053128,0.6815160598472477,0.006112902179005919,0.00844805553729121,0.00026000000000000003,-0.0013900000000000002,0.0006100000000000001,0.049600000000000005,0.1784,-9.7948,0.007540511542177629,0.016867671889158827,0.0,0.0,0.0,0.0,0.0,0.0,0.0,0.0,0.0,0.0,3.1000001430511475,0.0,0.0,1016.0,0.0,0.0,0.0,snow covered,0.265721380710602,-8.90156364440918,100.0,431.793212890625
arenacam6_1769615063200607986.png,1769615063200607986,1769615063.200608,42.299441273255155,-83.69755224417942,234.3358917236328,0.7317309407763154,0.681513872949761,0.006111929916746723,0.008444856441550259,-0.00011000000000000002,0.00035000000000000005,0.00131,-0.029900000000000003,0.2051,-9.7775,0.007733410411976389,0.017299175086966465,0.0,0.0,0.0,0.0,0.0,0.0,0.0,0.0,0.0,0.0,3.1000001430511475,0.0,0.0,1020.0,0.0,0.0,0.0,snow covered,0.265721380710602,-8.90156364440918,100.0,431.793212890625
arenacam6_1769615063221479903.png,1769615063221479903,1769615063.22148,42.29944127468073,-83.6975522446958,234.3359375,0.7317255397524173,0.6815197762333527,0.006106495093534595,0.008440366967566077,0.0007600000000000002,0.0006600000000000001,-0.0016800000000000003,-0.0374,0.19240000000000002,-9.7721,0.00771822306417643,0.017265201901178827,0.0,0.0,0.0,0.0,0.0,0.0,0.0,0.0,0.0,0.0,3.1000001430511475,0.0,0.0,1020.0,0.0,0.0,0.0,snow covered,0.265721380710602,-8.90156364440918,100.0,431.793212890625
arenacam6_1769615063243394525.png,1769615063243394525,1769615063.2433946,42.29944127315431,-83.6975522439362,234.3358917236328,0.7317249792748894,0.6815206763733289,0.006087776031992813,0.008429790257607317,0.0014000000000000002,0.00034,8e-05,0.0034000000000000002,0.19970000000000002,-9.8118,0.008124029735022756,0.018172967075461805,0.0,0.0,0.0,0.0,0.0,0.0,0.0,0.0,0.0,0.0,3.1000001430511475,0.0,0.0,1020.0,0.0,0.0,0.0,snow covered,0.265721380710602,-8.90156364440918,100.0,431.793212890625
arenacam6_1769615063262393694.png,1769615063262393694,1769615063.2623937,42.29944127157024,-83.69755224322084,234.33584594726562,0.7317171831985532,0.6815291024659041,0.006086585225287679,0.008426136973120411,0.0010400000000000001,0.0003800000000000001,-0.0014700000000000002,-0.0436,0.19770000000000001,-9.8267,0.007824082320740777,0.017502002706557874,0.0,0.0,0.0,0.0,0.0,0.0,0.0,0.0,0.0,0.0,3.1000001430511475,0.0,0.0,1020.0,0.0,0.0,0.0,snow covered,0.265721380710602,-8.90156364440918,100.0,431.793212890625
arenacam6_1769615063283110154.png,1769615063283110154,1769615063.2831101,42.29944127309898,-83.69755224373817,234.3358917236328,0.7317187704290533,0.6815273443263613,0.006078780501529817,0.00843613447414701,-0.00029,-0.0018900000000000002,-0.00062,0.011000000000000001,0.19190000000000002,-9.8301,0.00831512382867126,0.01860043309730789,0.0,0.0,0.0,0.0,0.0,0.0,0.0,0.0,0.0,0.0,3.1000001430511475,0.0,0.0,1024.0,0.0,0.0,0.0,snow covered,0.265721380710602,-8.90156364440918,100.0,431.793212890625
arenacam6_1769615063304256768.png,1769615063304256768,1769615063.3042567,42.29944127171125,-83.69755224311434,234.3358612060547,0.7317190190305751,0.6815269306906439,0.0060841531834511745,0.008444111105580498,-0.0013200000000000002,-0.0008900000000000001,0.00068,-0.0264,0.1845,-9.845500000000001,0.00790824388777629,0.017690267082322297,0.0,0.0,0.0,0.0,0.0,0.0,0.0,0.0,0.0,0.0,3.1000001430511475,0.0,0.0,1028.0,0.0,0.0,0.0,snow covered,0.265721380710602,-8.90156364440918,100.0,431.793212890625
arenacam6_1769615063324979188.png,1769615063324979188,1769615063.3249793,42.29944126984681,-83.69755224250501,234.3358154296875,0.731716347335359,0.681529884349627,0.006081170280204934,0.008439380818946867,-0.00102,-0.00062,0.00048,-0.025900000000000003,0.20520000000000002,-9.7811,0.007602194746170953,0.017005653515499652,0.0,0.0,0.0,0.0,0.0,0.0,0.0,0.0,0.0,0.0,3.1000001430511475,0.0,0.0,1028.0,0.0,0.0,0.0,snow covered,0.265721380710602,-8.90156364440918,100.0,431.793212890625
arenacam6_1769615063346687288.png,1769615063346687288,1769615063.3466873,42.29944127120442,-83.69755224315992,234.33587646484375,0.7317150091362699,0.681531353278407,0.006080555829557516,0.008437223714901519,0.0012000000000000001,-0.00014000000000000004,0.0005700000000000001,-0.0512,0.18380000000000002,-9.8123,0.006768753696648838,0.015141295894181653,0.0,0.0,0.0,0.0,0.0,0.0,0.0,0.0,0.0,0.0,3.1000001430511475,0.0,0.0,1028.0,0.0,0.0,0.0,snow covered,0.265721380710602,-8.90156364440918,100.0,431.793212890625
arenacam6_1769615063366009172.png,1769615063366009172,1769615063.366009,42.299441269169854,-83.6975522427654,234.33584594726562,0.7317110945327311,0.6815353325377835,0.006085753351981399,0.008451523322103666,-0.00177,-0.00033000000000000005,-0.00033000000000000005,-0.0267,0.20500000000000002,-9.8007,0.006462678617453045,0.014456624306525416,0.0,0.0,0.0,0.0,0.0,0.0,0.0,0.0,0.0,0.0,3.1000001430511475,0.0,0.0,1028.0,0.0,0.0,0.0,snow covered,0.265721380710602,-8.90156364440918,100.0,431.793212890625
arenacam6_1769615063386773384.png,1769615063386773384,1769615063.3867736,42.299441267304225,-83.69755224234517,234.33580017089844,0.7317169850724715,0.6815290775660161,0.006089515911870801,0.008443221211534483,0.0015900000000000003,0.00025000000000000006,0.0005400000000000001,-0.0425,0.2063,-9.7898,0.006064977495910605,0.01356699075970227,0.0,0.0,0.0,0.0,0.0,0.0,0.0,0.0,0.0,0.0,3.1000001430511475,0.0,0.0,1032.0,0.0,0.0,0.0,snow covered,0.265721380710602,-8.90156364440918,100.0,431.793212890625
arenacam6_1769615063409002978.png,1769615063409002978,1769615063.409003,42.29944126841821,-83.6975522430698,234.33584594726562,0.731716677076714,0.6815293239340412,0.00610270579014763,0.008440502820295721,-7.000000000000002e-05,0.0010400000000000001,9e-05,-0.0262,0.2028,-9.7858,0.005666303590245583,0.012675181153163954,0.0,0.0,0.0,0.0,0.0,0.0,0.0,0.0,0.0,0.0,3.1000001430511475,0.0,0.0,1032.0,0.0,0.0,0.0,snow covered,0.265721380710602,-8.90156364440918,100.0,431.793212890625
arenacam6_1769615063428241292.png,1769615063428241292,1769615063.4282415,42.299441266443544,-83.69755224270477,234.33580017089844,0.7317249829385243,0.6815205483546423,0.006101933779997061,0.008429585882376047,0.0011300000000000001,0.00131,0.00177,-0.0019,0.2104,-9.789,0.005980717357354983,0.013378505885361658,0.0,0.0,0.0,0.0,0.0,0.0,0.0,0.0,0.0,0.0,3.1000001430511475,1.5750000476837158,0.0,1036.0,0.0,0.0,0.0,snow covered,0.265721380710602,-8.90156364440918,100.0,431.793212890625
arenacam6_1769615063449169800.png,1769615063449169800,1769615063.4491699,42.29944126458414,-83.6975522423673,234.33575439453125,0.7317197457680256,0.6815260823353783,0.006097014751988754,0.008440329429655051,-2e-05,-0.00143,-0.0004000000000000001,-0.006500000000000001,0.2222,-9.802900000000001,0.006308354265692906,0.014111409991099088,0.0,0.0,0.0,0.0,0.0,0.0,0.0,0.0,0.0,0.0,3.1000001430511475,3.4000000953674316,0.0,1036.0,0.0,0.0,0.0,snow covered,0.265721380710602,-8.90156364440918,100.0,431.793212890625
arenacam6_1769615063469826147.png,1769615063469826147,1769615063.469826,42.29944126573412,-83.6975522429557,234.33578491210938,0.7317149748405595,0.6815311979677123,0.006097780466322783,0.008440311851990779,0.00032,0.00048,-0.0011400000000000002,0.0012000000000000001,0.21680000000000002,-9.7979,0.0066370538185993415,0.014846691168977612,0.0,0.0,0.0,0.0,0.0,0.0,0.0,0.0,0.0,0.0,3.1000001430511475,3.2750000953674316,0.0,1036.0,0.0,0.0,0.0,snow covered,0.265721380710602,-8.90156364440918,100.0,431.793212890625
arenacam6_1769615063490364338.png,1769615063490364338,1769615063.4903643,42.29944126253903,-83.69755224187257,234.33567810058594,0.7317220442582563,0.6815235084035909,0.006098488152432434,0.00844783297855376,0.00011000000000000002,-0.0006900000000000001,0.00075,-0.0207,0.2255,-9.7989,0.006872230569285933,0.015372767449658474,0.0,0.0,0.0,0.0,0.0,0.0,0.0,0.0,0.0,0.0,3.1000001430511475,3.424999952316284,0.0,1036.0,0.0,0.0,0.0,snow covered,0.265721380710602,-8.90156364440918,100.0,431.793212890625
arenacam6_1769615063511327265.png,1769615063511327265,1769615063.5113273,42.29944126373132,-83.69755224213016,234.33570861816406,0.7317230343351885,0.6815224311570731,0.006096255147249543,0.008450593247601501,0.0006900000000000001,-8e-05,0.0007300000000000002,-0.0442,0.2237,-9.7964,0.006601624067257355,0.014767436941010667,0.0,0.0,0.0,0.0,0.0,0.0,0.0,0.0,0.0,0.0,3.1000001430511475,3.1500000953674316,0.0,1040.0,0.0,0.0,0.0,snow covered,0.265721380710602,-8.90156364440918,100.0,431.793212890625
arenacam6_1769615063533254726.png,1769615063533254726,1769615063.5332546,42.299441262153465,-83.697552241338,234.33567810058594,0.7317236954096062,0.6815217033585096,0.006095830605329735,0.008452353320619674,-0.0004300000000000001,-0.0006700000000000001,-0.00034,-0.046,0.22590000000000002,-9.8193,0.0061370708769598655,0.013728259327506603,0.0,0.0,0.0,0.0,0.0,0.0,0.0,0.0,0.0,0.0,3.1000001430511475,3.0,0.0,1040.0,0.0,0.0,0.0,snow covered,0.265721380710602,-8.90156364440918,100.0,431.793212890625
arenacam6_1769615063552187541.png,1769615063552187541,1769615063.5521877,42.299441260734966,-83.69755224040787,234.3356170654297,0.7317151603328439,0.681530863210738,0.006094472792259803,0.00845364014441479,-0.00013000000000000002,0.0008700000000000001,-0.0011,-0.0367,0.2121,-9.7919,0.006051533394358848,0.013536917111177082,0.0,0.0,0.0,0.0,0.0,0.0,0.0,0.0,0.0,0.0,3.1000001430511475,3.75,0.0,1040.0,0.0,0.0,0.0,snow covered,0.265721380710602,-8.90156364440918,100.0,431.793212890625
arenacam6_1769615063572732118.png,1769615063572732118,1769615063.5727322,42.299441261795785,-83.69755224053372,234.33566284179688,0.7317074212058484,0.6815393861913359,0.006082492511209727,0.008445004859387643,0.0007700000000000001,-0.0012500000000000002,-0.0023100000000000004,-0.0363,0.198,-9.7936,0.005837598285713759,0.013058357109244538,0.0,0.0,0.0,0.0,0.0,0.0,0.0,0.0,0.0,0.0,3.1000001430511475,5.300000190734863,0.0,1044.0,0.0,0.0,0.0,snow covered,0.265721380710602,-8.90156364440918,100.0,431.793212890625
arenacam6_1769615063593692130.png,1769615063593692130,1769615063.593692,42.299441260425986,-83.69755223973281,234.33560180664062,0.731707927790878,0.6815390591084355,0.00607804373167624,0.008430699968746682,0.0011300000000000001,-0.00024,1e-05,-0.011300000000000001,0.1827,-9.815000000000001,0.005823175439348182,0.013026094067295524,0.0,0.0,0.0,0.0,0.0,0.0,0.0,0.0,0.0,0.0,3.1000001430511475,8.65000057220459,0.0,1040.0,0.0,0.0,0.0,snow covered,0.268779844045639,-8.61189460754395,100.0,432.905395507813
arenacam6_1769615063614238945.png,1769615063614238945,1769615063.614239,42.29944125908424,-83.69755223902219,234.33555603027344,0.7317032362937097,0.6815441016516786,0.0060868332256665166,0.008423892354530779,-0.0006300000000000001,0.00032,-0.0005600000000000002,-0.013800000000000002,0.1651,-9.8026,0.006087019793054917,0.013616298055876266,0.0,0.0,0.0,0.0,0.0,0.0,0.0,0.0,0.0,0.0,3.1000001430511475,10.824999809265137,0.0,1044.0,0.0,0.0,0.0,snow covered,0.268779844045639,-8.61189460754395,100.0,432.905395507813
arenacam6_1769615063634769331.png,1769615063634769331,1769615063.6347694,42.299441260205306,-83.6975522394062,234.33560180664062,0.7317026273650838,0.681544798837914,0.006090600604400778,0.008417652184439723,0.0008000000000000001,0.0008400000000000001,0.0002800000000000001,-0.0206,0.1855,-9.8091,0.006058427711714581,0.013552339285442817,0.0,0.0,0.0,0.0,0.0,0.0,0.0,0.0,0.0,0.0,3.1000001430511475,11.824999809265137,0.0,1044.0,0.0,0.0,0.0,snow covered,0.268779844045639,-8.61189460754395,100.0,432.905395507813
arenacam6_1769615063655468427.png,1769615063655468427,1769615063.6554685,42.2994412590242,-83.69755223893057,234.3355712890625,0.7317013309125503,0.6815462918144533,0.006087284967810792,0.008411861654329519,0.0009300000000000002,-0.00128,0.0009100000000000001,-0.0167,0.1966,-9.804400000000001,0.006136915948452187,0.013727912761730637,0.0,0.0,0.0,0.0,0.0,0.0,0.0,0.0,0.0,0.0,3.1000001430511475,12.65000057220459,0.0,1044.0,0.0,0.0,0.0,snow covered,0.268779844045639,-8.61189460754395,100.0,432.905395507813
arenacam6_1769615063676212711.png,1769615063676212711,1769615063.6762128,42.299441257943165,-83.6975522385294,234.3355255126953,0.7317057043119743,0.6815415569070874,0.006084934755001193,0.008416772244063626,-0.0006500000000000001,-0.00111,0.0008200000000000001,-0.0129,0.1897,-9.7958,0.006322943439577582,0.014144045097728677,0.0,0.0,0.0,0.0,0.0,0.0,0.0,0.0,0.0,0.0,3.1000001430511475,12.725000381469727,0.0,1044.0,0.0,0.0,0.0,snow covered,0.268779844045639,-8.61189460754395,100.0,432.905395507813
arenacam6_1769615063696912947.png,1769615063696912947,1769615063.696913,42.29944125911442,-83.69755223905295,234.33555603027344,0.7317047357872225,0.6815426685122912,0.006083343883635527,0.008412107398834466,-0.00030000000000000003,-0.00030000000000000003,-0.00041000000000000005,-0.013300000000000001,0.1957,-9.776,0.006416383187685527,0.014353064207861263,0.0,0.0,0.0,0.0,0.0,0.0,0.0,0.0,0.0,0.0,3.1000001430511475,13.100000381469727,0.0,1044.0,0.0,0.0,0.0,snow covered,0.268779844045639,-8.61189460754395,100.0,432.905395507813
arenacam6_1769615063717551645.png,1769615063717551645,1769615063.7175517,42.29944125815516,-83.6975522387376,234.33551025390625,0.7317102630065372,0.681536732361693,0.006092347901418036,0.008405756937862364,0.00029,0.00062,0.0016000000000000003,-0.0199,0.1985,-9.794400000000001,0.006509025963800688,0.014560300539464312,0.0,0.0,0.0,0.0,0.0,0.0,0.0,0.0,0.0,0.0,3.1000001430511475,13.949999809265137,0.0,1044.0,0.0,0.0,0.0,snow covered,0.268779844045639,-8.61189460754395,100.0,432.905395507813
arenacam6_1769615063738383488.png,1769615063738383488,1769615063.7383833,42.299441257237625,-83.6975522384241,234.33546447753906,0.7317056084815672,0.6815419012933822,0.0060871049510237835,0.008395620961931296,0.00034,0.00035000000000000005,-0.0014600000000000004,-0.0145,0.19790000000000002,-9.7707,0.006510343230505922,0.014563247186047918,0.0,0.0,0.0,0.0,0.0,0.0,0.0,0.0,0.0,0.0,3.1000001430511475,14.725000381469727,0.0,1044.0,0.0,0.0,0.0,snow covered,0.268779844045639,-8.61189460754395,100.0,432.905395507813
arenacam6_1769615063759130631.png,1769615063759130631,1769615063.7591307,42.29944125842934,-83.69755223897663,234.3354949951172,0.7317110747443338,0.681536095000482,0.006081775686916544,0.008394421509556362,0.0021100000000000003,0.00096,0.0007100000000000001,-0.025500000000000002,0.2018,-9.8053,0.006517131336833772,0.014578431772616939,0.0,0.0,0.0,0.0,0.0,0.0,0.0,0.0,0.0,0.0,3.1000001430511475,15.625,0.0,1044.0,0.0,0.0,0.0,snow covered,0.268779844045639,-8.61189460754395,100.0,432.905395507813
arenacam6_1769615063779745284.png,1769615063779745284,1769615063.7797453,42.29944125759083,-83.69755223868239,234.33544921875,0.7317080484299575,0.6815393798711717,0.006082645560472497,0.008390886164609696,0.0009500000000000001,0.0004300000000000001,-0.00015000000000000001,-0.0251,0.20550000000000002,-9.8094,0.006523749177085802,0.014593235484190316,0.0,0.0,0.0,0.0,0.0,0.0,0.0,0.0,0.0,0.0,3.1000001430511475,16.700000762939453,0.0,1044.0,0.0,0.0,0.0,snow covered,0.268779844045639,-8.61189460754395,100.0,432.905395507813
arenacam6_1769615063800984375.png,1769615063800984375,1769615063.8009844,42.29944125681938,-83.69755223841622,234.3354034423828,0.7317062967101174,0.6815412427332299,0.006078982825521608,0.008394985182660008,-0.00014000000000000004,-0.0009300000000000002,-0.0007400000000000001,-0.028300000000000002,0.1991,-9.8172,0.006423745533051973,0.014369533332705282,0.0,0.0,0.0,0.0,0.0,0.0,0.0,0.0,0.0,0.0,3.1000001430511475,18.075000762939453,0.0,1044.0,0.0,0.0,0.0,snow covered,0.268779844045639,-8.61189460754395,100.0,432.905395507813
arenacam6_1769615063821715314.png,1769615063821715314,1769615063.821715,42.299441258045576,-83.69755223896048,234.33543395996094,0.7317080182537826,0.6815394510868225,0.006074772228557578,0.008393436588552192,-0.0009100000000000001,-0.0015700000000000002,0.00079,-0.0038,0.2081,-9.8024,0.006615618488070741,0.014798741620704966,0.0,0.0,0.0,0.0,0.0,0.0,0.0,0.0,0.0,0.0,3.1000001430511475,18.725000381469727,0.0,1052.0,0.0,0.0,0.0,snow covered,0.268779844045639,-8.61189460754395,100.0,432.905395507813
arenacam6_1769615063843894038.png,1769615063843894038,1769615063.843894,42.299441257809676,-83.69755223825587,234.3353729248047,0.731706348874141,0.6815413300907522,0.006069240515862511,0.008390394207809003,-3e-05,0.00044000000000000007,5.000000000000001e-05,0.0727,0.17450000000000002,-9.7634,0.008012861718719642,0.01792429089307272,0.0,0.0,0.0,0.0,0.0,0.0,0.0,0.0,0.0,0.0,3.1000001430511475,19.0,0.0,1052.0,0.0,0.0,0.0,snow covered,0.268779844045639,-8.61189460754395,100.0,432.905395507813
arenacam6_1769615063862560715.png,1769615063862560715,1769615063.8625607,42.29944125754873,-83.69755223758057,234.3353271484375,0.7317098976491228,0.6815376187664576,0.006074937470969881,0.008378247023136389,0.0007100000000000001,0.00198,0.00103,0.0059,0.2182,-9.7323,0.009127314974968742,0.02041725596010658,0.0,0.0,0.0,0.0,0.0,0.0,0.0,0.0,0.0,0.0,3.1000001430511475,19.575000762939453,0.0,1052.0,0.0,0.0,0.0,snow covered,0.268779844045639,-8.61189460754395,100.0,432.905395507813
arenacam6_1769615063883317972.png,1769615063883317972,1769615063.883318,42.29944125938185,-83.69755223804378,234.3353271484375,0.7317089409840081,0.6815384969259305,0.006099201390232395,0.00837273159763918,-0.00143,0.00177,-0.0004900000000000001,0.07100000000000001,0.22540000000000002,-9.7833,0.010660505434593865,0.0238469110268604,0.0,0.0,0.0,0.0,0.0,0.0,0.0,0.0,0.0,0.0,3.1000001430511475,20.149999618530273,0.0,1052.0,0.0,0.0,0.0,snow covered,0.268779844045639,-8.61189460754395,100.0,432.905395507813
arenacam6_1769615063903930419.png,1769615063903930419,1769615063.9039304,42.29944125984376,-83.69755223716851,234.3352508544922,0.7317154619313248,0.6815314736084674,0.006107045406689289,0.008368825968996543,0.0008300000000000001,0.0013300000000000002,0.0005400000000000001,-0.0137,0.22390000000000002,-9.828100000000001,0.01138657406264465,0.025471082983692325,0.0,0.0,0.0,0.0,0.0,0.0,0.0,0.0,0.0,0.0,3.1000001430511475,20.80000114440918,0.0,1052.0,0.0,0.0,0.0,snow covered,0.268779844045639,-8.61189460754395,100.0,432.905395507813
arenacam6_1769615063924627014.png,1769615063924627014,1769615063.9246268,42.29944126019378,-83.69755223634694,234.33514404296875,0.7317236659085448,0.6815229528783169,0.006118337775474604,0.008337109345885442,0.0015200000000000003,0.0031000000000000003,0.0012500000000000002,-0.014700000000000001,0.18680000000000002,-9.7599,0.010890424943294718,0.024361227172653686,0.0,0.0,0.0,0.0,0.0,0.0,0.0,0.0,0.0,0.0,3.1000001430511475,20.975000381469727,0.0,812.0,0.0,0.0,0.0,snow covered,0.268779844045639,-8.61189460754395,100.0,432.905395507813
arenacam6_1769615063945329086.png,1769615063945329086,1769615063.9453292,42.29944126239411,-83.69755223647454,234.33511352539062,0.7317290910397265,0.6815172835461872,0.00613799298779631,0.00830990951113263,-0.00046000000000000007,0.00046000000000000007,0.0008700000000000001,0.0494,0.22190000000000001,-9.7772,0.013363272258718159,0.029892838246417,0.0,0.0,0.0,0.0,0.0,0.0,0.0,0.0,0.0,0.0,3.0,21.225000381469727,0.0,812.0,0.0,0.0,0.0,snow covered,0.268779844045639,-8.61189460754395,100.0,432.905395507813
arenacam6_1769615063965805734.png,1769615063965805734,1769615063.9658058,42.299441263303436,-83.69755223539761,234.3350067138672,0.7317276434358668,0.6815190458333001,0.006145177040231174,0.008287508516140572,0.0012100000000000001,0.0030900000000000003,-0.0011400000000000002,-0.016,0.164,-9.702300000000001,0.013445801417524226,0.030077451022916642,0.0,0.0,0.0,0.0,0.0,0.0,0.0,0.0,0.0,0.0,2.9000000953674316,21.25,0.0,668.0,0.0,0.0,0.0,snow covered,0.268779844045639,-8.61189460754395,100.0,432.905395507813
arenacam6_1769615063986556288.png,1769615063986556288,1769615063.9865565,42.29944126430708,-83.69755223451361,234.33486938476562,0.7317293133631284,0.6815172647852138,0.006179717440305053,0.008260802452763418,-0.0005900000000000001,0.004600000000000001,0.00034,0.1731,0.2121,-9.7443,0.016234195396204302,0.03631492104958525,0.0,0.0,0.0,0.0,0.0,0.0,0.0,0.0,0.0,0.0,2.9000000953674316,21.575000762939453,0.0,556.0,0.0,0.0,0.0,snow covered,0.268779844045639,-8.61189460754395,100.0,432.905395507813
arenacam6_1769615064007182342.png,1769615064007182342,1769615064.0071824,42.2994412673402,-83.69755223451344,234.33477783203125,0.7317359487430889,0.6815104700857553,0.00620208382765036,0.008216729077866131,0.0009300000000000002,0.00512,0.0010700000000000002,0.1264,0.1993,-9.6579,0.019971641141304206,0.04467536293462904,0.0,0.0,0.0,0.0,0.0,0.0,0.0,0.0,0.0,0.0,2.9000000953674316,21.350000381469727,0.0,456.0,0.0,0.0,0.0,snow covered,0.268779844045639,-8.61189460754395,100.0,432.905395507813
arenacam6_1769615064027925396.png,1769615064027925396,1769615064.0279255,42.29944126979153,-83.69755223370711,234.33453369140625,0.7317335017848432,0.6815133003463271,0.006291107519082484,0.008131776124032982,-0.00102,0.013700000000000002,0.0004000000000000001,0.308,0.1396,-9.6469,0.024565217295104438,0.054950917176110926,0.0,0.0,0.0,0.0,0.0,0.0,0.0,0.0,0.0,0.0,2.9000000953674316,21.30000114440918,0.0,232.0,0.0,0.0,0.0,snow covered,0.268779844045639,-8.61189460754395,100.0,432.905395507813
arenacam6_1769615064048855229.png,1769615064048855229,1769615064.0488553,42.29944127315886,-83.6975522325798,234.33428955078125,0.7317294170325698,0.681518117304013,0.006400955265048267,0.008008982910703524,0.0024400000000000003,0.0166,-0.0017000000000000001,1.0473000000000001,0.2064,-9.493,0.04152066496806235,0.09287923629365741,0.0,0.0,0.0,0.0,0.0,0.0,0.0,0.0,0.0,0.0,2.9000000953674316,21.350000381469727,0.0,232.0,0.0,0.0,0.0,snow covered,0.268779844045639,-8.61189460754395,100.0,432.905395507813
arenacam6_1769615064069313782.png,1769615064069313782,1769615064.0693138,42.299441280796316,-83.69755223271439,234.33395385742188,0.7317397217261028,0.6815074848429864,0.006517687383893735,0.007877023699224286,-0.0011400000000000002,0.017090000000000004,0.0029500000000000004,1.0138,-0.031400000000000004,-9.464400000000001,0.06262070662185039,0.14007876347068202,0.0,0.0,0.0,0.0,0.0,0.0,0.0,0.0,0.0,0.0,2.9000000953674316,21.05000114440918,0.0,164.0,0.0,0.0,0.0,snow covered,0.268779844045639,-8.61189460754395,100.0,432.905395507813
arenacam6_1769615064090084804.png,1769615064090084804,1769615064.0900848,42.29944129176715,-83.69755223145013,234.33335876464844,0.7317476985193837,0.681498918545772,0.006683192992478553,0.007737225856426371,-0.00034,0.024800000000000003,0.00135,1.1186,0.4259,-9.548,0.084613930035862,0.18927628465442115,0.0,0.0,0.0,0.0,0.0,0.0,0.0,0.0,0.0,0.0,2.9000000953674316,21.17500114440918,0.0,128.0,0.0,0.0,0.0,snow covered,0.268779844045639,-8.61189460754395,100.0,432.905395507813
arenacam6_1769615064111040137.png,1769615064111040137,1769615064.1110404,42.2994413239303,-83.69755222814402,234.3321075439453,0.7317375419586736,0.6815102959907912,0.006863132526006605,0.0075354866301408415,0.00144,0.025060000000000002,-0.0014200000000000003,1.6471,0.0463,-9.5121,0.11558564817415283,0.25855815982668945,0.0,0.0,0.0,0.0,0.0,0.0,0.0,0.0,0.0,0.0,2.9000000953674316,21.225000381469727,0.0,0.0,0.0,0.0,0.0,snow covered,0.268779844045639,-8.61189460754395,100.0,432.905395507813
arenacam6_1769615064131893328.png,1769615064131893328,1769615064.1318932,42.29944135208132,-83.6975522252092,234.331298828125,0.7317401834081668,0.6815075471059335,0.007060655112511994,0.0073426407251425165,0.00041000000000000005,0.029550000000000003,0.0008300000000000001,1.7433,0.20040000000000002,-9.671100000000001,0.14970115114377708,0.33487249303956074,0.0,0.0,0.0,0.0,0.0,0.0,0.0,0.0,0.0,0.0,2.9000000953674316,21.100000381469727,0.0,0.0,0.0,0.0,0.0,snow covered,0.268779844045639,-8.61189460754395,100.0,432.905395507813
arenacam6_1769615064153876708.png,1769615064153876708,1769615064.1538768,42.29944138100891,-83.69755222247426,234.3304901123047,0.7317374566599323,0.6815104360918851,0.007273966991607558,0.007135083945364947,0.0012500000000000002,0.030560000000000004,-0.0007400000000000001,1.8613000000000002,0.1913,-9.6903,0.18668361879219192,0.4176000542210058,0.0,0.0,0.0,0.0,0.0,0.0,0.0,0.0,0.0,0.0,2.9000000953674316,20.92500114440918,0.0,0.0,0.0,0.0,0.0,snow covered,0.268779844045639,-8.61189460754395,100.0,432.905395507813
arenacam6_1769615064172814834.png,1769615064172814834,1769615064.1728148,42.29944142098111,-83.69755222000059,234.3297882080078,0.7317334036129238,0.6815146654334026,0.007493343820602425,0.006916403301543736,0.00048,0.031650000000000005,-0.0008300000000000001,1.9620000000000002,0.2081,-9.9733,0.22474557774410453,0.5027423726788972,0.0,0.0,0.0,0.0,0.0,0.0,0.0,0.0,0.0,0.0,2.9000000953674316,20.725000381469727,0.0,0.0,0.0,0.0,0.0,snow covered,0.268779844045639,-8.61189460754395,100.0,432.905395507813
arenacam6_1769615064193645232.png,1769615064193645232,1769615064.1936452,42.29944147118003,-83.69755221537544,234.32916259765625,0.7317212607902752,0.6815274102058063,0.00769829898556488,0.006717279090950982,0.0003800000000000001,0.026720000000000004,-0.0014000000000000002,2.3279,0.1607,-10.0645,0.2694642881661992,0.6027754447704977,0.0,0.0,0.0,0.0,0.0,0.0,0.0,0.0,0.0,0.0,2.9000000953674316,20.575000762939453,0.0,0.0,0.0,0.0,0.0,snow covered,0.268779844045639,-8.61189460754395,100.0,432.905395507813
arenacam6_1769615064214180234.png,1769615064214180234,1769615064.2141805,42.29944152117285,-83.69755221058594,234.32858276367188,0.7317164728755089,0.6815323665791309,0.007843447056887116,0.006566351036911992,0.0024400000000000003,0.02025,-0.00051,1.8577000000000001,0.25470000000000004,-10.246500000000001,0.3084059676610777,0.6898856452997711,0.0,0.0,0.0,0.0,0.0,0.0,0.0,0.0,0.0,0.0,2.9000000953674316,20.5,0.0,0.0,0.0,0.0,0.0,snow covered,0.268779844045639,-8.61189460754395,100.0,432.905395507813
arenacam6_1769615064234845457.png,1769615064234845457,1769615064.2348454,42.299441583221046,-83.6975522062101,234.3282928466797,0.7317031306064645,0.6815465373507762,0.00798053369783615,0.006415385238922962,0.00101,0.019870000000000002,-0.0009300000000000002,2.0783,0.1558,-10.3392,0.3469501543185019,0.7761066782012297,0.0,0.0,0.0,0.0,0.0,0.0,0.0,0.0,0.0,0.0,2.9000000953674316,20.575000762939453,0.0,0.0,0.0,0.0,0.0,snow covered,0.268779844045639,-8.61189460754395,100.0,432.905395507813
arenacam6_1769615064255457624.png,1769615064255457624,1769615064.2554576,42.29944165535538,-83.69755219977577,234.32827758789062,0.7316818659208947,0.681569246103207,0.008073582555902138,0.006310872644652922,-0.00013000000000000002,0.0008900000000000001,-0.00281,2.047,0.0664,-10.3396,0.4115392186191508,0.9205885396979233,0.0,0.0,0.0,0.0,0.0,0.0,0.0,0.0,0.0,0.0,2.9000000953674316,20.524999618530273,0.0,0.0,0.0,0.0,0.0,snow covered,0.268779844045639,-8.61189460754395,100.0,432.905395507813
arenacam6_1769615064276290277.png,1769615064276290277,1769615064.2762904,42.29944172796749,-83.69755219244922,234.3283233642578,0.731665952821768,0.6815865700864234,0.008125872362224071,0.006217005516506558,0.0017100000000000001,0.0024000000000000002,-0.0023500000000000005,2.5376000000000003,-0.0485,-10.6179,0.453698356112691,1.014896000722723,0.0,0.0,0.0,0.0,0.0,0.0,0.0,0.0,0.0,1.0,2.9000000953674316,20.450000762939453,0.0,0.0,0.0,0.0,0.0,snow covered,0.268779844045639,-8.61189460754395,100.0,432.905395507813
arenacam6_1769615064296955747.png,1769615064296955747,1769615064.2969556,42.29944181174881,-83.6975521852861,234.32862854003906,0.7316449715486171,0.6816090080068519,0.008146866278094932,0.006198740306320288,-0.00044000000000000007,-0.004280000000000001,-0.0036900000000000006,2.2234000000000003,0.3371,-10.472900000000001,0.4955400792909395,1.1084934249690743,0.0,0.0,0.7999999523162842,0.6899999976158142,0.0,0.0,0.6496073372803831,0.5602863598640192,0.3024734242861006,0.7271310614273249,2.9000000953674316,20.575000762939453,0.0,0.0,0.0,0.0,0.0,snow covered,0.268779844045639,-8.61189460754395,100.0,432.905395507813
arenacam6_1769615064317634375.png,1769615064317634375,1769615064.3176343,42.299441905510015,-83.69755217597157,234.32911682128906,0.7316335229226376,0.6816215329479139,0.00813977374755185,0.006182074157186363,0.0019600000000000004,0.0022800000000000003,-0.0029300000000000003,2.1133,0.098,-10.2401,0.5342430937181699,1.195069746061923,1.1200000047683716,0.9799999594688416,0.7999999523162842,0.6899999976158142,0.9094503302719618,0.7957690026883257,0.6496073372803831,0.5602863598640192,0.7287782575261724,0.39017930967820647,2.9000000953674316,20.524999618530273,0.0,0.0,0.0,0.0,0.0,snow covered,0.268779844045639,-8.61189460754395,100.0,432.905395507813
arenacam6_1769615064338311155.png,1769615064338311155,1769615064.3383112,42.299442000694505,-83.69755216642183,234.3296356201172,0.7316137991363103,0.6816433152317658,0.008092002991080493,0.006177313394533768,0.004430000000000001,-8e-05,-0.00218,2.0247,0.2474,-10.0877,0.5738509946728167,1.2836702440234107,1.1200000047683716,0.9799999594688416,1.2200000286102295,1.1699999570846558,0.9094503302719618,0.7957690026883257,0.9906512716317702,0.9500507525523448,0.9114803392861006,0.2899419897517873,3.0,20.225000381469727,0.0,0.0,0.0,0.0,0.0,snow covered,0.268779844045639,-8.61189460754395,100.0,432.905395507813
arenacam6_1769615064359256911.png,1769615064359256911,1769615064.3592567,42.29944210662981,-83.69755215770597,234.33033752441406,0.7316011561998674,0.6816575178028773,0.008034997424104517,0.00618186753593915,0.0029600000000000004,-0.0030700000000000002,-0.00027000000000000006,2.0501,0.1637,-9.8285,0.6146513509028597,1.374938192888643,1.1200000047683716,1.3199999332427979,1.2200000286102295,1.1699999570846558,0.9094503302719618,1.0718521161925363,0.9906512716317702,0.9500507525523448,0.9805011176621533,0.28687622270336877,3.0,20.450000762939453,0.0,0.0,0.0,0.0,0.0,snow covered,0.268779844045639,-8.61189460754395,100.0,432.905395507813
arenacam6_1769615064379790805.png,1769615064379790805,1769615064.3797908,42.29944222234922,-83.69755214710396,234.3309783935547,0.7315963005680471,0.6816633532295913,0.007973456517818178,0.00619272557889925,0.0034700000000000004,-0.006260000000000001,-0.0006600000000000001,2.0411,0.01,-9.7931,0.6556592498871718,1.4666704024426103,1.4199999570846558,1.3199999332427979,1.2200000286102295,1.4800000190734863,1.1530530575523448,1.0718521161925363,0.9906512716317702,1.201773661087847,1.1043325266161246,0.24704792243918192,3.1000001430511475,20.325000762939453,0.0,0.0,0.0,0.0,0.0,snow covered,0.268779844045639,-8.61189460754395,100.0,432.905395507813
arenacam6_1769615064421499260.png,1769615064421499260,1769615064.4214993,42.299442466081864,-83.69755212668773,234.3323516845703,0.7315908634467684,0.681670257010516,0.007914502841873913,0.006150599417540706,0.00217,-0.0011,0.00025000000000000006,2.0172,0.0818,-9.5464,0.7334749510160598,1.6407394569258649,1.6699999570846558,1.5699999332427979,1.7699999809265137,1.7400000095367432,1.3560553625523448,1.2748544211925366,1.437256303912153,1.4128960505439234,1.3702655345502395,0.16484879499539365,3.200000047683716,20.5,0.0,0.0,0.0,0.0,0.0,snow covered,0.268779844045639,-8.61189460754395,100.0,432.905395507813
arenacam6_1769615064441961821.png,1769615064441961821,1769615064.4419618,42.2994426030946,-83.6975521157683,234.33291625976562,0.7316068221294445,0.6816534975505776,0.007908834367896495,0.006116978801762682,0.0025800000000000003,0.007030000000000001,0.0017500000000000003,1.9805000000000001,0.061500000000000006,-9.6594,0.7729701966841114,1.7290879517705562,1.909999966621399,1.809999942779541,1.7699999809265137,1.7400000095367432,1.5509375830962684,1.4697366417364597,1.437256303912153,1.4128960505439234,1.4677066448222011,0.1511671553090779,3.200000047683716,20.700000762939453,0.0,0.0,0.0,0.0,0.0,snow covered,0.268779844045639,-8.61189460754395,100.0,432.905395507813
arenacam6_1769615064462677146.png,1769615064462677146,1769615064.4626772,42.299442741109054,-83.69755210488324,234.3334503173828,0.7316187326947251,0.6816408046674787,0.007931352675394908,0.006077583991582265,-0.00021000000000000004,0.0061,0.0033000000000000004,2.1321,-0.0436,-9.7334,0.8135191491535285,1.8197935255074942,1.909999966621399,2.0299999713897705,2.0,1.9499999284744263,1.5509375830962684,1.64837869336823,1.62401844,1.5834179209205748,1.6016881593462684,0.11985171015508572,3.200000047683716,20.325000762939453,0.0,0.0,0.0,0.0,0.0,snow covered,0.268779844045639,-8.61189460754395,100.0,432.905395507813
arenacam6_1769615064483447474.png,1769615064483447474,1769615064.4834476,42.29944289013727,-83.69755209500015,234.3340301513672,0.7316381444677711,0.6816199852129807,0.007960556261326624,0.006037454929244361,0.00068,0.00272,0.0023600000000000006,2.0862000000000003,0.1943,-9.741200000000001,0.8546186341192145,1.9117306074066358,2.109999895095825,2.0299999713897705,2.0,2.1499998569488525,1.713339369016843,1.64837869336823,1.62401844,1.7458197068411492,1.6828890523065556,0.11970387156719531,3.200000047683716,20.774999618530273,0.0,0.0,0.0,0.0,0.0,snow covered,0.268779844045639,-8.61189460754395,100.0,432.905395507813
arenacam6_1769615064504194251.png,1769615064504194251,1769615064.5041943,42.299443049242164,-83.69755208371753,234.33450317382812,0.7316539998549705,0.6816028399150008,0.00798809429633512,0.0060152693656269594,-0.00036,0.0018400000000000003,0.0017400000000000002,2.0314,0.10200000000000001,-9.7619,0.8948863050794489,2.0018069712844224,2.109999895095825,2.2100000381469727,2.200000047683716,2.1499998569488525,1.713339369016843,1.7945404071756936,1.786420322719617,1.7458197068411492,1.7600299514383257,0.12077938748058456,3.200000047683716,20.700000762939453,0.0,0.0,0.0,0.0,0.0,snow covered,0.268779844045639,-8.61189460754395,100.0,432.905395507813
arenacam6_1769615064524763382.png,1769615064524763382,1769615064.5247633,42.29944320906177,-83.6975520724873,234.33497619628906,0.7316595711619938,0.6815965344585846,0.008027144720477228,0.006000090726903223,-0.00204,0.0037200000000000006,0.00036,1.8641,0.1451,-9.8086,0.9323799932639056,2.0856781021317614,2.2899999618530273,2.369999885559082,2.359999895095825,2.3299999237060547,1.8595010828243066,1.9244617584729196,1.916341674016843,1.8919814206486132,1.8980714839906707,0.08994993903869389,3.200000047683716,20.649999618530273,0.0,0.0,0.0,0.0,0.0,snow covered,0.268779844045639,-8.61189460754395,100.0,432.905395507813
arenacam6_1769615064545424000.png,1769615064545424000,1769615064.545424,42.299443379764575,-83.6975520618987,234.33554077148438,0.7316604787907578,0.6815949423651793,0.008101046039399575,0.005970876899991595,-0.0035200000000000006,0.00262,-0.0010600000000000002,2.2963,-0.0118,-9.7645,0.9952465721634745,2.2263068671353627,2.4600000381469727,2.369999885559082,2.359999895095825,2.5,1.9975427121756935,1.9244617584729196,1.916341674016843,2.03002305,1.9670922986663641,0.11643254229482551,3.200000047683716,20.5,0.0,0.0,0.0,0.0,0.0,snow covered,0.268779844045639,-8.61189460754395,100.0,432.905395507813
arenacam6_1769615064566063540.png,1769615064566063540,1769615064.5660636,42.29944356082012,-83.69755204990271,234.3360137939453,0.7316566754866569,0.6815979934128332,0.008152080117181678,0.006018985061928553,-0.007110000000000001,0.0007600000000000002,-0.0011200000000000003,1.8746,0.2711,-9.829500000000001,1.0344182375397382,2.313931532282142,2.609999895095825,2.549999952316284,2.5299999713897705,2.5,2.119343979016843,2.070623472280383,2.05438330336823,2.03002305,2.068593451166364,0.10602650843078765,3.200000047683716,20.55000114440918,0.0,0.0,0.0,0.0,0.0,snow covered,0.268779844045639,-8.61189460754395,100.0,432.905395507813
arenacam6_1769615064586709350.png,1769615064586709350,1769615064.5867093,42.29944374085033,-83.69755203713564,234.33642578125,0.7316421192436158,0.6816125097068219,0.008223356153981424,0.006047509689391181,-0.00759,0.005350000000000001,-0.0029600000000000004,1.8703,0.0653,-9.880600000000001,1.070337394865564,2.3942805320705745,2.609999895095825,2.700000047683716,2.690000057220459,2.6499998569488525,2.119343979016843,2.192424932719617,2.1843048482635403,2.1518243168411493,2.161974519210287,0.09702539437155641,3.200000047683716,20.80000114440918,0.0,0.0,0.0,0.0,0.0,snow covered,0.268779844045639,-8.61189460754395,100.0,432.905395507813
arenacam6_1769615064607292020.png,1769615064607292020,1769615064.607292,42.299443932876684,-83.69755202578084,234.3369903564453,0.731629103977973,0.6816249607369355,0.0083133877932137,0.0060954652126869345,-0.010570000000000001,0.00316,-0.0020000000000000005,2.1035,-0.0119,-9.6699,1.1105609321233791,2.484258171504072,2.740000009536743,2.8499999046325684,2.809999942779541,2.7799999713897705,2.2249052705439234,2.3142261995607667,2.28174586173646,2.2573856083682298,2.2695657350523453,0.08642114531990974,3.200000047683716,20.67500114440918,0.0,0.0,0.0,0.0,0.0,snow covered,0.268779844045639,-8.61189460754395,100.0,432.905395507813
arenacam6_1769615064627928198.png,1769615064627928198,1769615064.6279283,42.29944413404885,-83.69755201325383,234.3373565673828,0.7316218894935629,0.6816305938664301,0.008421070308534633,0.006183032753061305,-0.014360000000000001,0.0014800000000000002,-0.0004500000000000001,2.0091,0.1923,-9.870800000000001,1.1508752737200503,2.5744389347953294,3.0199999809265137,2.990000009536743,2.950000047683716,2.929999828338623,2.452267828912153,2.4279075755439234,2.395427237719617,2.3791868752093794,2.413697379346268,0.06243750950023615,3.200000047683716,20.75,0.0,0.0,0.0,0.0,0.0,snow covered,0.268779844045639,-8.61189460754395,100.0,432.905395507813
arenacam6_1769615064648844946.png,1769615064648844946,1769615064.648845,42.29944433554883,-83.6975520001319,234.3378143310547,0.7316132102707398,0.6816383708930028,0.00850221103995638,0.006241337285187583,-0.008000000000000002,0.00251,-0.0007600000000000002,1.8261,0.20620000000000002,-9.9026,1.1871015759527221,2.6554749993116826,3.0199999809265137,3.119999885559082,3.069999933242798,3.069999933242798,2.452267828912153,2.5334686734729193,2.492868251192536,2.492868251192536,2.492868251192536,0.061234524204255444,3.200000047683716,20.950000762939453,0.0,0.0,0.0,0.0,0.0,snow covered,0.268779844045639,-8.61189460754395,100.0,432.905395507813
arenacam6_1769615064669342079.png,1769615064669342079,1769615064.669342,42.29944454833587,-83.69755198787377,234.33839416503906,0.7316109349270985,0.6816392663236569,0.008606740737862276,0.00626693822493705,-0.00817,0.006470000000000001,0.0002800000000000001,2.0541,0.1366,-9.751100000000001,1.225592376028493,2.7415766096331775,3.1499998569488525,3.2300000190734863,3.18999981880188,3.18999981880188,2.5578289268411494,2.622789796087847,2.590309264665456,2.590309264665456,2.590309313064977,0.05517529440420781,3.200000047683716,20.774999618530273,0.0,0.0,0.0,0.0,0.0,snow covered,0.268779844045639,-8.61189460754395,100.0,432.905395507813
arenacam6_1769615064690317270.png,1769615064690317270,1769615064.6903174,42.29944499310022,-83.69755195894484,234.33938598632812,0.7316027622545462,0.6816471207048763,0.008651078623699434,0.006305547947342187,-0.004130000000000001,-0.0020700000000000002,-0.0009800000000000002,2.1291,0.3422,-9.906600000000001,1.2685892822081342,2.837758108942664,3.2699999809265137,3.3399999141693115,3.309999942779541,3.309999942779541,2.6552701339121536,2.7121107251046896,2.6877504717364595,2.6877504717364595,2.6857204506224406,0.0535766800704771,3.200000047683716,20.875,0.0,0.0,0.0,0.0,0.0,snow covered,0.268779844045639,-8.61189460754395,100.0,432.905395507813
arenacam6_1769615064711469434.png,1769615064711469434,1769615064.7114694,42.299445226654434,-83.69755194488032,234.340087890625,0.7315998036077963,0.681650117406672,0.008645184115121447,0.006332897608504327,-0.00058,-0.0006900000000000001,-0.0008300000000000001,1.6252,0.2214,-9.9856,1.3022333122428764,2.9130177854885804,3.379999876022339,3.43999981880188,3.3999998569488525,3.429999828338623,2.7445910629289965,2.793311569665456,2.7608312318411494,2.7851914852093795,2.770981337411245,0.04875921073496381,3.200000047683716,20.75,0.0,0.0,0.0,0.0,0.0,snow covered,0.268779844045639,-8.61189460754395,100.0,432.905395507813
arenacam6_1769615064733584020.png,1769615064733584020,1769615064.7335842,42.299445469395444,-83.69755192890788,234.3406524658203,0.7315915479694586,0.6816580311530939,0.008713967485308968,0.006340526382246555,-0.007530000000000001,0.0023300000000000005,-0.00099,2.0597000000000003,-0.0102,-9.6685,1.3400137082789478,2.99753026459751,3.490000009536743,3.549999952316284,3.5199999809265137,3.5199999809265137,2.833912185543923,2.8826326922803833,2.858272438912153,2.858272438912153,2.858272438912153,0.046457521156689774,3.200000047683716,20.950000762939453,0.0,0.0,0.0,0.0,0.0,snow covered,0.268779844045639,-8.61189460754395,100.0,432.905395507813
arenacam6_1769615064752587628.png,1769615064752587628,1769615064.7525876,42.299445711842665,-83.69755191193234,234.34132385253906,0.7315940981406249,0.6816540804274991,0.00876525413006957,0.006400040810930755,-0.005170000000000001,-0.0021100000000000003,1e-05,1.8756000000000002,0.5258,-9.8225,1.3794091073841304,3.085655408671857,3.5999999046325684,3.6499998569488525,3.6399998664855957,3.6399998664855957,2.9232331145607664,2.9638335368411495,2.955713452385073,2.955713452385073,2.9496233890430155,0.04408529197607096,3.200000047683716,20.950000762939453,0.0,0.0,0.0,0.0,0.0,snow covered,0.268779844045639,-8.61189460754395,100.0,432.905395507813
arenacam6_1769615064773038814.png,1769615064773038814,1769615064.7730389,42.29944596565092,-83.69755189546723,234.3420867919922,0.7315890037828351,0.681658536630495,0.00881707204957968,0.006436475998807645,-0.006310000000000001,0.00237,-0.00068,1.7622,0.0654,-9.955,1.413139716021719,3.161108756357624,3.7899999618530273,3.759999990463257,3.7300000190734863,3.7300000190734863,3.0775149128243067,3.0531546594560766,3.028794406087847,3.028794406087847,3.0470645961140193,0.03607726561581887,3.200000047683716,20.67500114440918,0.0,0.0,0.0,0.0,0.0,snow covered,0.268779844045639,-8.61189460754395,100.0,432.905395507813
arenacam6_1769615064793498195.png,1769615064793498195,1769615064.793498,42.29944622817114,-83.69755187551375,234.34278869628906,0.7315817245785355,0.6816648559742282,0.008894189710485978,0.006488280336459704,-0.008270000000000001,-0.0020000000000000005,-0.00111,2.0288,0.5289,-9.8218,1.4526557356384042,3.2495037212789724,3.879999876022339,3.879999876022339,3.8399999141693115,3.8299999237060547,3.1505956729289966,3.1505956729289966,3.1181153351046897,3.109995250648613,3.1323254829028238,0.03606034903386059,3.200000047683716,20.774999618530273,0.0,0.0,0.0,0.0,0.0,snow covered,0.268779844045639,-8.61189460754395,100.0,432.905395507813
arenacam6_1769615064814141140.png,1769615064814141140,1769615064.8141413,42.29944649069918,-83.69755185711206,234.34317016601562,0.7315700429479871,0.6816772778062001,0.008895339260737364,0.006498778596427713,0.00117,-0.00018,-0.004190000000000001,1.9002000000000001,0.2783,-9.983500000000001,1.489770058026475,3.3325262336017434,3.9800000190734863,4.0,3.93999981880188,4.029999732971191,3.231796711087847,3.24803688,3.199316179665456,3.272396939770146,3.237886677630862,0.02839874297661455,3.1000001430511475,21.024999618530273,0.0,0.0,0.0,0.0,0.0,snow covered,0.268779844045639,-8.61189460754395,100.0,432.905395507813
arenacam6_1769615064834878382.png,1769615064834878382,1769615064.8348784,42.29944676451844,-83.69755183735882,234.343994140625,0.7315402894457452,0.6817089898636345,0.00890406861129676,0.0065096558206828685,-0.0024500000000000004,0.00046000000000000007,-0.0033600000000000006,2.0515,0.0845,-9.6586,1.528319843029513,3.418759789666439,4.079999923706055,4.059999942779541,4.130000114440918,4.099999904632568,3.312997555648613,3.29675738673646,3.3535981715270804,3.329237724560766,3.32314770961823,0.027966890314202988,3.1000001430511475,20.700000762939453,0.0,0.0,0.0,0.0,0.0,snow covered,0.268779844045639,-8.61189460754395,100.0,432.905395507813
arenacam6_1769615064855677600.png,1769615064855677600,1769615064.8556776,42.29944704629986,-83.69755181517513,234.34439086914062,0.7315197741630097,0.6817305354513395,0.008935155697567027,0.006516136461865033,-7.000000000000002e-05,0.004110000000000001,-0.0015700000000000002,1.9079000000000002,0.4228,-10.026100000000001,1.581343507912223,3.5373705465891683,4.170000076293945,4.259999752044678,4.210000038146973,4.179999828338623,3.386078509351387,3.4591590758579924,3.4185588471756936,3.3941984002093792,3.414498708148613,0.03473535973183008,3.1000001430511475,20.700000762939453,0.0,0.0,0.0,0.0,0.0,snow covered,0.268779844045639,-8.61189460754395,100.0,432.905395507813
arenacam6_1769615064876350879.png,1769615064876350879,1769615064.8763509,42.29944733007743,-83.69755179419519,234.34475708007812,0.731500869149696,0.6817508635393849,0.008918777371516914,0.006534057448440609,-0.0016500000000000002,-0.0032500000000000007,-0.0031500000000000005,2.1444,-0.14250000000000002,-9.8332,1.6228294962345962,3.630172213307018,4.25,4.319999694824219,4.299999713897705,4.279999732971191,3.451039185,3.507879582594452,3.4916394136822984,3.4753992447701454,3.481489356511724,0.04095752158816911,3.1000001430511475,20.875,0.0,0.0,0.0,0.0,0.0,snow covered,0.268779844045639,-8.61189460754395,100.0,432.905395507813
arenacam6_1769615064897009547.png,1769615064897009547,1769615064.8970096,42.29944762354196,-83.69755177222966,234.34559631347656,0.7314808399305268,0.6817719164808217,0.00893103317538542,0.006562877342946496,-0.0009400000000000002,0.0036400000000000004,-0.0009400000000000002,1.7305000000000001,0.3816,-9.8293,1.6566518470141214,3.7058307826597687,4.449999809265137,4.400000095367432,4.389999866485596,4.369999885559082,3.6134408741215327,3.572840645439234,3.564720367385073,3.5484801984729195,3.57487052135469,0.03533897497906944,3.1000001430511475,20.575000762939453,0.0,0.0,0.0,0.0,0.0,snow covered,0.268779844045639,-8.61189460754395,100.0,432.905395507813
arenacam6_1769615064917804695.png,1769615064917804695,1769615064.9178047,42.29944792632462,-83.69755174830831,234.3461151123047,0.731474301491556,0.6817796939203606,0.008866787088948364,0.006570791582360161,0.00444,-0.00834,-0.00239,2.142,0.308,-10.1903,1.69738993870591,3.7969594494887984,4.579999923706055,4.549999713897705,4.519999980926514,4.559999942779541,3.719002165648613,3.694641718682299,3.6702816589121534,3.7027619967364602,3.696671884994881,0.02641259824553021,3.1000001430511475,21.0,0.0,0.0,0.0,0.0,0.0,snow covered,0.268779844045639,-8.61189460754395,100.0,432.905395507813
arenacam6_1769615064938440467.png,1769615064938440467,1769615064.9384406,42.299448229141724,-83.69755172598862,234.3465576171875,0.7314578447399315,0.6817982353369043,0.008789768530950998,0.006582372601888363,0.0019700000000000004,-0.0038900000000000002,-0.0019600000000000004,1.8656000000000001,-0.16060000000000002,-9.7614,1.7328815612230632,3.876352079562319,4.659999847412109,4.619999885559082,4.589999675750732,4.690000057220459,3.7839628412972264,3.7514825034729196,3.727122056506605,3.8083232882635407,3.767722672385073,0.028023617294719944,3.1000001430511475,20.75,0.0,0.0,0.0,0.0,0.0,snow covered,0.268779844045639,-8.61189460754395,100.0,432.905395507813
arenacam6_1769615064959109562.png,1769615064959109562,1769615064.9591095,42.29944854288201,-83.69755170205116,234.3474578857422,0.7314562099051936,0.681799867062005,0.008747019962504472,0.006651609364450428,-0.0011300000000000001,-0.0056300000000000005,-0.00096,1.7702,0.4479,-9.613000000000001,1.7677718211532882,3.9543994976106367,4.730000019073486,4.809999942779541,4.799999713897705,4.769999980926514,3.8408036260878466,3.90576430173646,3.8976440236822985,3.8732839639121535,3.87937397885469,0.01897267051578359,3.1000001430511475,20.875,0.0,0.0,0.0,0.0,0.0,snow covered,0.268779844045639,-8.61189460754395,100.0,432.905395507813
arenacam6_1769615064979775664.png,1769615064979775664,1769615064.9797757,42.29944886513361,-83.69755167695841,234.3479461669922,0.7314319914573992,0.6818260533742085,0.008700566784727057,0.006691408703595839,-0.00116,-0.00442,-0.0037400000000000007,1.8413000000000002,0.1925,-9.5324,1.8047503624753212,4.037118275835545,4.880000114440918,4.859999656677246,4.880000114440918,4.829999923706055,3.962605086527081,3.9463645304187587,3.962605086527081,3.922004470648613,3.948394793530383,0.02197693410079723,3.1000001430511475,20.875,0.0,0.0,0.0,0.0,0.0,snow covered,0.268779844045639,-8.61189460754395,100.0,432.905395507813
arenacam6_1769615065000798697.png,1769615065000798697,1769615065.0007987,42.29944918811302,-83.6975516522058,234.34835815429688,0.7314248684014825,0.6818335460967868,0.008656728269252614,0.006763013871609695,-0.0012000000000000001,-0.006250000000000001,-0.00017,1.6765,0.33990000000000004,-9.472100000000001,1.8402810204730593,4.116598225937006,4.949999809265137,4.909999847412109,5.009999752044678,5.0,4.019445484121532,3.986965146297226,4.068165990857993,4.0600461,4.033655680319188,0.020148321761213065,3.1000001430511475,21.125,0.0,0.0,0.0,0.0,0.0,snow covered,0.268779844045639,-8.61189460754395,100.0,432.905395507813
arenacam6_1769615065021337051.png,1769615065021337051,1769615065.021337,42.29944952152516,-83.69755162722542,234.34921264648438,0.7314008938744326,0.6818597923490084,0.008605227645549461,0.006775402173767479,0.0036700000000000005,-0.00487,-0.00544,1.9291,0.10160000000000001,-9.8825,1.8758288431824983,4.196116572468658,5.0,5.089999675750732,5.069999694824219,5.059999942779541,4.0600461,4.133126666506605,4.116886497594452,4.10876660673646,4.10470646770938,0.021784453120066678,3.1000001430511475,21.100000381469727,0.0,0.0,0.0,0.0,0.0,snow covered,0.268779844045639,-8.61189460754395,100.0,432.905395507813
arenacam6_1769615065042062497.png,1769615065042062497,1769615065.0420625,42.299449863262716,-83.69755160046849,234.3496551513672,0.731391298878195,0.6818707796504689,0.00851535834295239,0.006818831015616398,0.0025700000000000007,-0.00863,-0.00062,1.7314,0.1774,-9.7598,1.9124616346432766,4.278061928998931,5.210000038146973,5.119999885559082,5.199999809265137,5.179999828338623,4.230568067175693,4.15748711347292,4.222447789121532,4.206207620209379,4.204177647494881,0.017270503029239426,3.1000001430511475,21.225000381469727,0.0,0.0,0.0,0.0,0.0,snow covered,0.268779844045639,-8.61189460754395,100.0,432.905395507813
arenacam6_1769615065062583886.png,1769615065062583886,1769615065.062584,42.29945020507007,-83.69755157394403,234.35009765625,0.731348929124966,0.6819168432914208,0.008457393459745732,0.006828996931938939,0.0030100000000000005,-0.00338,-0.004260000000000001,1.6622000000000001,0.20400000000000001,-9.572000000000001,1.9450500130286907,4.3509601761444,5.179999828338623,5.279999732971191,5.259999752044678,5.259999752044678,4.206207620209379,4.287408464770145,4.271168295857993,4.271168295857993,4.258988169173878,0.021138324242724514,3.1000001430511475,21.375,0.0,0.0,0.0,0.0,0.0,snow covered,0.268779844045639,-8.61189460754395,100.0,432.905395507813
arenacam6_1769615065083293447.png,1769615065083293447,1769615065.0832934,42.299450557110745,-83.69755154665752,234.35086059570312,0.7313208350856665,0.6819472753151483,0.008421068129017963,0.0068436446002886325,0.0033700000000000006,-0.0066500000000000005,-0.0026400000000000004,1.6964000000000001,0.4621,-9.8968,1.9792650393226974,4.427497137062515,5.409999847412109,5.339999675750732,5.409999847412109,5.389999866485596,4.392969756297226,4.336128971506605,4.392969756297226,4.376729587385073,4.374699517871532,0.011924935817352609,3.1000001430511475,21.475000381469727,0.0,0.0,0.0,0.0,0.0,snow covered,0.268779844045639,-8.61189460754395,100.0,432.905395507813
arenacam6_1769615065103826026.png,1769615065103826026,1769615065.1038258,42.29945091728516,-83.69755151910991,234.35133361816406,0.7312693433102546,0.6820033775021305,0.00837898394059244,0.006806852312108211,0.005320000000000001,-0.006300000000000001,-0.005520000000000001,1.8470000000000002,-0.1217,-9.9349,2.014836633095167,4.5070686580359025,5.429999828338623,5.480000019073486,5.460000038146973,5.460000038146973,4.40920992520938,4.449810541087847,4.433570372175694,4.433570372175694,4.431540302662154,0.016757755673210077,3.1000001430511475,21.600000381469727,0.0,0.0,0.0,0.0,0.0,snow covered,0.268779844045639,-8.61189460754395,100.0,432.905395507813
arenacam6_1769615065124454747.png,1769615065124454747,1769615065.1244547,42.29945127740526,-83.69755149058072,234.35179138183594,0.7312221984353596,0.682054366649977,0.008365917198601469,0.006778560207311249,0.005200000000000001,0.0029700000000000004,-0.0025800000000000003,1.5733000000000001,0.40700000000000003,-9.9215,2.045230480985009,4.575057872134606,5.559999942779541,5.529999732971191,5.589999675750732,5.599999904632568,4.5147712167364595,4.490410769770146,4.539131276506605,4.547251554560767,4.522891204393495,0.011402406089514965,3.1000001430511475,21.625,0.0,0.0,0.0,0.0,0.0,snow covered,0.268779844045639,-8.61189460754395,100.0,432.905395507813
arenacam6_1769615065145254430.png,1769615065145254430,1769615065.1452544,42.29945164778144,-83.69755146260395,234.3525848388672,0.7311483541665192,0.6821345332078868,0.008328580848654942,0.006722912010122494,0.0029800000000000004,-0.0010400000000000001,-0.0022800000000000003,1.5361,0.2518,-9.9503,2.09574143798167,4.688047852278717,5.659999847412109,5.650000095367432,5.650000095367432,5.699999809265137,4.595972061297226,4.587852170439234,4.587852170439234,4.628452399121533,4.600032200324307,0.01877447814693876,3.1000001430511475,21.5,0.0,0.0,0.0,0.0,0.0,snow covered,0.268779844045639,-8.61189460754395,100.0,432.905395507813
arenacam6_1769615065165914565.png,1769615065165914565,1769615065.1659145,42.29945202553631,-83.69755143278209,234.35324096679688,0.7311146684109939,0.6821722560685418,0.008263189961659943,0.006638853537749294,0.01302,0.00229,-0.005900000000000001,1.7179,0.378,-10.072600000000001,2.1291818692056754,4.762852090500944,5.730000019073486,5.819999694824219,5.769999980926514,5.809999942779541,4.652812846087847,4.725893412594452,4.685293183912153,4.7177735217364605,4.695443241082728,0.014153042785573096,3.1000001430511475,21.80000114440918,0.0,0.0,0.0,0.0,0.0,snow covered,0.268779844045639,-8.61189460754395,100.0,432.905395507813
arenacam6_1769615065186629055.png,1769615065186629055,1769615065.186629,42.299452404618066,-83.69755140355977,234.35389709472656,0.7310575937218428,0.6822350187430684,0.0081817353835838,0.006575185806301582,0.006560000000000001,5.000000000000001e-05,-0.004000000000000001,2.0076,-0.153,-10.163300000000001,2.1667434744496292,4.8468751477353536,5.859999656677246,5.909999847412109,5.869999885559082,5.859999656677246,4.758373750418759,4.798974366297227,4.766494028472919,4.758373750418759,4.770553973901916,0.015746469943443395,3.1000001430511475,21.75,0.0,0.0,0.0,0.0,0.0,snow covered,0.268779844045639,-8.61189460754395,100.0,432.905395507813
arenacam6_1769615065207573598.png,1769615065207573598,1769615065.2075734,42.2994527929628,-83.69755137253676,234.35491943359375,0.7310062817763274,0.6822918865927573,0.008071803008839583,0.006514866800705567,0.01667,-0.0025400000000000006,-0.0053100000000000005,1.5096,0.6884,-9.9604,2.197986210624201,4.9167632739937,5.960000038146973,5.980000019073486,5.940000057220459,5.96999979019165,4.8395749821756935,4.855815151087847,4.82333481326354,4.847694873033686,4.841604954890191,0.015286137427247083,3.1000001430511475,21.875,0.0,0.0,0.0,0.0,0.0,snow covered,0.268779844045639,-8.61189460754395,100.0,432.905395507813
arenacam6_1769615065228035593.png,1769615065228035593,1769615065.2280357,42.299453189075784,-83.69755134053712,234.3558349609375,0.730969344683064,0.6823337222421044,0.00796435680061823,0.00640918447224737,0.01302,-0.00036,-0.00553,1.7342000000000002,0.0799,-10.0655,2.231125686493056,4.990894293143778,6.089999675750732,6.119999885559082,6.099999904632568,6.109999656677246,4.9451358865066055,4.96949633347292,4.9532561645607665,4.961376055418759,4.957316109989763,0.0067278890679257335,3.1000001430511475,22.05000114440918,0.0,0.0,0.0,0.0,0.0,snow covered,0.268779844045639,-8.61189460754395,100.0,432.905395507813
arenacam6_1769615065248877800.png,1769615065248877800,1769615065.2488778,42.29945358693035,-83.69755130920251,234.35679626464844,0.7309362333529452,0.6823717734097142,0.007802063620595848,0.006333516302237675,0.018530000000000005,-0.012560000000000002,-0.0025000000000000005,1.9396,0.2912,-10.245800000000001,2.2691991224731742,5.0760622850251425,6.159999847412109,6.119999885559082,6.239999771118164,6.199999809265137,5.001976671297226,4.96949633347292,5.0669373469458385,5.034457009121533,5.018216840209379,0.011395731881859038,3.1000001430511475,22.075000762939453,0.0,0.0,0.0,0.0,0.0,snow covered,0.268779844045639,-8.61189460754395,100.0,432.905395507813
arenacam6_1769615065269402632.png,1769615065269402632,1769615065.2694027,42.29945399305254,-83.69755127614744,234.35809326171875,0.7309033105068375,0.6824100797354584,0.007613320086976954,0.006234671029325658,0.019680000000000003,-0.0017000000000000001,-0.0017100000000000001,1.5135,0.0345,-9.872200000000001,2.2969945651339483,5.138239022530735,6.299999713897705,6.279999732971191,6.269999980926514,6.339999675750732,5.115657853682299,5.099417684770146,5.091297793912154,5.148138191506605,5.113627880967801,0.004789800835464494,3.1000001430511475,22.05000114440918,0.0,0.0,0.0,0.0,0.0,snow covered,0.268779844045639,-8.61189460754395,100.0,432.905395507813
arenacam6_1769615065290109482.png,1769615065290109482,1769615065.2901094,42.29945440739636,-83.6975512425975,234.3592529296875,0.7308913627756474,0.6824254247783619,0.007447406827417155,0.0061556126889406,0.019760000000000003,-0.0088,-0.0024600000000000004,1.7816,0.542,-9.6912,2.332476678986375,5.217610382291782,6.329999923706055,6.329999923706055,6.429999828338623,6.359999656677246,5.140018300648613,5.140018300648613,5.221219145209379,5.164378360418758,5.166408526731341,0.009813276923515914,3.1000001430511475,22.200000762939453,0.0,0.0,0.0,0.0,0.0,snow covered,0.268779844045639,-8.61189460754395,100.0,432.905395507813
arenacam6_1769615065310822464.png,1769615065310822464,1769615065.3108225,42.29945524648972,-83.69755117269511,234.36184692382812,0.7308677648451931,0.6824537936563245,0.00722092056222301,0.0060817876086374225,0.0187,-0.010640000000000002,-0.00136,1.3726,-0.0985,-9.980400000000001,2.363320226445119,5.286605547344145,6.429999828338623,6.46999979019165,6.460000038146973,6.460000038146973,5.221219145209379,5.253699483033686,5.245579592175694,5.245579592175694,5.241519453148613,0.008528363576923548,3.1000001430511475,22.649999618530273,0.0,0.0,0.0,0.0,0.0,snow covered,0.268779844045639,-8.61189460754395,100.0,432.905395507813
arenacam6_1769615065331604783.png,1769615065331604783,1769615065.3316047,42.299455677578415,-83.69755113573534,234.36317443847656,0.730857486538976,0.6824670209601829,0.00707401552386175,0.006004829392378357,0.015440000000000002,-0.0038300000000000005,-0.0019100000000000002,1.7424000000000002,0.06620000000000001,-9.7273,2.3945787783315597,5.356529052400999,6.559999942779541,6.429999828338623,6.569999694824219,6.559999942779541,5.32678043673646,5.221219145209379,5.334900327594452,5.32678043673646,5.302420086569187,0.010101497686745196,3.1000001430511475,22.625,0.0,0.0,0.0,0.0,0.0,snow covered,0.268779844045639,-8.61189460754395,100.0,432.905395507813
arenacam6_1769615065352039373.png,1769615065352039373,1769615065.3520393,42.29945610839237,-83.69755109856746,234.36459350585938,0.7308601849485079,0.6824662927335196,0.006894130693251491,0.005968274590140194,0.017120000000000003,-0.01017,-3e-05,1.5664,0.3297,-9.9847,2.4281545051561007,5.431635938763888,6.609999656677246,6.670000076293945,6.659999847412109,6.659999847412109,5.367380665418758,5.416101559351387,5.407981281297226,5.407981281297226,5.399861196841149,0.0058499395543011945,3.1000001430511475,22.649999618530273,0.0,0.0,0.0,0.0,0.0,snow covered,0.268779844045639,-8.61189460754395,100.0,432.905395507813
arenacam6_1769615065372877448.png,1769615065372877448,1769615065.3728776,42.299456549758,-83.69755106308357,234.36598205566406,0.7308415269327445,0.6824881048961922,0.0067589221837203745,0.00591321881323103,0.011640000000000001,-0.0056300000000000005,-0.0039700000000000004,1.6937,-0.1938,-9.7705,2.458331203656093,5.4991394027064615,6.75,6.690000057220459,6.769999980926514,6.739999771118164,5.4810622350000004,5.43234172826354,5.497302403912153,5.4729419569458395,5.470912081030383,0.005133043483528805,3.1000001430511475,22.725000381469727,0.0,0.0,0.0,0.0,0.0,snow covered,0.268779844045639,-8.61189460754395,100.0,432.905395507813
arenacam6_1769615065393586580.png,1769615065393586580,1769615065.3935866,42.29945699788509,-83.69755102559392,234.36724853515625,0.7308375902282385,0.6824933010151567,0.00667612763991032,0.005894073171569444,0.00619,-0.00445,-0.0016700000000000003,1.7583,0.12490000000000001,-9.578800000000001,2.491334538449569,5.572965882439379,6.809999942779541,6.799999713897705,6.799999713897705,6.839999675750732,5.529782741736461,5.521662463682299,5.521662463682299,5.554142801506606,5.531812617651916,0.007384445850842001,3.1000001430511475,22.725000381469727,0.0,0.0,0.0,0.0,0.0,snow covered,0.268779844045639,-8.61189460754395,100.0,432.905395507813
arenacam6_1769615065414246925.png,1769615065414246925,1769615065.4142468,42.299457446389496,-83.69755098892252,234.36851501464844,0.7308137642827602,0.6825197761013992,0.006583540715677278,0.005886778151343585,0.007210000000000001,-0.0012200000000000002,-0.0023100000000000004,1.4389,0.17350000000000002,-9.6331,2.5206954130301966,5.638644397223769,6.949999809265137,6.909999847412109,6.909999847412109,6.909999847412109,5.643463924121533,5.610983586297227,5.610983586297227,5.610983586297227,5.6191036707533035,0.0034655007647026405,3.1000001430511475,22.725000381469727,0.0,0.0,0.0,0.0,0.0,snow covered,0.268779844045639,-8.61189460754395,100.0,432.905395507813
arenacam6_1769615065435017800.png,1769615065435017800,1769615065.4350178,42.29945790426996,-83.69755095295609,234.36981201171875,0.7307838649607524,0.6825521773780197,0.006519573898561774,0.005912954061242732,-0.00011000000000000002,-0.00425,-0.00444,1.4613,-0.0304,-9.5912,2.5515882842432442,5.707749896555083,6.949999809265137,6.96999979019165,6.980000019073486,7.049999713897705,5.643463924121533,5.659704093033686,5.667824371087846,5.724664768682299,5.673914289231341,0.005928011552181666,3.1000001430511475,22.875,0.0,0.0,0.0,0.0,0.0,snow covered,0.268779844045639,-8.61189460754395,100.0,432.905395507813
arenacam6_1769615065455668077.png,1769615065455668077,1769615065.455668,42.2994583690081,-83.69755091611863,234.37103271484375,0.7307316056952392,0.682608773637988,0.006446609644856898,0.005918092140765396,0.006340000000000001,-0.0004000000000000001,-0.0048600000000000015,1.5922,-0.0356,-9.7812,2.5975949032614456,5.810663942901659,7.079999923706055,7.109999656677246,7.069999694824219,7.099999904632568,5.749025215648612,5.773385275418759,5.740904937594452,5.765265384560767,5.757145203305648,0.009210434491120316,3.1000001430511475,23.075000762939453,0.0,0.0,0.0,0.0,0.0,snow covered,0.268779844045639,-8.61189460754395,100.0,432.905395507813
arenacam6_1769615065476391706.png,1769615065476391706,1769615065.4763918,42.29945883474926,-83.69755088080653,234.3722686767578,0.7306881038248346,0.6826554079139211,0.006421921032983531,0.005936994609391534,-0.0028200000000000005,-0.00103,-0.006020000000000001,1.6059,0.035500000000000004,-9.7398,2.628781115247002,5.880425627940629,7.179999828338623,7.179999828338623,7.159999847412109,7.199999809265137,5.83022606020938,5.83022606020938,5.813985891297226,5.846466229121533,5.830226060209379,0.008536723514149766,3.1000001430511475,23.399999618530273,0.0,0.0,0.0,0.0,0.0,snow covered,0.268779844045639,-8.61189460754395,100.0,432.905395507813
arenacam6_1769615065496990981.png,1769615065496990981,1769615065.496991,42.29945930915358,-83.69755084682039,234.3736114501953,0.7306474802241846,0.6826994301194416,0.006363524809950046,0.005937449674103359,0.006530000000000001,-0.00289,-0.006980000000000001,1.3940000000000001,-0.17220000000000002,-10.1004,2.6576436848044245,5.94498946428641,7.279999732971191,7.269999980926514,7.230000019073486,7.269999980926514,5.911426904770146,5.903307013912154,5.870826676087847,5.903307013912154,5.897216902170576,0.008035769012345638,3.1000001430511475,23.42500114440918,0.0,0.0,0.0,0.0,0.0,snow covered,0.268779844045639,-8.61189460754395,100.0,432.905395507813
arenacam6_1769615065517802402.png,1769615065517802402,1769615065.5178025,42.299459790552646,-83.69755081128602,234.37496948242188,0.7306228714475169,0.6827263350190529,0.006298509308723971,0.00594137776314428,0.00474,-0.006390000000000001,-0.0029500000000000004,1.5285,0.28600000000000003,-9.953000000000001,2.688860258908767,6.014819067563377,7.329999923706055,7.349999904632568,7.309999942779541,7.359999656677246,5.952027520648613,5.968267689560766,5.93578735173646,5.976387580418758,5.95811753559115,0.009426972172447652,3.1000001430511475,23.325000762939453,0.0,0.0,0.0,0.0,0.0,snow covered,0.268779844045639,-8.61189460754395,100.0,432.905395507813
arenacam6_1769615065559287583.png,1769615065559287583,1769615065.5592875,42.29946076374407,-83.69755074305895,234.37777709960938,0.7305560682224151,0.6827990611547976,0.0061343115562211515,0.005970217019860281,-0.009250000000000001,-0.00524,-0.00289,1.5297,-0.42400000000000004,-10.538,2.751141463202026,6.15413838469514,7.569999694824219,7.559999942779541,7.619999885559082,7.579999923706055,6.146909547594452,6.13878965673646,6.187510163472919,6.155029825648613,6.157059798363111,0.00047470717838195596,3.1000001430511475,23.274999618530273,0.0,0.0,0.0,0.0,0.0,snow covered,0.268779844045639,-8.61189460754395,100.0,432.905395507813
arenacam6_1769615065579783116.png,1769615065579783116,1769615065.5797832,42.299461261179154,-83.69755070359176,234.37913513183594,0.7305992120046517,0.6827532189434027,0.0060722016346749135,0.005996816481408695,0.010210000000000002,-0.0028400000000000005,0.00251,1.7711000000000001,1.0459,-9.6744,2.7822724672386974,6.223776572864932,7.659999847412109,7.669999599456787,7.659999847412109,7.599999904632568,6.219990501297226,6.2281103921552186,6.219990501297226,6.171269994560767,6.209840347327609,0.002239191168603933,3.1000001430511475,23.67500114440918,0.0,0.0,0.0,0.0,0.0,snow covered,0.268779844045639,-8.61189460754395,100.0,432.905395507813
arenacam6_1769615065600540028.png,1769615065600540028,1769615065.60054,42.299461760153065,-83.697550671062,234.38064575195312,0.7305845687014886,0.6827708488730584,0.005851728215898605,0.005992760741972711,0.008560000000000002,-0.013260000000000003,-0.0043300000000000005,1.6198000000000001,-1.1018000000000001,-10.4562,2.815982259707941,6.299183356031082,7.71999979019165,7.739999771118164,7.599999904632568,7.75,6.268711008033685,6.28495117694584,6.171269994560767,6.293071455000001,6.254500908635073,0.007093371453178659,3.1000001430511475,23.5,0.0,0.0,0.0,0.0,0.0,snow covered,0.268779844045639,-8.61189460754395,100.0,432.905395507813
arenacam6_1769615065621115309.png,1769615065621115309,1769615065.6211154,42.29946226736943,-83.69755063638725,234.3826141357422,0.7305992288884735,0.6827530966788798,0.005791278317208871,0.006279874076832911,-0.01716,-0.024110000000000003,0.00619,0.8426,1.1019,-10.926,2.8379719174012865,6.3483729009116345,7.829999923706055,7.779999732971191,7.699999809265137,7.789999961853027,6.358032130648613,6.317431514770146,6.252470839121533,6.325551792824307,6.313371569341149,0.005513433460321604,3.1000001430511475,23.625,0.0,0.0,0.0,0.0,0.0,snow covered,0.268779844045639,-8.61189460754395,100.0,432.905395507813
arenacam6_1769615065642091810.png,1769615065642091810,1769615065.6420918,42.29946278014679,-83.69755059587445,234.38482666015625,0.7306065309258104,0.6827467465672836,0.0055891186054113,0.006303869728745935,0.01759,-0.016120000000000002,-0.0066500000000000005,1.7297,0.28900000000000003,-10.207,2.8667230248873303,6.412687403291465,7.849999904632568,7.829999923706055,7.889999866485596,7.889999866485596,6.374272299560767,6.358032130648613,6.406752637385073,6.406752637385073,6.386452426244881,0.0040911049294431534,3.1000001430511475,23.725000381469727,0.0,0.0,0.0,0.0,0.0,snow covered,0.268779844045639,-8.61189460754395,100.0,432.905395507813
arenacam6_1769615065662739282.png,1769615065662739282,1769615065.6627393,42.2994632935111,-83.69755056253146,234.38705444335938,0.7306124148077703,0.6827410105375273,0.005394739705994215,0.006411602175698821,0.00135,-0.01923,0.00024,1.3533000000000002,-0.6955,-10.0387,2.8935217732360927,6.472634595422746,7.940000057220459,7.96999979019165,8.09999942779541,7.96999979019165,6.4473532532635405,6.471713313033686,6.5772742173645975,6.471713313033686,6.492013524173878,0.0029939784898155497,3.1000001430511475,24.024999618530273,0.0,0.0,0.0,0.0,0.0,snow covered,0.268779844045639,-8.61189460754395,100.0,432.905395507813
arenacam6_1769615065683359026.png,1769615065683359026,1769615065.683359,42.29946381580258,-83.69755052725172,234.38966369628906,0.7306297592439557,0.6827214002042995,0.005287749074119672,0.006609411466194826,-0.0071200000000000005,-0.017200000000000003,0.0029600000000000004,1.3238,0.5707,-9.9384,2.9210165326693796,6.534138722589442,8.029999732971191,8.010000228881836,8.09999942779541,8.050000190734863,6.520433819770146,6.504194038054162,6.5772742173645975,6.536674375878468,6.534644112766843,7.734610464479847e-05,3.1000001430511475,24.200000762939453,0.0,0.0,0.0,0.0,0.0,snow covered,0.268779844045639,-8.61189460754395,100.0,432.905395507813
arenacam6_1769615065704159013.png,1769615065704159013,1769615065.704159,42.29946434344614,-83.69755048763616,234.3921356201172,0.7306560693529528,0.6826936744657439,0.005140393681258033,0.006680682222331368,0.009270000000000002,-0.009320000000000002,1e-05,1.1540000000000001,0.3118,-8.9124,2.9478683668230086,6.594204664481061,8.130000114440918,8.09000015258789,8.239999771118164,8.15999984741211,6.601635051527081,6.569154713702774,6.690955786945839,6.625995111297226,6.62193516586823,0.00420528369956977,3.1000001430511475,24.30000114440918,0.0,0.0,0.0,0.0,0.0,snow covered,0.268779844045639,-8.61189460754395,100.0,432.905395507813
arenacam6_1769615065724814942.png,1769615065724814942,1769615065.724815,42.29946487295334,-83.69755045308311,234.39451599121094,0.7306799285418466,0.6826669894088732,0.005095068583936917,0.00683109607842359,-0.015760000000000003,-0.017640000000000003,0.0034100000000000007,1.1860000000000002,-0.5391,-8.898100000000001,2.979144425789353,6.664167331825236,8.1899995803833,8.15999984741211,8.269999504089355,8.229999542236328,6.650355171067371,6.625995111297226,6.715315846715985,6.682835508891679,6.668625409493065,0.000668962444346084,3.1000001430511475,24.075000762939453,0.0,0.0,0.0,0.0,0.0,snow covered,0.268779844045639,-8.61189460754395,100.0,432.905395507813
arenacam6_1769615065745461825.png,1769615065745461825,1769615065.7454617,42.299465410773976,-83.69755041827392,234.39682006835938,0.7307298964387698,0.6826099451434237,0.005246385308860968,0.007068004178550434,-0.014000000000000002,-0.0043300000000000005,0.0009000000000000002,1.4118000000000002,0.6922,-8.8969,3.0195082025517563,6.7544586786161265,8.269999504089355,8.239999771118164,8.329999923706055,8.359999656677246,6.715315846715985,6.690955786945839,6.7640367406486135,6.7883968004187585,6.739676293682299,0.0021885373258151296,3.0,24.399999618530273,0.0,0.0,0.0,0.0,0.0,snow covered,0.268779844045639,-8.61189460754395,100.0,432.905395507813
arenacam6_1769615065766099509.png,1769615065766099509,1769615065.7660995,42.29946595400761,-83.69755038007024,234.39849853515625,0.7307239919834466,0.6826139053237557,0.005394251125676748,0.007183721404667202,-0.02542,0.007690000000000001,-0.00116,0.9597,-0.7601,-8.9174,3.042961184964411,6.80692159309429,8.399999618530273,8.34999942779541,8.380000114440918,8.479999542236328,6.820877138243064,6.7802765223645975,6.804637356527081,6.885837813891678,6.8229072077566055,0.0023484352572142185,3.0,24.55000114440918,0.0,0.0,0.0,0.0,0.0,snow covered,0.268779844045639,-8.61189460754395,100.0,432.905395507813
arenacam6_1769615065786825406.png,1769615065786825406,1769615065.7868254,42.29946649727999,-83.69755034448157,234.4001007080078,0.7307573931060025,0.6825744208450485,0.0056663460357933805,0.007327001540116207,-0.021940000000000005,0.008820000000000001,0.0034300000000000003,1.4117000000000002,1.1127,-8.8856,3.072761369062232,6.87358281691007,8.449999809265137,8.470000267028809,8.519999504089355,8.489999771118164,6.861477754121532,6.877718310229855,6.918318151715985,6.89395809194584,6.8878680770033025,0.0020782844222213275,2.9000000953674316,24.30000114440918,0.0,0.0,0.0,0.0,0.0,snow covered,0.268779844045639,-8.61189460754395,100.0,432.905395507813
arenacam6_1769615065807578054.png,1769615065807578054,1769615065.807578,42.29946704920074,-83.6975503086483,234.40150451660156,0.7307781932533279,0.6825512318138042,0.00581541566590915,0.007295831377774141,-0.009290000000000001,0.0148,-0.006660000000000001,1.5538,-0.3504,-9.1967,3.102779972438739,6.940732631547113,8.529999732971191,8.539999961853027,8.550000190734863,8.559999465942383,6.926438429770146,6.934558707824307,6.9426789858784685,6.950798489540291,6.938618653253303,0.0003045756703264306,2.799999952316284,24.30000114440918,0.0,0.0,0.0,0.0,0.0,snow covered,0.268779844045639,-8.61189460754395,100.0,432.905395507813
arenacam6_1769615065828135280.png,1769615065828135280,1769615065.8281353,42.29946760732244,-83.69755026633129,234.4022674560547,0.7307517672230659,0.6825773378073744,0.006047925739660649,0.007311306751274381,-0.015760000000000003,0.019750000000000004,-0.00305,1.0801,0.2102,-9.1845,3.126777000359015,6.9944125431830955,8.679999351501465,8.649999618530273,8.699999809265137,8.699999809265137,7.04823950301321,7.023879443243065,7.064480059121533,7.064480059121533,7.050269766124835,0.007985977749650895,2.6000001430511475,24.399999618530273,0.0,0.0,0.0,0.0,0.0,snow covered,0.268779844045639,-8.61189460754395,100.0,432.905395507813
arenacam6_1769615065848831973.png,1769615065848831973,1769615065.848832,42.29946816525951,-83.69755021962015,234.40306091308594,0.7307760582197422,0.6825511007427393,0.006201714286139159,0.007203217864542796,0.00251,0.018300000000000004,-0.005510000000000001,1.6295000000000002,0.8883000000000001,-9.6244,3.1565819719222743,7.061084476271812,8.769999504089355,8.760000228881836,8.769999504089355,8.800000190734863,7.121320456715984,7.113200953054162,7.121320456715984,7.145681290878468,7.12538078934115,0.009105727779549964,2.6000001430511475,24.375,0.0,0.0,0.0,0.0,0.0,snow covered,0.268779844045639,-8.61189460754395,100.0,432.905395507813
arenacam6_1769615065869395271.png,1769615065869395271,1769615065.8693953,42.29946873304693,-83.69755018209369,234.4038848876953,0.7307814828380406,0.6825467627402596,0.0062361675825288124,0.007032156689762875,0.00795,0.007880000000000002,-0.0058200000000000005,1.6079,-0.3448,-9.5577,3.1917825298786364,7.139826012386718,8.829999923706055,8.880000114440918,8.84000015258789,8.869999885559082,7.170041350648613,7.2106419665270804,7.1781616287027745,7.2025216884729195,7.1903416585878475,0.007075192884741363,2.5,24.399999618530273,0.0,0.0,0.0,0.0,0.0,snow covered,0.268779844045639,-8.61189460754395,100.0,432.905395507813
arenacam6_1769615065890366799.png,1769615065890366799,1769615065.8903668,42.299469880996675,-83.69755008815204,234.40481567382812,0.7307579952316602,0.6825723419535303,0.006354719031000021,0.006882437875821371,0.0037300000000000002,0.0238,-0.0036400000000000004,0.9563,0.4587,-9.304400000000001,3.212157038099798,7.185402564806963,8.949999809265137,8.949999809265137,8.929999351501465,8.899999618530273,7.267482364121533,7.267482364121533,7.25124180801321,7.226881748243065,7.253272071124836,0.009445470271949368,2.4000000953674316,24.325000762939453,0.0,0.0,0.0,0.0,0.0,snow covered,0.268779844045639,-8.61189460754395,100.0,432.905395507813
arenacam6_1769615065910846078.png,1769615065910846078,1769615065.910846,42.299470463835966,-83.69755004848686,234.4054718017578,0.7307576738860062,0.6825738029048998,0.0064328864745770925,0.0066965376323360176,0.009250000000000001,0.009770000000000003,-0.0061,1.8173000000000001,0.3073,-10.2018,3.2471311128482854,7.263637471574844,9.09999942779541,8.960000038146973,9.019999504089355,8.979999542236328,7.389283437364598,7.275602642175694,7.324322761715985,7.291842423891678,7.32026281628699,0.0077957283707701846,2.4000000953674316,24.649999618530273,0.0,0.0,0.0,0.0,0.0,snow covered,0.268779844045639,-8.61189460754395,100.0,432.905395507813
arenacam6_1769615065931516763.png,1769615065931516763,1769615065.9315166,42.29947105232941,-83.69755000160991,234.40602111816406,0.7308016555805323,0.6825282242820535,0.0064614078607146495,0.006512562291231673,0.010450000000000001,0.01631,-0.00026000000000000003,1.1131,-0.0795,-9.9182,3.272693942386515,7.320819987482091,9.09000015258789,9.09000015258789,9.069999694824219,9.079999923706055,7.381163933702774,7.381163933702774,7.364923377594453,7.373043655648613,7.375073725162153,0.007410882629654982,2.4000000953674316,24.575000762939453,0.0,0.0,0.0,0.0,0.0,snow covered,0.268779844045639,-8.61189460754395,100.0,432.905395507813
arenacam6_1769615065952324600.png,1769615065952324600,1769615065.9523246,42.299471642917496,-83.69754995249208,234.40675354003906,0.7307879581109572,0.6825432326423584,0.006574221987945674,0.006362032646150415,0.0032300000000000002,0.01634,-0.0016200000000000001,1.4785000000000001,0.4302,-10.331800000000001,3.2989580709953277,7.379571267332289,9.210000038146973,9.130000114440918,9.15999984741211,9.130000114440918,7.478604947175694,7.413644271527081,7.438004331297226,7.413644271527081,7.435974455381771,0.007643152427996255,2.4000000953674316,24.725000381469727,0.0,0.0,0.0,0.0,0.0,snow covered,0.268779844045639,-8.61189460754395,100.0,432.905395507813
arenacam6_1769615065972898872.png,1769615065972898872,1769615065.9728987,42.299472241647436,-83.69754991113909,234.40777587890625,0.7308266041547341,0.6825028462449925,0.006632379822570659,0.006192823672044474,0.00708,0.013790000000000002,7.000000000000002e-05,1.8796000000000002,0.16240000000000002,-10.5122,3.3323070794276166,7.454170998254813,9.309999465942383,9.229999542236328,9.239999771118164,9.1899995803833,7.559805404540291,7.494844728891678,7.502965006945839,7.462364391067371,7.504994882861295,0.006818180669370301,2.4000000953674316,25.024999618530273,0.0,0.0,0.0,0.0,0.0,snow covered,0.268779844045639,-8.61189460754395,100.0,432.905395507813
arenacam6_1769615065993554494.png,1769615065993554494,1769615065.9935544,42.29947284673262,-83.69754986359003,234.4090576171875,0.7308687312421502,0.6824579216807515,0.006667637561748269,0.006133957696599933,0.0010000000000000002,0.0079,0.0017300000000000002,1.1997,-0.1496,-10.21,3.361178472710255,7.518754572744479,9.359999656677246,9.34000015258789,9.319999694824219,9.220000267028809,7.600406020418759,7.584166238702775,7.567925682594453,7.486725225229855,7.55980579173646,0.005459842929411774,2.4000000953674316,25.0,0.0,0.0,0.0,0.0,0.0,snow covered,0.268779844045639,-8.61189460754395,100.0,432.905395507813
arenacam6_1769615066014439862.png,1769615066014439862,1769615066.0144398,42.29947345379106,-83.69754981262804,234.410400390625,0.7308755190142745,0.682448986499659,0.006795877149994245,0.006178396633862154,-0.015390000000000003,0.0021100000000000003,0.00256,1.7179,0.509,-10.7544,3.3927278381853414,7.589328610350318,9.359999656677246,9.380000114440918,9.40999984741211,9.420000076293945,7.600406020418759,7.616646576527081,7.641006636297226,7.649126914351387,7.626796536898614,0.00493692241724749,2.4000000953674316,24.950000762939453,0.0,0.0,0.0,0.0,0.0,snow covered,0.268779844045639,-8.61189460754395,100.0,432.905395507813
arenacam6_1769615066035014650.png,1769615066035014650,1769615066.0350146,42.29947406938238,-83.69754977126375,234.41217041015625,0.730911164130814,0.6824103161409352,0.006788469441364467,0.006240773670827498,-0.0024500000000000004,-0.005980000000000001,-0.0035100000000000005,1.8766,0.1139,-10.062000000000001,3.4279503741824153,7.668119310023613,9.550000190734863,9.460000038146973,9.4399995803833,9.5,7.754688205878468,7.681607252175693,7.665366696067372,7.714087590000001,7.703937436030384,0.004671044431970484,2.200000047683716,24.92500114440918,0.0,0.0,0.0,0.0,0.0,snow covered,0.268779844045639,-8.61189460754395,100.0,432.905395507813
arenacam6_1769615066055784976.png,1769615066055784976,1769615066.055785,42.29947469243093,-83.69754972241546,234.41415405273438,0.7309343618033125,0.6823821006709023,0.006831233764160431,0.006554514811199947,-0.021960000000000004,-0.014820000000000002,0.0021500000000000004,1.5810000000000002,0.757,-10.4709,3.4750575269067396,7.7734951842387625,9.510000228881836,9.529999732971191,9.579999923706055,9.579999923706055,7.722207868054161,7.738447649770146,7.779048265648614,7.779048265648614,7.754688012280383,0.002419397132516718,2.1000001430511475,25.125,0.0,0.0,0.0,0.0,0.0,snow covered,0.268779844045639,-8.61189460754395,100.0,432.905395507813
arenacam6_1769615066076257592.png,1769615066076257592,1769615066.0762575,42.29947531586487,-83.69754966911498,234.4162139892578,0.7309657280827949,0.6823484078941897,0.006726810924035221,0.006671178864810456,0.0027500000000000003,-0.015020000000000002,-0.00888,1.8087000000000002,-0.22460000000000002,-9.7086,3.5074463072174726,7.845946942467053,9.550000190734863,9.579999923706055,9.630000114440918,9.59000015258789,7.754688205878468,7.779048265648614,7.819648881527081,7.787168543702775,7.7851384741892335,0.007750303274253269,1.899999976158142,25.100000381469727,0.0,0.0,0.0,0.0,0.0,snow covered,0.268779844045639,-8.61189460754395,100.0,432.905395507813
arenacam6_1769615066097131871.png,1769615066097131871,1769615066.0971317,42.29947594764512,-83.69754962553894,234.418212890625,0.7309463619449307,0.6823678155469899,0.006685555333492047,0.006847161089260449,-0.012230000000000001,-0.00986,0.0024300000000000007,1.351,-0.0519,-9.542300000000001,3.5330558051416245,7.903233852753506,9.639999389648438,9.550000190734863,9.779999732971191,9.779999732971191,7.827768385188905,7.754688205878468,7.941449954770146,7.941449954770146,7.866339125151916,0.004668307719217449,1.7000000476837158,25.200000762939453,0.0,0.0,0.0,0.0,0.0,snow covered,0.268779844045639,-8.61189460754395,100.0,432.905395507813
arenacam6_1769615066117769130.png,1769615066117769130,1769615066.1177692,42.299476584836135,-83.69754956969565,234.42013549804688,0.7309876513330078,0.6823240404206784,0.006563447274407009,0.006919438021199448,0.010350000000000002,-0.009720000000000003,-0.006940000000000001,1.1044,1.3010000000000002,-9.2299,3.556841778991161,7.9564416490964875,9.769999504089355,9.789999961853027,9.84999942779541,9.899999618530273,7.933329676715984,7.949570232824307,7.998290352364598,8.038890968243065,7.980020307536989,0.0029634677762237225,1.600000023841858,25.17500114440918,0.0,0.0,0.0,0.0,0.0,snow covered,0.268779844045639,-8.61189460754395,100.0,432.905395507813
arenacam6_1769615066138283087.png,1769615066138283087,1769615066.138283,42.299477222801904,-83.69754951837615,234.42196655273438,0.7309774142618918,0.6823387231641731,0.006403097267280126,0.00669978022552772,0.028650000000000005,0.007180000000000001,-0.00642,1.1503,0.0228,-8.962900000000001,3.578098744726454,8.003992206028395,9.84999942779541,9.889999389648438,9.899999618530273,9.920000076293945,7.998290352364598,8.030770690188904,8.038890968243065,8.055131524351388,8.030770883786989,0.0033456651467533086,1.5,25.399999618530273,0.0,0.0,0.0,0.0,0.0,snow covered,0.268779844045639,-8.61189460754395,100.0,432.905395507813
arenacam6_1769615066158990946.png,1769615066158990946,1769615066.1589909,42.29947786717647,-83.69754946910086,234.4234161376953,0.730935080555671,0.6823878581660039,0.006268236951927243,0.006436477779279522,0.02995,0.014330000000000002,-0.007250000000000001,0.8663000000000001,0.3713,-9.4663,3.5981336910303705,8.048809178813478,10.069999694824219,9.949999809265137,10.0,10.0,8.176932597594453,8.079491584121532,8.1200922,8.1200922,8.124152145428997,0.009360759454186234,1.5,25.5,0.0,0.0,0.0,0.0,0.0,snow covered,0.268779844045639,-8.61189460754395,100.0,432.905395507813
arenacam6_1769615066179729746.png,1769615066179729746,1769615066.1797297,42.29947851576223,-83.69754941064409,234.42462158203125,0.7309317234521575,0.682395613546034,0.006220384724959415,0.006029019676878487,0.03395,0.025810000000000003,-0.006820000000000001,1.2063000000000001,0.1384,-9.2368,3.6200649604536537,8.097868112637197,10.149999618530273,10.109999656677246,10.059999465942383,10.050000190734863,8.241893273243065,8.20941293541876,8.168812319540292,8.160692815878468,8.195202836020147,0.012019796078310226,1.5,25.850000381469727,0.0,0.0,0.0,0.0,0.0,snow covered,0.268779844045639,-8.61189460754395,100.0,432.905395507813
arenacam6_1769615066200621117.png,1769615066200621117,1769615066.2006211,42.29947916501777,-83.69754935169891,234.4258575439453,0.7309585111257582,0.6823714688240016,0.006184624021448787,0.005530277886592838,0.040150000000000005,0.03305,-0.0034100000000000007,1.1808,0.3417,-9.5844,3.6434975153653473,8.15028533202136,10.199999809265137,10.199999809265137,10.149999618530273,10.239999771118164,8.282493889121533,8.282493889121533,8.241893273243065,8.31497422694584,8.280463819607991,0.015972261372884444,1.5,25.649999618530273,0.0,0.0,0.0,0.0,0.0,snow covered,0.268779844045639,-8.61189460754395,100.0,432.905395507813
arenacam6_1769615066221069109.png,1769615066221069109,1769615066.221069,42.29947982235413,-83.6975493003081,234.42677307128906,0.7309095852091868,0.6824263863027422,0.006298343636631962,0.005073105020618905,0.020830000000000005,0.034710000000000005,-0.005140000000000001,1.602,0.29700000000000004,-9.530800000000001,3.6731126515778048,8.216532614820455,10.279999732971191,10.260000228881836,10.229999542236328,10.300000190734863,8.347454564770146,8.331214783054161,8.306853948891678,8.363695120878468,8.337304604398614,0.01469865638460664,1.600000023841858,25.67500114440918,0.0,0.0,0.0,0.0,0.0,snow covered,0.268779844045639,-8.61189460754395,100.0,432.905395507813
arenacam6_1769615066241704758.png,1769615066241704758,1769615066.2417047,42.29948048583671,-83.69754923972272,234.42794799804688,0.7309249272330183,0.6824117764090044,0.00638030512649049,0.004712735321112653,0.019850000000000003,0.02833,-0.0054800000000000005,1.3401,0.1386,-10.2729,3.702657022644681,8.282621600234794,10.369999885559082,10.380000114440918,10.380000114440918,10.329999923706055,8.42053551847292,8.428655796527082,8.428655796527082,8.388055180648614,8.416475573043925,0.016160821931710218,1.600000023841858,25.950000762939453,0.0,0.0,0.0,0.0,0.0,snow covered,0.268779844045639,-8.61189460754395,100.0,432.905395507813
arenacam6_1769615066262685652.png,1769615066262685652,1769615066.2626858,42.29948114944344,-83.69754917845317,234.4289093017578,0.7309325977303561,0.6824046974072087,0.006516618040080806,0.004347438446842964,0.01893,0.04188000000000001,-0.005640000000000001,1.4582000000000002,0.42900000000000005,-9.320500000000001,3.729498320964465,8.342663974098251,10.5,10.420000076293945,10.449999809265137,10.479999542236328,8.52609681,8.461136134351387,8.485496194121533,8.509856253891678,8.49564634809115,0.0183373529687721,1.600000023841858,25.975000381469727,0.0,0.0,0.0,0.0,0.0,snow covered,0.268779844045639,-8.61189460754395,100.0,432.905395507813
arenacam6_1769615066283263657.png,1769615066283263657,1769615066.2832637,42.29948182297598,-83.69754912452423,234.43006896972656,0.7308720725412587,0.6824707911400746,0.006565190705557696,0.004065844424653915,0.013040000000000001,0.01957,-0.00623,1.9080000000000001,-0.0015,-10.243400000000001,3.76777803562394,8.428293399008616,10.59999942779541,10.559999465942383,10.5,10.5,8.607297267364597,8.57481692954029,8.52609681,8.52609681,8.558576954226222,0.015457880860309192,1.600000023841858,25.850000381469727,0.0,0.0,0.0,0.0,0.0,snow covered,0.268779844045639,-8.61189460754395,100.0,432.905395507813
arenacam6_1769615066303855523.png,1769615066303855523,1769615066.3038557,42.299482502867185,-83.69754906130139,234.43165588378906,0.7308807100881216,0.6824631470880659,0.006526448254242294,0.003853045668137755,0.021270000000000004,0.015550000000000001,-0.005690000000000001,1.2163000000000002,0.3168,-10.680100000000001,3.793821015369683,8.48654998212106,10.65999984741211,10.59999942779541,10.59000015258789,10.550000190734863,8.656018161297226,8.607297267364597,8.599177763702775,8.566697425878468,8.607297654560766,0.014228122463673595,1.600000023841858,25.700000762939453,0.0,0.0,0.0,0.0,0.0,snow covered,0.268779844045639,-8.61189460754395,100.0,432.905395507813
arenacam6_1769615066324553404.png,1769615066324553404,1769615066.3245535,42.29948318423519,-83.6975489994839,234.43325805664062,0.7308727132574442,0.6824738708429087,0.006397916928015121,0.00368229430931984,0.01983,-0.00859,-0.006860000000000001,1.8390000000000002,-0.2753,-10.250200000000001,3.831060969260519,8.569853524577626,10.569999694824219,10.609999656677246,10.670000076293945,10.59999942779541,8.582937207594453,8.615417545418758,8.664138439351387,8.607297267364597,8.6174476149323,0.0055536643908997195,1.600000023841858,25.825000762939453,0.0,0.0,0.0,0.0,0.0,snow covered,0.268779844045639,-8.61189460754395,100.0,432.905395507813
arenacam6_1769615066345282010.png,1769615066345282010,1769615066.345282,42.29948387333459,-83.69754894375893,234.4349365234375,0.7308868821777531,0.6824622238045921,0.006154065528148534,0.0034359885985548243,0.028870000000000003,0.009400000000000002,0.0004000000000000001,0.9367000000000001,0.1932,-9.891,3.8623857829637553,8.639925253342943,10.819999694824219,10.679999351501465,10.710000038146973,10.710000038146973,8.785939512594451,8.67225794301321,8.696618777175694,8.696618777175694,8.712858752489762,0.008441450245023777,1.600000023841858,26.25,0.0,0.0,0.0,0.0,0.0,snow covered,0.268779844045639,-8.61189460754395,100.0,432.905395507813
arenacam6_1769615066365990545.png,1769615066365990545,1769615066.3659906,42.299484567436004,-83.69754888216286,234.43704223632812,0.7308646349934338,0.6824884432227095,0.00600117046990929,0.003224304009978123,0.021400000000000002,0.0011800000000000003,-0.0011800000000000003,1.8834000000000002,-1.0137,-9.9361,3.8976659922213304,8.718844964639583,10.809999465942383,10.779999732971191,10.779999732971191,10.75,8.77781923454029,8.753459174770146,8.753459174770146,8.729099115,8.753459174770146,0.003970045375384647,1.600000023841858,26.375,0.0,0.0,0.0,0.0,0.0,snow covered,0.268779844045639,-8.61189460754395,100.0,432.905395507813
arenacam6_1769615066386734659.png,1769615066386734659,1769615066.3867345,42.29948526313728,-83.69754882278846,234.439208984375,0.7309367060968283,0.6824130505797252,0.005843767455389151,0.003132165500026256,0.022440000000000005,0.0016500000000000002,0.0049900000000000005,0.6462,0.8961,-10.1285,3.9140842782932914,8.755571685485396,10.880000114440918,10.829999923706055,10.859999656677246,10.809999465942383,8.83466040652708,8.794059790648614,8.81841985041876,8.77781923454029,8.806239820533687,0.005786959077987578,1.7000000476837158,26.80000114440918,0.0,0.0,0.0,0.0,0.0,snow covered,0.268779844045639,-8.61189460754395,100.0,432.905395507813
arenacam6_1769615066407240774.png,1769615066407240774,1769615066.4072406,42.299485966878706,-83.69754876941256,234.44114685058594,0.7309355732333381,0.6824160411778468,0.005752117055096406,0.0029064883607290144,0.018250000000000002,0.0018300000000000002,-0.006,1.6796,-0.8417,-9.5827,3.944045096512392,8.822592238192431,11.010000228881836,10.889999389648438,10.899999618530273,10.859999656677246,8.940221698054161,8.842779910188904,8.850900188243065,8.81841985041876,8.863080411726223,0.004589147094265669,1.7000000476837158,27.600000381469727,0.0,0.0,0.0,0.0,0.0,snow covered,0.268779844045639,-8.61189460754395,100.0,432.905395507813
arenacam6_1769615066428117192.png,1769615066428117192,1769615066.4281173,42.29948667549312,-83.69754871190455,234.44342041015625,0.7309755093433988,0.6823739658952042,0.005714826448211574,0.0028135684238846208,0.008220000000000002,0.00024,0.00676,1.2962,0.2356,-9.959,3.97019581469689,8.881089825728061,11.050000190734863,10.979999542236328,11.010000228881836,11.069999694824219,8.972702035878468,8.915860863891679,8.940221698054161,8.988941817594451,8.95443160385469,0.008258195735636143,1.7000000476837158,27.625,0.0,0.0,0.0,0.0,0.0,snow covered,0.268779844045639,-8.61189460754395,100.0,432.905395507813
arenacam6_1769615066448985316.png,1769615066448985316,1769615066.4489853,42.29948738355967,-83.69754865087172,234.44581604003906,0.7309830038248235,0.6823665227425227,0.005688154335126021,0.0027242723388415904,0.008700000000000001,-0.0019600000000000004,-0.00239,1.0845,0.0785,-9.7805,3.9956341315194788,8.937993814161183,11.09000015258789,11.069999694824219,11.119999885559082,11.130000114440918,9.005182373702773,8.988941817594451,9.029542433472919,9.037662711527082,9.015332334074307,0.008652782886310538,1.7000000476837158,27.55000114440918,0.0,0.0,0.0,0.0,0.0,snow covered,0.268779844045639,-8.61189460754395,100.0,432.905395507813
arenacam6_1769615066469720996.png,1769615066469720996,1769615066.469721,42.29948810125248,-83.69754859948087,234.44786071777344,0.7310263984210351,0.6823203106734061,0.005709714667028257,0.0026072231468576867,0.004300000000000001,0.0033600000000000006,0.00205,1.705,-0.3816,-9.7623,4.025521947450754,9.00485106513049,11.139999389648438,11.130000114440918,11.199999809265137,11.179999351501465,9.045782215188904,9.037662711527082,9.094503109121534,9.07826255301321,9.064052647212682,0.006574409910169255,1.7000000476837158,27.700000762939453,0.0,0.0,0.0,0.0,0.0,snow covered,0.268779844045639,-8.61189460754395,100.0,432.905395507813
arenacam6_1769615066490119550.png,1769615066490119550,1769615066.4901195,42.299489547069115,-83.6975484851415,234.4525909423828,0.7310220035226114,0.6823247642501503,0.0057462825902587535,0.0025935869286881166,-0.00026000000000000003,0.0060300000000000015,0.0,0.9894000000000001,0.0424,-10.105400000000001,4.047380648437584,9.05374766771597,11.25999927520752,11.34000015258789,11.269999504089355,11.279999732971191,9.143223228661824,9.208184678702773,9.151343506715984,9.159463784770146,9.165553799712681,0.012349154858312691,1.7000000476837158,27.524999618530273,0.0,0.0,0.0,0.0,0.0,snow covered,0.268779844045639,-8.61189460754395,100.0,432.905395507813
arenacam6_1769615066510942109.png,1769615066510942109,1769615066.5109422,42.29949027985107,-83.69754843356858,234.45472717285156,0.7310615806872302,0.6822820712667255,0.005827693869801954,0.0024856498617237236,0.0033300000000000005,0.00969,0.0005300000000000001,1.8594000000000002,0.3613,-9.9289,4.076332164091036,9.118510471141802,11.289999961853027,11.34000015258789,11.34000015258789,11.309999465942383,9.167584062824305,9.208184678702773,9.208184678702773,9.18382384454029,9.191944316192536,0.008053271999098726,1.8000000715255737,27.80000114440918,0.0,0.0,0.0,0.0,0.0,snow covered,0.268779844045639,-8.61189460754395,100.0,432.905395507813
arenacam6_1769615066531411503.png,1769615066531411503,1769615066.5314114,42.29949101640997,-83.69754837478283,234.4571990966797,0.7310784750893828,0.6822644633646834,0.005792350825808531,0.002431864016369975,0.007420000000000001,0.0011900000000000003,-0.00032,1.1134,0.1376,-9.9802,4.102595031300604,9.177258929317574,11.279999732971191,11.279999732971191,11.429999351501465,11.429999351501465,9.159463784770146,9.159463784770146,9.28126485801321,9.28126485801321,9.220364321391678,0.00469697895701728,1.8000000715255737,27.600000381469727,0.0,0.0,0.0,0.0,0.0,snow covered,0.268779844045639,-8.61189460754395,100.0,432.905395507813
arenacam6_1769615066552117234.png,1769615066552117234,1769615066.5521173,42.29949175269369,-83.69754831060744,234.45948791503906,0.7310734280848172,0.6822701860027641,0.005810479977613743,0.002296598026858936,0.00931,0.013450000000000002,-0.0006100000000000001,1.1296000000000002,0.46030000000000004,-9.788,4.12210626875619,9.220904396831473,11.59999942779541,11.469999313354492,11.5,11.519999504089355,9.419306487364599,9.313745195837516,9.33810603,9.354345811715985,9.356375881229525,0.014691778438197736,1.8000000715255737,27.75,0.0,0.0,0.0,0.0,0.0,snow covered,0.268779844045639,-8.61189460754395,100.0,432.905395507813
arenacam6_1769615066574560004.png,1769615066574560004,1769615066.57456,42.29949249857771,-83.69754825650237,234.46163940429688,0.7310867217190306,0.6822566878665182,0.005812716158687996,0.002056579292851629,0.02084,0.017620000000000004,-0.0073500000000000015,1.7008,0.19390000000000002,-9.3701,4.151693142337236,9.287088457819857,11.579999923706055,11.489999771118164,11.59999942779541,11.550000190734863,9.403066705648614,9.329985751945838,9.419306487364599,9.378706645878468,9.38276639770938,0.01030225353447137,1.899999976158142,27.600000381469727,0.0,0.0,0.0,0.0,0.0,snow covered,0.268779844045639,-8.61189460754395,100.0,432.905395507813
arenacam6_1769615066593555810.png,1769615066593555810,1769615066.5935557,42.299493246147584,-83.69754819228075,234.4639129638672,0.7310908785050129,0.6822527792489343,0.005803015704698223,0.0018967294493743242,0.008530000000000001,0.009680000000000001,-0.0027300000000000007,0.8955000000000001,-0.21100000000000002,-9.8269,4.174880955996486,9.338958205706781,11.579999923706055,11.670000076293945,11.649999618530273,11.559999465942383,9.403066705648614,9.476147659351389,9.459907103243065,9.38682614954029,9.43148690444584,0.009907818056463458,2.0,27.600000381469727,0.0,0.0,0.0,0.0,0.0,snow covered,0.268779844045639,-8.61189460754395,100.0,432.905395507813
arenacam6_1769615066614270913.png,1769615066614270913,1769615066.614271,42.29949399648214,-83.69754812552918,234.4660186767578,0.7310517066658182,0.6822939436520897,0.005955447798887943,0.00170566063101134,0.00354,0.025750000000000006,-0.00905,1.1973,0.6928000000000001,-9.401,4.193989266643076,9.381702350124563,11.619999885559082,11.699999809265137,11.719999313354492,11.6899995803833,9.435547043472921,9.500507719121533,9.516747500837518,9.49238744106737,9.486297426124835,0.0111488376092942,2.1000001430511475,27.725000381469727,0.0,0.0,0.0,0.0,0.0,snow covered,0.268779844045639,-8.61189460754395,100.0,432.905395507813
arenacam6_1769615066635036804.png,1769615066635036804,1769615066.635037,42.29949475502069,-83.69754806792828,234.46815490722656,0.730980682612459,0.6823696616680249,0.006086030212741709,0.0013589402997441818,0.00759,0.02136,-0.008180000000000002,1.4832,-0.0847,-10.3027,4.240683957258703,9.486155571350285,11.829999923706055,11.789999961853027,11.789999961853027,11.800000190734863,9.606069010648612,9.573588672824306,9.573588672824306,9.581708950878468,9.583738826793923,0.010286912828876128,2.299999952316284,27.700000762939453,0.0,0.0,0.0,0.0,0.0,snow covered,0.268779844045639,-8.61189460754395,100.0,432.905395507813
arenacam6_1769615066655613865.png,1769615066655613865,1769615066.655614,42.299495516516,-83.69754800109332,234.47047424316406,0.7309458296408113,0.6824060524789507,0.0062355847556688025,0.001136289380589669,0.005470000000000001,0.033620000000000004,-0.010470000000000002,1.2829000000000002,0.0655,-10.0403,4.259479153663414,9.528199297995839,11.84999942779541,11.819999694824219,11.84000015258789,11.90999984741211,9.622308792364597,9.597948732594453,9.614189288702775,9.671029686297226,9.626369124989763,0.010303082872602533,2.4000000953674316,27.575000762939453,0.0,0.0,0.0,0.0,0.0,snow covered,0.268779844045639,-8.61189460754395,100.0,432.905395507813
arenacam6_1769615066676232664.png,1769615066676232664,1769615066.6762328,42.29949628107526,-83.69754793392318,234.4727783203125,0.7308962113496882,0.6824582779982694,0.006368132155608374,0.0009348364335001679,0.00676,0.022340000000000006,-0.012250000000000002,1.727,0.0897,-9.9998,4.291427781081624,9.59966646061273,11.889999389648438,11.800000190734863,11.880000114440918,11.949999809265137,9.654789130188902,9.581708950878468,9.64666962652708,9.703510024121533,9.646669432928997,0.004896313065575757,2.5,27.67500114440918,0.0,0.0,0.0,0.0,0.0,snow covered,0.268779844045639,-8.61189460754395,100.0,432.905395507813
arenacam6_1769615066696972021.png,1769615066696972021,1769615066.6969721,42.299497053211354,-83.69754787510789,234.47511291503906,0.730833899425138,0.682524513651544,0.00644389554465827,0.0007588978719221624,0.008130000000000002,0.022930000000000002,-0.00949,1.0102,0.056,-10.1559,4.313899665984124,9.649934718826527,12.029999732971191,12.00999927520752,11.979999542236328,12.039999961853027,9.768470699770145,9.752230143661823,9.727870083891679,9.776590977824307,9.756290476286988,0.01102139657514642,2.700000047683716,27.475000381469727,0.0,0.0,0.0,0.0,0.0,snow covered,0.268779844045639,-8.61189460754395,100.0,432.905395507813
arenacam6_1769615066717632256.png,1769615066717632256,1769615066.7176323,42.299497829837755,-83.69754780968341,234.47781372070312,0.7307882420521664,0.6825725069212845,0.006554512059205073,0.000597030286648219,0.00024,0.019420000000000003,-0.011050000000000003,1.7158,-0.3034,-10.5174,4.342080614608283,9.712973810041852,12.119999885559082,12.149999618530273,12.039999961853027,12.09999942779541,9.84155165347292,9.865911713243065,9.776590977824307,9.825311097364597,9.827341360476222,0.011774720355585614,2.700000047683716,27.55000114440918,0.0,0.0,0.0,0.0,0.0,snow covered,0.268779844045639,-8.61189460754395,100.0,432.905395507813
arenacam6_1769615066738396930.png,1769615066738396930,1769615066.738397,42.299498606963766,-83.69754774245608,234.4805450439453,0.7307773594020249,0.6825839609767941,0.006583453456493608,0.000495321330152318,0.008130000000000002,0.016150000000000005,-0.006490000000000001,1.479,-0.2954,-10.375200000000001,4.370313145937243,9.776128288672858,12.130000114440918,12.279999732971191,12.25999927520752,12.1899995803833,9.84967193152708,9.971473004770145,9.955232448661823,9.898392051067372,9.918692359006606,0.014582876382558334,2.799999952316284,27.899999618530273,0.0,0.0,0.0,0.0,0.0,snow covered,0.268779844045639,-8.61189460754395,100.0,432.905395507813
arenacam6_1769615066759017542.png,1769615066759017542,1769615066.7590175,42.29949939430785,-83.69754768546707,234.4832763671875,0.7307169590924442,0.6826482344259341,0.0066284433814414075,0.00042126972982575885,-0.00046000000000000007,0.014380000000000002,-0.007960000000000002,1.4966000000000002,-0.5222,-9.657200000000001,4.397134678693678,9.836126448157035,12.300000190734863,12.289999961853027,12.25999927520752,12.279999732971191,9.987713560878468,9.979593282824307,9.955232448661823,9.971473004770145,9.973503074283686,0.013966537218763645,2.9000000953674316,27.899999618530273,0.0,0.0,0.0,0.0,0.0,snow covered,0.268779844045639,-8.61189460754395,100.0,432.905395507813
arenacam6_1769615066779761712.png,1769615066779761712,1769615066.7797616,42.29950018604711,-83.6975476223892,234.48599243164062,0.7307323089547075,0.6826310046739903,0.0067144644391308045,0.0003465181034261252,0.00048,0.018940000000000002,6e-05,1.647,0.0969,-9.2079,4.424207179410519,9.896686007910567,12.279999732971191,12.380000114440918,12.460000038146973,12.359999656677246,9.971473004770145,10.05267423652708,10.117634912175694,10.03643368041876,10.04455395847292,0.014941158125473426,2.9000000953674316,27.67500114440918,0.0,0.0,0.0,0.0,0.0,snow covered,0.268779844045639,-8.61189460754395,100.0,432.905395507813
arenacam6_1769615066800860342.png,1769615066800860342,1769615066.8008604,42.299500978891665,-83.6975475599311,234.48880004882812,0.7307241206609555,0.6826397463886538,0.006718280359718212,0.00031755899588928354,0.004710000000000001,0.0036100000000000004,-0.006560000000000001,1.2168,-0.158,-9.167200000000001,4.452362566486253,9.959667919475761,12.359999656677246,12.420000076293945,12.460000038146973,12.389999389648438,10.03643368041876,10.085154574351387,10.117634912175694,10.060793740188904,10.075004226783687,0.011580336637769821,2.9000000953674316,27.575000762939453,0.0,0.0,0.0,0.0,0.0,snow covered,0.268779844045639,-8.61189460754395,100.0,432.905395507813
arenacam6_1769615066821636711.png,1769615066821636711,1769615066.8216367,42.299501781483706,-83.69754750607875,234.4911651611328,0.730722396883868,0.6826409109339044,0.006789888892402237,0.00025064008625951965,-0.0036600000000000005,0.00562,0.00031,1.3115,-0.2998,-9.0029,4.4783592246565735,10.017820884003276,12.50999927520752,12.59000015258789,12.519999504089355,12.529999732971191,10.158234753661825,10.223196203702775,10.166355031715984,10.174475309770145,10.180565324712681,0.016245493166011746,2.9000000953674316,27.700000762939453,0.0,0.0,0.0,0.0,0.0,snow covered,0.268779844045639,-8.61189460754395,100.0,432.905395507813
arenacam6_1769615066843352779.png,1769615066843352779,1769615066.8433528,42.29950258541436,-83.6975474423183,234.49293518066406,0.7307561489643326,0.6826040297622872,0.006868807122342248,9.376470924515254e-05,0.00954,0.014990000000000002,-0.0016300000000000002,1.6456000000000002,0.3502,-9.1232,4.5065325135450065,10.080842840849368,12.550000190734863,12.59000015258789,12.569999694824219,12.609999656677246,10.190715865878467,10.223196203702775,10.206955647594452,10.23943598541876,10.215075925648614,0.013315660894475058,2.9000000953674316,27.649999618530273,0.0,0.0,0.0,0.0,0.0,snow covered,0.268779844045639,-8.61189460754395,100.0,432.905395507813
arenacam6_1769615066862445462.png,1769615066862445462,1769615066.8624456,42.29950339009991,-83.69754738171889,234.49484252929688,0.7307776165477881,0.6825810323791606,0.006870850400775359,-2.834966868508057e-05,0.007740000000000001,0.006810000000000001,-0.00289,1.4841,-0.2765,-10.0089,4.534871062956396,10.144234475569682,12.630000114440918,12.630000114440918,12.529999732971191,12.639999389648438,10.255676541527082,10.255676541527082,10.174475309770145,10.263796045188904,10.237406109503304,0.009184688520164512,2.9000000953674316,27.825000762939453,0.0,0.0,0.0,0.0,0.0,snow covered,0.268779844045639,-8.61189460754395,100.0,432.905395507813
arenacam6_1769615066883112726.png,1769615066883112726,1769615066.8831127,42.29950420681303,-83.69754732625955,234.49685668945312,0.7307891833342486,0.682568551902429,0.006879640400302681,-0.0001096514721756552,0.005580000000000001,0.00817,0.004020000000000001,1.3486,0.45370000000000005,-10.4414,4.558254824192495,10.19654254642916,12.699999809265137,12.65999984741211,12.630000114440918,12.649999618530273,10.312516939121533,10.280036601297226,10.255676541527082,10.271916323243065,10.280036601297226,0.008188467266024924,2.9000000953674316,27.825000762939453,0.0,0.0,0.0,0.0,0.0,snow covered,0.268779844045639,-8.61189460754395,100.0,432.905395507813
arenacam6_1769615066903922969.png,1769615066903922969,1769615066.903923,42.29950502481782,-83.69754726141224,234.49899291992188,0.7308201992947043,0.6825359959196228,0.00681176734472233,-0.0002245050080868485,0.01617,0.0036200000000000004,-0.0022400000000000007,1.3576000000000001,0.0869,-10.1103,4.58306029276147,10.252030891289843,12.6899995803833,12.739999771118164,12.75999927520752,12.719999313354492,10.304396661067372,10.34499727694584,10.361237058661825,10.328756720837516,10.334846929378138,0.008078012928994906,2.9000000953674316,27.55000114440918,0.0,0.0,0.0,0.0,0.0,snow covered,0.268779844045639,-8.61189460754395,100.0,432.905395507813
