image_filename,timestamp_ns,timestamp_sec,latitude,longitude,altitude,orientation_x,orientation_y,orientation_z,orientation_w,angular_velocity_x,angular_velocity_y,angular_velocity_z,linear_acceleration_x,linear_acceleration_y,linear_acceleration_z,vehicle_speed_mps,vehicle_speed_mph,wheel_speed_fl_rads,wheel_speed_fr_rads,wheel_speed_rl_rads,wheel_speed_rr_rads,wheel_speed_fl_mph,wheel_speed_fr_mph,wheel_speed_rl_mph,wheel_speed_rr_mph,avg_wheel_speed_mph,wheel_slip,steering_angle_deg,throttle_pedal,brake_pedal,brake_torque_actual,abs_active,esc_active,trac_active,marwis_road_condition,marwis_friction,marwis_surface_temp_c,marwis_ice_percent,marwis_water_film_height
arenacam6_1769536781948749610.png,1769536781948749610,1769536781.9487495,42.299991844916285,-83.69796081701345,236.12547302246094,0.7261098974653222,0.687531153495731,-0.007670379895902804,0.002548538401005913,0.0008200000000000001,-0.0005400000000000001,-0.0008100000000000001,-0.14100000000000001,-0.0799,-9.8055,0.008880197253935723,0.019864468445218976,0.0,0.0,0.0,0.0,0.0,0.0,0.0,0.0,0.0,0.0,0.30000001192092896,0.0,2260.0,2824.0,0.0,0.0,0.0,snow covered,0.252878487110138,-6.82264423370361,100.0,500.625823974609
arenacam6_1769536781969226726.png,1769536781969226726,1769536781.9692268,42.299991846607725,-83.69796081863602,236.1255340576172,0.7261174566477142,0.6875231853439331,-0.0076686698415096,0.0025495624818063717,-0.00016,0.00016,0.0013000000000000002,-0.137,-0.0747,-9.8073,0.009061909495608332,0.020270947827106103,0.0,0.0,0.0,0.0,0.0,0.0,0.0,0.0,0.0,0.0,0.30000001192092896,0.0,2200.0,2696.0,0.0,0.0,0.0,snow covered,0.252878487110138,-6.82264423370361,100.0,500.625823974609
arenacam6_1769536781990006447.png,1769536781990006447,1769536781.9900064,42.299991845078715,-83.69796081803567,236.12551879882812,0.7261154328062913,0.6875253702356506,-0.007667685500540332,0.002539709024402603,0.0011400000000000002,0.0010700000000000002,-0.0007300000000000002,-0.1383,-0.0656,-9.8079,0.008867772622129509,0.019836675289346385,0.0,0.0,0.0,0.0,0.0,0.0,0.0,0.0,0.0,0.0,0.30000001192092896,0.0,2200.0,2572.0,0.0,0.0,0.0,snow covered,0.252878487110138,-6.82264423370361,100.0,500.625823974609
arenacam6_1769536782029347281.png,1769536782029347281,1769536782.0293474,42.29999184364691,-83.69796081752578,236.12550354003906,0.7261154328062913,0.6875253702356506,-0.007667685500540332,0.002539709024402603,0.0011400000000000002,0.0010700000000000002,-0.0007300000000000002,-0.1383,-0.0656,-9.8079,0.008973118317848056,0.02007232728992703,0.0,0.0,0.0,0.0,0.0,0.0,0.0,0.0,0.0,0.0,0.30000001192092896,0.0,2200.0,2248.0,0.0,0.0,0.0,snow covered,0.252878487110138,-6.82264423370361,100.0,500.625823974609
arenacam6_1769536782049936265.png,1769536782049936265,1769536782.0499363,42.29999184533969,-83.6979608191622,236.12557983398438,0.7261140573122107,0.6875268566629157,-0.007664509444813494,0.0025401645184482116,-0.0003800000000000001,0.00042000000000000007,-0.0004300000000000001,-0.1428,-0.0682,-9.798200000000001,0.009071498548602806,0.020292397963311563,0.0,0.0,0.0,0.0,0.0,0.0,0.0,0.0,0.0,0.0,0.30000001192092896,0.0,2200.0,2248.0,0.0,0.0,0.0,snow covered,0.252878487110138,-6.82264423370361,100.0,500.625823974609
arenacam6_1769536782072572845.png,1769536782072572845,1769536782.072573,42.29999184533969,-83.6979608191622,236.12557983398438,0.7261140573122107,0.6875268566629157,-0.007664509444813494,0.0025401645184482116,-0.0003800000000000001,0.00042000000000000007,-0.0004300000000000001,-0.1428,-0.0682,-9.798200000000001,0.00897848516663226,0.02008433260864637,0.0,0.0,0.0,0.0,0.0,0.0,0.0,0.0,0.0,0.0,0.30000001192092896,0.0,2200.0,2196.0,0.0,0.0,0.0,snow covered,0.252878487110138,-6.82264423370361,100.0,500.625823974609
arenacam6_1769536782112440755.png,1769536782112440755,1769536782.1124408,42.29999184401315,-83.69796081868546,236.1255645751953,0.7261119541285957,0.687528960121359,-0.007671839696448144,0.0025498905206052503,-0.00035000000000000005,-0.00111,-0.0015300000000000003,-0.1466,-0.07050000000000001,-9.8033,0.00897848516663226,0.02008433260864637,0.0,0.0,0.0,0.0,0.0,0.0,0.0,0.0,0.0,0.0,0.30000001192092896,0.0,2200.0,2168.0,0.0,0.0,0.0,snow covered,0.252878487110138,-6.82264423370361,100.0,500.625823974609
arenacam6_1769536782133239723.png,1769536782133239723,1769536782.1332397,42.29999184401315,-83.69796081868546,236.1255645751953,0.7261119541285957,0.687528960121359,-0.007671839696448144,0.0025498905206052503,-0.00035000000000000005,-0.00111,-0.0015300000000000003,-0.1466,-0.07050000000000001,-9.8033,0.00897443491712821,0.02007527244352078,0.0,0.0,0.0,0.0,0.0,0.0,0.0,0.0,0.0,0.0,0.30000001192092896,0.0,2200.0,2176.0,0.0,0.0,0.0,snow covered,0.252878487110138,-6.82264423370361,100.0,500.625823974609
arenacam6_1769536782153751318.png,1769536782153751318,1769536782.1537514,42.29999184401315,-83.69796081868546,236.1255645751953,0.7261119541285957,0.687528960121359,-0.007671839696448144,0.0025498905206052503,-0.00035000000000000005,-0.00111,-0.0015300000000000003,-0.1466,-0.07050000000000001,-9.8033,0.00897443491712821,0.02007527244352078,0.0,0.0,0.0,0.0,0.0,0.0,0.0,0.0,0.0,0.0,0.30000001192092896,0.0,2200.0,2180.0,0.0,0.0,0.0,snow covered,0.252878487110138,-6.82264423370361,100.0,500.625823974609
arenacam6_1769536782195602095.png,1769536782195602095,1769536782.1956022,42.29999183886348,-83.6979608174818,236.12574768066406,0.7261136619149202,0.6875271451402253,-0.0076719231752473225,0.0025526986954368756,-0.0005900000000000001,-0.0004700000000000001,0.00055,-0.138,-0.069,-9.8032,0.008407373834981063,0.01880679082642254,0.0,0.0,0.0,0.0,0.0,0.0,0.0,0.0,0.0,0.0,0.30000001192092896,0.0,2200.0,2184.0,0.0,0.0,0.0,snow covered,0.252878487110138,-6.82264423370361,100.0,500.625823974609
arenacam6_1769536782215742070.png,1769536782215742070,1769536782.2157419,42.29999183629937,-83.69796081615162,236.12576293945312,0.7261136619149202,0.6875271451402253,-0.0076719231752473225,0.0025526986954368756,-0.0005900000000000001,-0.0004700000000000001,0.00055,-0.138,-0.069,-9.8032,0.008707015952563511,0.019477072264927422,0.0,0.0,0.0,0.0,0.0,0.0,0.0,0.0,0.0,0.0,0.30000001192092896,0.0,2200.0,2188.0,0.0,0.0,0.0,snow covered,0.252878487110138,-6.82264423370361,100.0,500.625823974609
arenacam6_1769536782236477327.png,1769536782236477327,1769536782.2364774,42.29999183385843,-83.6979608148957,236.1257781982422,0.7260955423292578,0.687546429783745,-0.0076669214412323616,0.0025275713285588305,0.0005000000000000001,0.0011200000000000003,-0.00030000000000000003,-0.1331,-0.0679,-9.8137,0.008609764175874708,0.01925952587558117,0.0,0.0,0.0,0.0,0.0,0.0,0.0,0.0,0.0,0.0,0.30000001192092896,0.0,2200.0,2188.0,0.0,0.0,0.0,snow covered,0.252878487110138,-6.82264423370361,100.0,500.625823974609
arenacam6_1769536782257174546.png,1769536782257174546,1769536782.2571745,42.29999183548754,-83.69796081639245,236.12583923339844,0.7260979833794845,0.6875439064941554,-0.007664922531392433,0.002518757151783648,0.0003800000000000001,0.0008600000000000002,0.0007000000000000001,-0.1368,-0.0712,-9.8024,0.00880400205452443,0.01969402435584788,0.0,0.0,0.0,0.0,0.0,0.0,0.0,0.0,0.0,0.0,0.30000001192092896,0.0,2200.0,2188.0,0.0,0.0,0.0,snow covered,0.252878487110138,-6.82264423370361,100.0,500.625823974609
arenacam6_1769536782277543939.png,1769536782277543939,1769536782.277544,42.2999918331685,-83.69796081516782,236.12586975097656,0.7260987000342052,0.6875431492117574,-0.007667540399461482,0.002510897217885276,0.0014000000000000002,0.00021000000000000004,0.00013000000000000002,-0.1369,-0.0584,-9.8039,0.008615218850839367,0.019271727656196613,0.0,0.0,0.0,0.0,0.0,0.0,0.0,0.0,0.0,0.0,0.30000001192092896,0.0,2200.0,2192.0,0.0,0.0,0.0,snow covered,0.252878487110138,-6.82264423370361,100.0,500.625823974609
arenacam6_1769536782319246860.png,1769536782319246860,1769536782.3192468,42.29999183095752,-83.69796081406567,236.1259002685547,0.7261017992106958,0.6875398246045352,-0.007672804565614811,0.0025089511459924748,0.0013200000000000002,0.00015000000000000001,0.0008900000000000001,-0.1461,-0.0687,-9.8058,0.008319608879200779,0.01861046588623939,0.0,0.0,0.0,0.0,0.0,0.0,0.0,0.0,0.0,0.0,0.30000001192092896,0.0,2200.0,2192.0,0.0,0.0,0.0,snow covered,0.252878487110138,-6.82264423370361,100.0,500.625823974609
arenacam6_1769536782340107006.png,1769536782340107006,1769536782.340107,42.29999183252595,-83.69796081550167,236.12596130371094,0.7261062422509518,0.6875351512496368,-0.007668772735879003,0.002516085266130581,-0.0014700000000000002,-0.00034,0.00117,-0.14800000000000002,-0.0684,-9.7941,0.008320972902162303,0.018613517123762944,0.0,0.0,0.0,0.0,0.0,0.0,0.0,0.0,0.0,0.0,0.30000001192092896,0.0,2200.0,2196.0,0.0,0.0,0.0,snow covered,0.252878487110138,-6.82264423370361,100.0,500.625823974609
arenacam6_1769536782360341684.png,1769536782360341684,1769536782.3603418,42.29999183032982,-83.69796081440269,236.12599182128906,0.7261027941155798,0.687538698412265,-0.007676592787555736,0.002518032225883894,0.00101,6e-05,-0.0009300000000000002,-0.1432,-0.0606,-9.7895,0.008028377546728764,0.017958998869379444,0.0,0.0,0.0,0.0,0.0,0.0,0.0,0.0,0.0,0.0,0.30000001192092896,0.0,2200.0,2196.0,0.0,0.0,0.0,snow covered,0.252878487110138,-6.82264423370361,100.0,500.625823974609
arenacam6_1769536782381150212.png,1769536782381150212,1769536782.3811502,42.29999182792129,-83.6979608111666,236.1259307861328,0.7261066182515415,0.687534673235398,-0.007679125552094858,0.002506603510645296,0.0021100000000000003,0.0012100000000000001,0.0010800000000000002,-0.1468,-0.0567,-9.7971,0.007933951601437091,0.017747773695318686,0.0,0.0,0.0,0.0,0.0,0.0,0.0,0.0,0.0,0.0,0.30000001192092896,0.0,2200.0,2200.0,0.0,0.0,0.0,snow covered,0.252878487110138,-6.82264423370361,100.0,500.625823974609
arenacam6_1769536782401722085.png,1769536782401722085,1769536782.4017222,42.29999182938022,-83.69796081253278,236.12599182128906,0.7261069390405177,0.6875342651309059,-0.007683521776564812,0.002512138774874317,-0.0004300000000000001,-0.00030000000000000003,0.0004700000000000001,-0.1469,-0.07930000000000001,-9.790000000000001,0.007839907403800361,0.01753740246785718,0.0,0.0,0.0,0.0,0.0,0.0,0.0,0.0,0.0,0.0,0.30000001192092896,0.0,2200.0,2200.0,0.0,0.0,0.0,snow covered,0.252878487110138,-6.82264423370361,100.0,500.625823974609
arenacam6_1769536782422623596.png,1769536782422623596,1769536782.4226234,42.29999182705117,-83.69796080940594,236.1259307861328,0.72610731455449,0.6875339202472768,-0.007681534427462439,0.002504054455932892,0.0005400000000000001,0.0010000000000000002,0.00011000000000000002,-0.1327,-0.0658,-9.804,0.007750992279471146,0.017338504669640185,0.0,0.0,0.0,0.0,0.0,0.0,0.0,0.0,0.0,0.0,0.30000001192092896,0.0,2200.0,2200.0,0.0,0.0,0.0,snow covered,0.252878487110138,-6.82264423370361,100.0,500.625823974609
arenacam6_1769536782464203870.png,1769536782464203870,1769536782.4642038,42.29999182625943,-83.69796080764918,236.1259307861328,0.7261151874972511,0.6875256317689564,-0.007676159405985613,0.0025133092334329817,-5.000000000000001e-05,2e-05,0.0011400000000000002,-0.1285,-0.0688,-9.8081,0.007965413568032485,0.01781815222687459,0.0,0.0,0.0,0.0,0.0,0.0,0.0,0.0,0.0,0.0,0.30000001192092896,0.0,2200.0,2200.0,0.0,0.0,0.0,snow covered,0.252878487110138,-6.82264423370361,100.0,500.625823974609
arenacam6_1769536782484851822.png,1769536782484851822,1769536782.4848516,42.29999182415566,-83.69796080470671,236.12588500976562,0.7261172795314629,0.6875234868438467,-0.007672783896821278,0.002505951152522742,0.00027000000000000006,0.0010400000000000001,0.00055,-0.136,-0.0763,-9.8095,0.007869571428998705,0.017603759112384366,0.0,0.0,0.0,0.0,0.0,0.0,0.0,0.0,0.0,0.0,0.30000001192092896,0.0,2200.0,2208.0,0.0,0.0,0.0,snow covered,0.252878487110138,-6.82264423370361,100.0,500.625823974609
arenacam6_1769536782507936018.png,1769536782507936018,1769536782.507936,42.29999182213168,-83.69796080182198,236.1258544921875,0.7261179530537413,0.6875227953209051,-0.007669711830537299,0.0025099178492195137,-0.00017,-0.0005400000000000001,0.00011000000000000002,-0.1404,-0.0575,-9.8069,0.007873549304287976,0.017612657380733945,0.0,0.0,0.0,0.0,0.0,0.0,0.0,0.0,0.0,0.0,0.30000001192092896,0.0,2200.0,2200.0,0.0,0.0,0.0,snow covered,0.252878487110138,-6.82264423370361,100.0,500.625823974609
arenacam6_1769536782527923218.png,1769536782527923218,1769536782.527923,42.29999182213168,-83.69796080182198,236.1258544921875,0.7261165621323407,0.6875241643318734,-0.007677578038643726,0.0025132553253427946,0.0005000000000000001,-0.0007800000000000001,-0.0004500000000000001,-0.1446,-0.06620000000000001,-9.7995,0.007684743692834657,0.017190310556249557,0.0,0.0,0.0,0.0,0.0,0.0,0.0,0.0,0.0,0.0,0.30000001192092896,0.0,2200.0,2208.0,0.0,0.0,0.0,snow covered,0.252878487110138,-6.82264423370361,100.0,500.625823974609
arenacam6_1769536782547226011.png,1769536782547226011,1769536782.5472262,42.29999182158888,-83.69796080018261,236.12586975097656,0.7261145538279272,0.6875263411983908,-0.00767718496412741,0.002499141582782442,0.0017100000000000001,0.00136,0.00034,-0.14200000000000002,-0.0668,-9.7847,0.007498968366947603,0.016774742298759773,0.0,0.0,0.0,0.0,0.0,0.0,0.0,0.0,0.0,0.0,0.30000001192092896,0.0,2200.0,2208.0,0.0,0.0,0.0,snow covered,0.252878487110138,-6.82264423370361,100.0,500.625823974609
arenacam6_1769536782569265468.png,1769536782569265468,1769536782.5692654,42.299991819681075,-83.69796079748862,236.12583923339844,0.7261200660837954,0.6875205281261333,-0.00767747158771388,0.0024958897506202485,0.00036,-0.00021000000000000004,0.00079,-0.14300000000000002,-0.07400000000000001,-9.7901,0.007302133901511816,0.016334435409647845,0.0,0.0,0.0,0.0,0.0,0.0,0.0,0.0,0.0,0.0,0.30000001192092896,0.0,2200.0,2208.0,0.0,0.0,0.0,snow covered,0.252878487110138,-6.82264423370361,100.0,500.625823974609
arenacam6_1769536782587917828.png,1769536782587917828,1769536782.5879178,42.29999182104895,-83.69796079860397,236.12588500976562,0.726115292857155,0.687525621287533,-0.007676114388765613,0.002485723244910112,0.0008800000000000001,-0.00033000000000000005,-0.0015900000000000003,-0.1388,-0.0806,-9.7973,0.007299707282855529,0.01632900720931085,0.0,0.0,0.0,0.0,0.0,0.0,0.0,0.0,0.0,0.0,0.30000001192092896,0.0,2200.0,2208.0,0.0,0.0,0.0,snow covered,0.252878487110138,-6.82264423370361,100.0,500.625823974609
arenacam6_1769536782608703012.png,1769536782608703012,1769536782.608703,42.29999182104895,-83.69796079860397,236.12588500976562,0.7261118928536724,0.6875292508292168,-0.007675832125298236,0.0024758658803120445,0.00111,0.0010600000000000002,-0.0010600000000000002,-0.1355,-0.07300000000000001,-9.8061,0.00720539873073212,0.016118044636723908,0.0,0.0,0.0,0.0,0.0,0.0,0.0,0.0,0.0,0.0,0.30000001192092896,0.0,2200.0,2208.0,0.0,0.0,0.0,snow covered,0.252878487110138,-6.82264423370361,100.0,500.625823974609
arenacam6_1769536782629781755.png,1769536782629781755,1769536782.6297817,42.29999181746651,-83.6979607935595,236.1258087158203,0.7261146477143968,0.6875263728714105,-0.007673339302746619,0.002474842383811366,-0.00096,0.00079,-0.0003800000000000001,-0.1332,-0.06720000000000001,-9.801400000000001,0.007105529449149262,0.015894643045979952,0.0,0.0,0.0,0.0,0.0,0.0,0.0,0.0,0.0,0.0,0.30000001192092896,0.0,2200.0,2208.0,0.0,0.0,0.0,snow covered,0.252878487110138,-6.82264423370361,100.0,500.625823974609
arenacam6_1769536782652169459.png,1769536782652169459,1769536782.6521695,42.299991818855055,-83.69796079467608,236.1258544921875,0.7261197888655296,0.6875209578266721,-0.0076706463441593145,0.002479102990346171,-0.0003800000000000001,-0.00075,0.00058,-0.1293,-0.0678,-9.812000000000001,0.0076017437608548715,0.0170046446884067,0.0,0.0,0.0,0.0,0.0,0.0,0.0,0.0,0.0,0.0,0.30000001192092896,0.0,2200.0,2208.0,0.0,0.0,0.0,snow covered,0.252878487110138,-6.82264423370361,100.0,500.625823974609
arenacam6_1769536782671326920.png,1769536782671326920,1769536782.6713269,42.29999181740118,-83.69796079080646,236.12562561035156,0.7261208430507846,0.6875198223905162,-0.007674717332576783,0.002472614243264212,9e-05,-0.00019000000000000004,-8e-05,-0.1383,-0.0603,-9.803700000000001,0.007614093809126058,0.017032271005386446,0.0,0.0,0.0,0.0,0.0,0.0,0.0,0.0,0.0,0.0,0.30000001192092896,0.0,2200.0,2208.0,0.0,0.0,0.0,snow covered,0.252878487110138,-6.82264423370361,100.0,500.625823974609
arenacam6_1769536782692301771.png,1769536782692301771,1769536782.6923018,42.29999181603939,-83.69796078706244,236.12539672851562,0.726121492977533,0.6875190478327747,-0.007679574355299078,0.002482023552346094,4e-05,-0.0012300000000000002,-0.00017,-0.1301,-0.0693,-9.7995,0.007730231749272557,0.017292064609217755,0.0,0.0,0.0,0.0,0.0,0.0,0.0,0.0,0.0,0.0,0.30000001192092896,0.0,2200.0,2208.0,0.0,0.0,0.0,snow covered,0.252878487110138,-6.82264423370361,100.0,500.625823974609
arenacam6_1769536782712395769.png,1769536782712395769,1769536782.7123957,42.29999181603939,-83.69796078706244,236.12539672851562,0.7261249576498908,0.6875155723721524,-0.007664933364782625,0.002476372397029381,-0.00029,0.0017600000000000003,0.00042000000000000007,-0.1479,-0.0658,-9.8078,0.007648227576033551,0.017108626193932493,0.0,0.0,0.0,0.0,0.0,0.0,0.0,0.0,0.0,0.0,0.30000001192092896,0.0,2200.0,2208.0,0.0,0.0,0.0,snow covered,0.252878487110138,-6.82264423370361,100.0,500.625823974609
arenacam6_1769536782735318910.png,1769536782735318910,1769536782.735319,42.29999181617159,-83.69796078431206,236.12522888183594,0.7261191085759308,0.6875217027541831,-0.0076688286541532705,0.0024773917650228686,-0.0004700000000000001,-0.00039000000000000005,5.000000000000001e-05,-0.1369,-0.0663,-9.7954,0.007655188583016152,0.01712419754889215,0.0,0.0,0.0,0.0,0.0,0.0,0.0,0.0,0.0,0.0,0.30000001192092896,0.0,2200.0,2208.0,0.0,0.0,0.0,snow covered,0.252878487110138,-6.82264423370361,100.0,500.625823974609
arenacam6_1769536782754523313.png,1769536782754523313,1769536782.7545233,42.299991814972394,-83.69796078071714,236.12501525878906,0.7261215314066413,0.6875191760837782,-0.007667308016180737,0.002473162457633083,-3e-05,0.0005200000000000001,0.0006500000000000001,-0.14500000000000002,-0.06720000000000001,-9.802200000000001,0.007467852982921399,0.016705139051616195,0.0,0.0,0.0,0.0,0.0,0.0,0.0,0.0,0.0,0.0,0.30000001192092896,0.0,2200.0,2208.0,0.0,0.0,0.0,snow covered,0.252878487110138,-6.82264423370361,100.0,500.625823974609
arenacam6_1769536782774450520.png,1769536782774450520,1769536782.7744505,42.29999181635695,-83.69796078156213,236.1250457763672,0.7261208002894903,0.6875198805916524,-0.007669734481592634,0.0024844216976963067,0.0005700000000000001,-0.0011200000000000003,-0.00102,-0.1515,-0.06670000000000001,-9.791500000000001,0.007470731640527961,0.016711578435962618,0.0,0.0,0.0,0.0,0.0,0.0,0.0,0.0,0.0,0.0,0.30000001192092896,0.0,2200.0,2208.0,0.0,0.0,0.0,snow covered,0.252878487110138,-6.82264423370361,100.0,500.625823974609
arenacam6_1769536782795109455.png,1769536782795109455,1769536782.7951093,42.299991815135684,-83.69796077802725,236.1248321533203,0.7261235304666894,0.6875168396959845,-0.007682582585802785,0.002488284921152128,0.00135,-0.00169,-4e-05,-0.1522,-0.067,-9.8088,0.007178042850086139,0.01605685117307169,0.0,0.0,0.0,0.0,0.0,0.0,0.0,0.0,0.0,0.0,0.30000001192092896,0.0,2168.0,2208.0,0.0,0.0,0.0,snow covered,0.252878487110138,-6.82264423370361,100.0,500.625823974609
arenacam6_1769536782815815055.png,1769536782815815055,1769536782.8158152,42.29999181401262,-83.69796077455783,236.1246337890625,0.7261152872590037,0.6875255148543857,-0.007686028908389717,0.0024861602131784266,0.00031,2e-05,-0.0013200000000000002,-0.1379,-0.057300000000000004,-9.798,0.00719739624306577,0.016100143551963545,0.0,0.0,0.0,0.0,0.0,0.0,0.0,0.0,0.0,0.0,0.30000001192092896,0.0,2168.0,2212.0,0.0,0.0,0.0,snow covered,0.252878487110138,-6.82264423370361,100.0,500.625823974609
arenacam6_1769536782836598985.png,1769536782836598985,1769536782.836599,42.29999181435128,-83.69796077192376,236.1244659423828,0.7261142447747899,0.6875266386066955,-0.007682931309344821,0.002489439256345673,-0.0020000000000000005,-0.0004300000000000001,0.0011900000000000003,-0.1332,-0.0653,-9.8138,0.007409445527851934,0.016574485079073106,0.0,0.0,0.0,0.0,0.0,0.0,0.0,0.0,0.0,0.0,0.30000001192092896,0.0,2168.0,2216.0,0.0,0.0,0.0,snow covered,0.252878487110138,-6.82264423370361,100.0,500.625823974609
arenacam6_1769536782857625882.png,1769536782857625882,1769536782.857626,42.29999181435128,-83.69796077192376,236.1244659423828,0.7261152860185984,0.68752561766979,-0.007676515983909377,0.0024874807037251574,-0.00131,-0.00016,0.0007400000000000001,-0.13670000000000002,-0.08650000000000001,-9.812800000000001,0.007595321667699161,0.016990278851342962,0.0,0.0,0.0,0.0,0.0,0.0,0.0,0.0,0.0,0.0,0.30000001192092896,0.0,2168.0,2208.0,0.0,0.0,0.0,snow covered,0.252878487110138,-6.82264423370361,100.0,500.625823974609
arenacam6_1769536782877896397.png,1769536782877896397,1769536782.8778965,42.29999181337286,-83.69796076865646,236.12428283691406,0.7261156167108839,0.6875253196167248,-0.007670615429314861,0.0024915283318659607,-0.0016800000000000003,4e-05,-5.000000000000001e-05,-0.14400000000000002,-0.058100000000000006,-9.8033,0.007513289134445265,0.01680677699640599,0.0,0.0,0.0,0.0,0.0,0.0,0.0,0.0,0.0,0.0,0.30000001192092896,0.0,2168.0,2208.0,0.0,0.0,0.0,snow covered,0.252878487110138,-6.82264423370361,100.0,500.625823974609
arenacam6_1769536782921215891.png,1769536782921215891,1769536782.921216,42.2999918126984,-83.697960760731,236.12376403808594,0.7260953710737827,0.68754665125174,-0.007678390942050492,0.0024812839992403245,-0.0007700000000000001,-0.0007000000000000001,-0.0012300000000000002,-0.13920000000000002,-0.07690000000000001,-9.7986,0.007428899572201458,0.016618002609040332,0.0,0.0,0.0,0.0,0.0,0.0,0.0,0.0,0.0,0.0,0.30000001192092896,0.0,2168.0,2196.0,0.0,0.0,0.0,snow covered,0.252878487110138,-6.82264423370361,100.0,500.625823974609
arenacam6_1769536782940126378.png,1769536782940126378,1769536782.9401264,42.29999181407135,-83.69796076137638,236.12379455566406,0.7260988191317133,0.687543005261709,-0.0076797399134380315,0.0024783797310094485,0.00062,0.00022000000000000003,0.00096,-0.14400000000000002,-0.0693,-9.802100000000001,0.007428872092239155,0.016617941138013455,0.0,0.0,0.0,0.0,0.0,0.0,0.0,0.0,0.0,0.0,0.30000001192092896,0.0,2168.0,2188.0,0.0,0.0,0.0,snow covered,0.252878487110138,-6.82264423370361,100.0,500.625823974609
arenacam6_1769536782981631599.png,1769536782981631599,1769536782.9816315,42.29999181313907,-83.69796075730348,236.12353515625,0.7261036912427763,0.6875379361591091,-0.00767791981572743,0.0024628140390855094,-8e-05,0.0014800000000000002,0.0007100000000000001,-0.1338,-0.0738,-9.7939,0.007534516932972082,0.01685426230804257,0.0,0.0,0.0,0.0,0.0,0.0,0.0,0.0,0.0,0.0,0.30000001192092896,0.0,2136.0,2184.0,0.0,0.0,0.0,snow covered,0.252878487110138,-6.82264423370361,100.0,500.625823974609
arenacam6_1769536783002331147.png,1769536783002331147,1769536783.002331,42.299991813654465,-83.6979607539617,236.123291015625,0.7261033122881174,0.6875382849468585,-0.007679582637058402,0.0024719682598400056,-0.00103,-0.0015200000000000003,-0.00015000000000000001,-0.1293,-0.0771,-9.8077,0.007628900845364813,0.017065393457030367,0.0,0.0,0.0,0.0,0.0,0.0,0.0,0.0,0.0,0.0,0.30000001192092896,0.0,2136.0,2184.0,0.0,0.0,0.0,snow covered,0.252878487110138,-6.82264423370361,100.0,500.625823974609
arenacam6_1769536783043437724.png,1769536783043437724,1769536783.0434377,42.29999181214479,-83.69796074631067,236.12281799316406,0.7260960677101045,0.6875458639994015,-0.0076839708211028845,0.0024782949098853943,0.0004900000000000001,-0.0004500000000000001,0.00034,-0.1278,-0.0736,-9.8065,0.007552345607917367,0.016894143984174676,0.0,0.0,0.0,0.0,0.0,0.0,0.0,0.0,0.0,0.0,0.30000001192092896,0.0,2108.0,2168.0,0.0,0.0,0.0,snow covered,0.252878487110138,-6.82264423370361,100.0,500.625823974609
arenacam6_1769536783064665163.png,1769536783064665163,1769536783.064665,42.299991813489996,-83.69796074679202,236.12283325195312,0.7260971050140995,0.6875447480295205,-0.007686400203916047,0.0024764488834347876,0.0005700000000000001,2e-05,0.00021000000000000004,-0.14700000000000002,-0.058600000000000006,-9.796100000000001,0.00727604878086781,0.016276084559874438,0.0,0.0,0.0,0.0,0.0,0.0,0.0,0.0,0.0,0.0,0.30000001192092896,0.0,2108.0,2160.0,0.0,0.0,0.0,snow covered,0.252878487110138,-6.82264423370361,100.0,500.625823974609
arenacam6_1769536783084851332.png,1769536783084851332,1769536783.0848515,42.29999181277629,-83.69796074299174,236.1226043701172,0.7261019045834565,0.6875396237785935,-0.007690391643536919,0.0024794699103408363,-0.00019000000000000004,-0.0012000000000000001,0.0008400000000000001,-0.1434,-0.0731,-9.7894,0.0071954221392128625,0.01609572760009082,0.0,0.0,0.0,0.0,0.0,0.0,0.0,0.0,0.0,0.0,0.30000001192092896,0.0,2004.0,2152.0,0.0,0.0,0.0,snow covered,0.252878487110138,-6.82264423370361,100.0,500.625823974609
arenacam6_1769536783105796410.png,1769536783105796410,1769536783.1057963,42.299991812110456,-83.69796073925933,236.12237548828125,0.7261001716689821,0.6875414660899665,-0.007688017573543605,0.0024834441654630426,-0.0009200000000000001,-0.00023000000000000003,-0.0005200000000000001,-0.1373,-0.058,-9.7893,0.007302175554755808,0.01633452858545546,0.0,0.0,0.0,0.0,0.0,0.0,0.0,0.0,0.0,0.0,0.30000001192092896,0.0,1688.0,2148.0,0.0,0.0,0.0,snow covered,0.252878487110138,-6.82264423370361,100.0,500.625823974609
arenacam6_1769536783126489942.png,1769536783126489942,1769536783.1264899,42.299991812110456,-83.69796073925933,236.12237548828125,0.7261012162235362,0.6875404184792131,-0.007684047196964277,0.0024803577977621444,-0.0008400000000000001,0.0009300000000000002,0.0004000000000000001,-0.12840000000000001,-0.0733,-9.7971,0.0073145225174590794,0.016362148000204916,0.0,0.0,0.0,0.0,0.0,0.0,0.0,0.0,0.0,0.0,0.30000001192092896,0.0,900.0,2080.0,0.0,0.0,0.0,snow covered,0.252878487110138,-6.82264423370361,100.0,500.625823974609
arenacam6_1769536783188073592.png,1769536783188073592,1769536783.1880734,42.29999181181599,-83.69796073417207,236.1219024658203,0.7260963731895845,0.6875453800408486,-0.007695531269500119,0.0024871718671756037,0.0011,-0.00111,-0.00143,-0.1203,-0.0775,-9.7932,0.007533866522973414,0.01685280737990015,0.0,0.0,0.0,0.0,0.0,0.0,0.0,0.0,0.0,0.0,0.30000001192092896,0.0,0.0,1728.0,0.0,0.0,0.0,snow covered,0.252878487110138,-6.82264423370361,100.0,500.625823974609
arenacam6_1769536783208849302.png,1769536783208849302,1769536783.2088494,42.299991812610656,-83.69796073191182,236.1216583251953,0.7261036079178989,0.6875378318097568,-0.007688393025013885,0.0024837495126981174,0.0007400000000000001,0.0010600000000000002,0.0007300000000000002,-0.1355,-0.0723,-9.8154,0.00803050459401774,0.017963756946542044,0.0,0.0,0.0,0.0,0.0,0.0,0.0,0.0,0.0,0.0,0.30000001192092896,0.0,0.0,1488.0,0.0,0.0,0.0,snow covered,0.252878487110138,-6.82264423370361,100.0,500.625823974609
arenacam6_1769536783250215208.png,1769536783250215208,1769536783.250215,42.299991812914485,-83.69796072720045,236.12120056152344,0.7261128972767066,0.6875281129243,-0.007680613171524984,0.0024824440552915473,0.00033000000000000005,1e-05,0.00042000000000000007,-0.20720000000000002,-0.039900000000000005,-9.7911,0.007063284699273947,0.015800144075193864,0.0,0.0,0.0,0.0,0.0,0.0,0.0,0.0,0.0,0.0,0.30000001192092896,0.0,0.0,1052.0,0.0,0.0,0.0,snow covered,0.252878487110138,-6.82264423370361,100.0,500.625823974609
arenacam6_1769536783271524160.png,1769536783271524160,1769536783.2715242,42.299991812914485,-83.69796072720045,236.12120056152344,0.7261129319857426,0.6875281538381652,-0.007676484817302237,0.002473714575768178,0.0007000000000000001,0.0018000000000000004,-4e-05,-0.12340000000000001,-0.0912,-9.8238,0.007247695897445557,0.016212660860831864,0.0,0.0,0.0,0.0,0.0,0.0,0.0,0.0,0.0,0.0,0.30000001192092896,0.0,0.0,852.0,0.0,0.0,0.0,snow covered,0.252878487110138,-6.82264423370361,100.0,500.625823974609
arenacam6_1769536783332976594.png,1769536783332976594,1769536783.3329766,42.29999181324868,-83.69796072262385,236.12081909179688,0.7261023450791908,0.6875393723541069,-0.00767911659268631,0.0024550156366376563,-0.00034,-0.0010700000000000002,-0.0017600000000000003,-0.0811,-0.0729,-9.8705,0.007244460539174906,0.016205423558501915,0.0,0.0,0.0,0.0,0.0,0.0,0.0,0.0,0.0,0.0,0.30000001192092896,0.0,0.0,220.0,0.0,0.0,0.0,snow covered,0.252878487110138,-6.82264423370361,100.0,500.625823974609
arenacam6_1769536783360803853.png,1769536783360803853,1769536783.3608038,42.299991814081416,-83.69796072044754,236.1206512451172,0.7261061257520731,0.6875354967064226,-0.0076682035451930575,0.0024563322976431583,-0.0004000000000000001,0.00046000000000000007,-0.00010000000000000002,-0.1213,-0.0834,-9.7239,0.007459744182438183,0.01668700015146327,0.0,0.0,0.0,0.0,0.0,0.0,0.0,0.0,0.0,0.0,0.30000001192092896,0.0,0.0,156.0,0.0,0.0,0.0,snow covered,0.252878487110138,-6.82264423370361,100.0,500.625823974609
arenacam6_1769536783374300880.png,1769536783374300880,1769536783.374301,42.299991814081416,-83.69796072044754,236.1206512451172,0.7261013115363543,0.6875405262459193,-0.007673133975252423,0.0024562511411376597,0.0007600000000000002,-0.0008000000000000001,-0.0014000000000000002,-0.054900000000000004,-0.0902,-9.875200000000001,0.008337273043386245,0.018649979561672428,0.0,0.0,0.0,0.0,0.0,0.0,0.0,0.0,0.0,0.0,0.30000001192092896,0.0,0.0,156.0,0.0,0.0,0.0,snow covered,0.252878487110138,-6.82264423370361,100.0,500.625823974609
arenacam6_1769536783415620556.png,1769536783415620556,1769536783.4156206,42.29999181333973,-83.69796071686703,236.12030029296875,0.7261105930440931,0.6875306667552656,-0.007678458521658136,0.002455649597656057,0.0011200000000000003,-3e-05,0.0008300000000000001,-0.1174,-0.0799,-9.8015,0.008382638892963515,0.018751460245225806,0.0,0.0,0.0,0.0,0.0,0.0,0.0,0.0,0.0,0.0,0.30000001192092896,4.150000095367432,0.0,0.0,0.0,0.0,0.0,snow covered,0.252878487110138,-6.82264423370361,100.0,500.625823974609
arenacam6_1769536783456933401.png,1769536783456933401,1769536783.4569333,42.29999181418427,-83.69796071527377,236.12010192871094,0.7261095004650125,0.6875315174779266,-0.007701114199560613,0.0024695442969372475,0.0012000000000000001,-0.00021000000000000004,0.0002800000000000001,-0.1678,-0.06770000000000001,-9.7585,0.008028703391919571,0.01795972776552057,0.0,0.0,0.0,0.0,0.0,0.0,0.0,0.0,0.0,0.0,0.30000001192092896,11.824999809265137,0.0,0.0,0.0,0.0,0.0,snow covered,0.252878487110138,-6.82264423370361,100.0,500.625823974609
arenacam6_1769536783477913791.png,1769536783477913791,1769536783.4779139,42.29999181372313,-83.69796071380459,236.1199188232422,0.7261036677489509,0.687537711973252,-0.007698895737042029,0.0024668401927976573,-5.000000000000001e-05,0.0010700000000000002,-0.00102,-0.1499,-0.0623,-9.825700000000001,0.00803813303562956,0.017980821312721187,0.0,0.0,0.0,0.0,0.0,0.0,0.0,0.0,0.0,0.0,0.30000001192092896,12.199999809265137,0.0,0.0,0.0,0.0,0.0,snow covered,0.252878487110138,-6.82264423370361,100.0,500.625823974609
arenacam6_1769536783500670445.png,1769536783500670445,1769536783.5006704,42.29999181513041,-83.69796071361796,236.1199188232422,0.7261039884558972,0.6875373876993707,-0.007695536346753593,0.002473294220145461,-0.00144,0.00033000000000000005,0.00032,-0.1424,-0.0969,-9.8209,0.007731707894306269,0.017295366657089466,0.0,0.0,0.0,0.0,0.0,0.0,0.0,0.0,0.0,0.0,0.30000001192092896,12.02500057220459,0.0,0.0,0.0,0.0,0.0,snow covered,0.252878487110138,-6.82264423370361,100.0,500.625823974609
arenacam6_1769536783519121055.png,1769536783519121055,1769536783.5191212,42.29999181461571,-83.69796071220374,236.1197509765625,0.7260964176533494,0.6875453330500847,-0.007699444703560954,0.0024750400557407982,0.00033000000000000005,-0.00079,-0.0022500000000000003,-0.1236,-0.08370000000000001,-9.808900000000001,0.007919038798939052,0.017714414650898725,0.0,0.0,0.0,0.0,0.0,0.0,0.0,0.0,0.0,0.0,0.30000001192092896,12.350000381469727,0.0,0.0,0.0,0.0,0.0,snow covered,0.252878487110138,-6.82264423370361,100.0,500.625823974609
arenacam6_1769536783540020062.png,1769536783540020062,1769536783.54002,42.2999918156701,-83.69796071067515,236.11956787109375,0.7260913065487717,0.687550777514404,-0.007699098844523666,0.002463081528998166,0.0012100000000000001,0.00024,-0.0014500000000000003,-0.1164,-0.0898,-9.797500000000001,0.008405897693052817,0.01880348878549757,0.0,0.0,0.0,0.0,0.0,0.0,0.0,0.0,0.0,0.0,0.30000001192092896,13.300000190734863,0.0,0.0,0.0,0.0,0.0,snow covered,0.252878487110138,-6.82264423370361,100.0,500.625823974609
arenacam6_1769536783562060264.png,1769536783562060264,1769536783.5620604,42.29999181559933,-83.69796070944096,236.11940002441406,0.7260913040853272,0.6875507852131592,-0.007698411293742302,0.0024638076203034828,-0.00039000000000000005,-0.0008500000000000001,-0.00013000000000000002,-0.0777,-0.0912,-9.796700000000001,0.009488205458650438,0.02122454631867351,0.0,0.0,0.0,0.0,0.0,0.0,0.0,0.0,0.0,0.0,0.30000001192092896,14.850000381469727,0.0,0.0,0.0,0.0,0.0,snow covered,0.252878487110138,-6.82264423370361,100.0,500.625823974609
arenacam6_1769536783623604498.png,1769536783623604498,1769536783.6236045,42.29999181747684,-83.69796070829838,236.11920166015625,0.7261047851873931,0.6875364103311152,-0.007717671826057187,0.002441912889376502,0.00151,0.00101,-0.0007700000000000001,-0.11460000000000001,-0.0815,-9.7605,0.0119480105341582,0.026726982684279848,0.0,0.0,0.0,0.0,0.0,0.0,0.0,0.0,0.0,0.0,0.30000001192092896,20.825000762939453,0.0,0.0,0.0,0.0,0.0,snow covered,0.252878487110138,-6.82264423370361,100.0,500.625823974609
arenacam6_1769536783645470613.png,1769536783645470613,1769536783.6454706,42.299991817502175,-83.69796070602854,236.1187744140625,0.7261148729052479,0.6875260695641425,-0.007699208265006504,0.0024118887970765086,-0.00017,0.0034700000000000004,0.0015,0.0041,-0.0434,-9.7986,0.013861479219050057,0.031007297324261836,0.0,0.0,0.0,0.0,0.0,0.0,0.0,0.0,0.0,0.0,0.30000001192092896,21.524999618530273,0.0,0.0,0.0,0.0,0.0,snow covered,0.252878487110138,-6.82264423370361,100.0,500.625823974609
arenacam6_1769536783707428671.png,1769536783707428671,1769536783.7074287,42.299991822788385,-83.69796070334553,236.11817932128906,0.7261161262419449,0.6875258437264259,-0.007616808161658738,0.0023600112471149934,-0.00177,0.00286,0.00062,0.17550000000000002,-0.0504,-9.8045,0.026121717730611522,0.05843271526031414,0.0,0.0,0.0,0.0,0.0,0.0,0.0,0.0,0.0,0.0,0.30000001192092896,22.05000114440918,0.0,0.0,0.0,0.0,0.0,snow covered,0.252878487110138,-6.82264423370361,100.0,500.625823974609
arenacam6_1769536783726087492.png,1769536783726087492,1769536783.7260873,42.29999182793738,-83.69796070298943,236.11805725097656,0.7261123718091782,0.6875299799880222,-0.007603192443350318,0.002354057771006286,-0.00101,0.0027600000000000003,-0.0012000000000000001,0.1991,-0.0704,-9.783800000000001,0.029531360882830728,0.06605988241323937,0.0,0.0,0.0,0.0,0.0,0.0,0.0,0.0,0.0,0.0,0.30000001192092896,22.30000114440918,0.0,0.0,0.0,0.0,0.0,snow covered,0.252878487110138,-6.82264423370361,100.0,500.625823974609
arenacam6_1769536783747579819.png,1769536783747579819,1769536783.7475798,42.29999182793738,-83.69796070298943,236.11805725097656,0.7261097084784611,0.6875331680370261,-0.007575727066308203,0.0023329084232775136,-0.0003800000000000001,0.0035700000000000007,-0.00034,0.2026,-0.0604,-9.7347,0.03605692854152793,0.0806571857316855,0.0,0.0,0.0,0.0,0.0,0.0,0.0,0.0,0.0,0.0,0.30000001192092896,22.450000762939453,0.0,0.0,0.0,0.0,0.0,snow covered,0.252878487110138,-6.82264423370361,100.0,500.625823974609
arenacam6_1769536783788142600.png,1769536783788142600,1769536783.7881427,42.29999184738574,-83.69796069949652,236.11724853515625,0.7261105196748845,0.6875337368621243,-0.007482877479066445,0.0022091714523375587,0.0009800000000000002,0.0101,-0.00033000000000000005,0.43920000000000003,-0.10260000000000001,-9.6567,0.05961708657161314,0.1333598456355043,0.0,0.0,0.0,0.0,0.0,0.0,0.0,0.0,0.0,0.0,0.30000001192092896,22.5,0.0,0.0,0.0,0.0,0.0,snow covered,0.252878487110138,-6.82264423370361,100.0,500.625823974609
arenacam6_1769536783808807764.png,1769536783808807764,1769536783.8088076,42.29999185828536,-83.69796069786953,236.11680603027344,0.7261130506167092,0.6875314588310601,-0.00745649579844841,0.002175203930217945,0.0013300000000000002,0.00821,0.00062,0.5443,-0.08610000000000001,-9.6624,0.06633721717188991,0.14839237458048743,0.0,0.0,0.0,0.0,0.0,0.0,0.0,0.0,0.0,0.0,0.30000001192092896,22.825000762939453,0.0,0.0,0.0,0.0,0.0,snow covered,0.252878487110138,-6.82264423370361,100.0,500.625823974609
arenacam6_1769536783830219661.png,1769536783830219661,1769536783.8302197,42.29999186939366,-83.6979606963171,236.11639404296875,0.7261093323640605,0.6875367417942273,-0.00736319511738061,0.002061430197597502,0.0016400000000000002,0.011930000000000003,-0.00136,0.6015,-0.0853,-9.6781,0.08849247553008337,0.1979523582122647,0.0,0.0,0.0,0.0,0.0,0.0,0.0,0.0,0.0,0.0,0.30000001192092896,22.80000114440918,0.0,0.0,0.0,0.0,0.0,snow covered,0.252878487110138,-6.82264423370361,100.0,500.625823974609
arenacam6_1769536783872772775.png,1769536783872772775,1769536783.872773,42.29999190771178,-83.6979606934678,236.1154022216797,0.7261169912871613,0.687531584083463,-0.007148172738360728,0.001827423942900617,0.0008200000000000001,0.01609,-0.00017,1.0908,-0.09190000000000001,-9.6455,0.12937403787248333,0.28940196027847287,0.0,0.0,0.0,0.0,0.0,0.0,0.0,0.0,0.0,0.0,0.30000001192092896,23.55000114440918,0.0,0.0,0.0,0.0,0.0,snow covered,0.252878487110138,-6.82264423370361,100.0,500.625823974609
arenacam6_1769536783893545167.png,1769536783893545167,1769536783.8935452,42.29999192793033,-83.69796069153006,236.1147918701172,0.7261261785778074,0.6875243441500227,-0.006955796387176905,0.0016327527955224787,0.00103,0.019370000000000002,0.0004500000000000001,1.1873,-0.1297,-9.757100000000001,0.16688798033219748,0.3733183987243059,0.0,0.0,0.0,0.0,0.0,0.0,0.0,0.0,0.0,0.0,0.30000001192092896,23.55000114440918,0.0,0.0,0.0,0.0,0.0,snow covered,0.252878487110138,-6.82264423370361,100.0,500.625823974609
arenacam6_1769536783913479397.png,1769536783913479397,1769536783.9134793,42.29999195743061,-83.69796069005261,236.1142578125,0.7261287916119813,0.6875224435960658,-0.006887317396962094,0.0015596162643031943,0.0012100000000000001,0.01998,0.0005200000000000001,1.2013,-0.0548,-9.7078,0.1801248091222348,0.4029283905178919,0.0,0.0,0.0,0.0,0.0,0.0,0.0,0.0,0.0,0.0,0.30000001192092896,24.125,0.0,0.0,0.0,0.0,0.0,snow covered,0.252878487110138,-6.82264423370361,100.0,500.625823974609
arenacam6_1769536783976294495.png,1769536783976294495,1769536783.9762945,42.299992073945326,-83.69796068237709,236.11219787597656,0.7261652438334079,0.6874900853503901,-0.00636505972417258,0.0009524746655819053,0.0027700000000000003,0.02238,0.0009200000000000001,1.7921,-0.1163,-9.779200000000001,0.2988691762921656,0.668552415214997,0.0,0.0,0.7299999594688416,0.4599999785423279,0.0,0.0,0.5927666976883257,0.3735242237761724,0.24157273036612453,0.0,0.30000001192092896,25.450000762939453,0.0,0.0,0.0,0.0,0.0,snow covered,0.252878487110138,-6.82264423370361,100.0,500.625823974609
arenacam6_1769536783995586424.png,1769536783995586424,1769536783.9955864,42.29999212785153,-83.69796067873867,236.11148071289062,0.7261782656877547,0.6874779615683392,-0.006211294180317022,0.0007737087124002749,0.0029400000000000003,0.024380000000000006,0.0016200000000000001,1.6281,-0.0061,-10.053700000000001,0.33351033048686624,0.7460425986792906,1.0099999904632568,0.0,0.7299999594688416,0.4599999785423279,0.8201293044560766,0.0,0.5927666976883257,0.3735242237761724,0.4466050564801437,0.0,0.30000001192092896,25.75,0.0,0.0,0.0,0.0,0.0,snow covered,0.252878487110138,-6.82264423370361,100.0,500.625823974609
arenacam6_1769536784016528377.png,1769536784016528377,1769536784.0165284,42.29999218252111,-83.69796067485292,236.1107940673828,0.7261883681455721,0.68746808347796,-0.006133524061193469,0.0006841431153837841,0.0024000000000000002,0.023260000000000003,0.0027,1.8046,-0.06520000000000001,-10.0562,0.3523184446284596,0.7881152215271865,1.0099999904632568,1.090000033378601,1.1399999856948853,1.0,0.8201293044560766,0.8850900769037318,0.9256904991841151,0.81200922,0.8607297751359808,0.0,0.30000001192092896,26.05000114440918,0.0,0.0,0.0,0.0,0.0,snow covered,0.252878487110138,-6.82264423370361,100.0,500.625823974609
arenacam6_1769536784038201730.png,1769536784038201730,1769536784.0382018,42.29999224874179,-83.69796067113747,236.11032104492188,0.7261964952702193,0.6874608543152277,-0.005996881507113976,0.0005113253535583849,0.0037100000000000006,0.018990000000000003,0.00022000000000000003,1.8817000000000002,-0.0577,-10.0127,0.39260019980424704,0.8782230909501124,1.309999942779541,1.090000033378601,1.1399999856948853,1.3399999141693115,1.0637320317364598,0.8850900769037318,0.9256904991841151,1.0880922851046897,0.9906512232322491,0.0,0.30000001192092896,26.5,0.0,0.0,0.0,0.0,0.0,snow covered,0.252878487110138,-6.82264423370361,100.0,500.625823974609
arenacam6_1769536784079576070.png,1769536784079576070,1769536784.079576,42.29999239901817,-83.69796066045623,236.1095428466797,0.7262081339016753,0.687450937498752,-0.0057375933465804805,0.00018657363880115552,0.0032200000000000006,0.0101,-0.0008600000000000002,1.997,-0.076,-10.125300000000001,0.49012707433182856,1.0963848576558406,1.5699999332427979,1.3899999856948853,1.4399999380111694,1.6100000143051147,1.2748544211925366,1.1286928041841149,1.1692932264644982,1.3073348558158853,1.2200438269142588,0.11278792149940041,0.30000001192092896,26.825000762939453,0.0,0.0,0.0,0.0,0.0,snow covered,0.252878487110138,-6.82264423370361,100.0,500.625823974609
arenacam6_1769536784098802196.png,1769536784098802196,1769536784.098802,42.2999924859031,-83.69796065486743,236.10946655273438,0.7262071525081906,0.6874523851887572,-0.005690449051958656,9.237868398085487e-05,0.0036600000000000005,0.010440000000000001,-0.0012500000000000002,1.7069,-0.0504,-10.1492,0.527146969860204,1.179196142759085,1.5699999332427979,1.6399999856948853,1.6999999284744263,1.6100000143051147,1.2748544211925366,1.331695109184115,1.3804156159205747,1.3073348558158853,1.3235750005282778,0.12243837351042808,0.30000001192092896,27.100000381469727,0.0,0.0,0.0,0.0,0.0,snow covered,0.252878487110138,-6.82264423370361,100.0,500.625823974609
arenacam6_1769536784120998517.png,1769536784120998517,1769536784.1209984,42.299992581575566,-83.69796064790486,236.10951232910156,0.7262092499625594,0.6874505653591251,-0.005643174336287906,6.296549562777597e-06,0.0022600000000000003,0.008310000000000001,-0.00011000000000000002,1.9493,-0.08940000000000001,-10.0942,0.5666315481569308,1.267520775334165,1.7999999523162842,1.8499999046325684,1.6999999284744263,1.8499999046325684,1.4616165572803832,1.5022169795607663,1.3804156159205747,1.5022169795607663,1.4616165330806228,0.15313023780244306,0.30000001192092896,27.524999618530273,0.0,0.0,0.0,0.0,0.0,snow covered,0.252878487110138,-6.82264423370361,100.0,500.625823974609
arenacam6_1769536784140162256.png,1769536784140162256,1769536784.1401622,42.299992679009364,-83.69796064099909,236.10955810546875,0.7262078828651961,0.6874520739570397,-0.00563527335223132,-2.3892684494112935e-05,0.0032900000000000004,0.004980000000000001,-0.00048,2.0787,-0.1797,-10.0691,0.5880908031704268,1.3155238412440546,1.7999999523162842,1.8499999046325684,1.9299999475479126,1.8499999046325684,1.4616165572803832,1.5022169795607663,1.5671777520084214,1.5022169795607663,1.5083070671025844,0.14654483621993503,0.30000001192092896,27.725000381469727,0.0,0.0,0.0,0.0,0.0,snow covered,0.252878487110138,-6.82264423370361,100.0,500.625823974609
arenacam6_1769536784160610607.png,1769536784160610607,1769536784.1606107,42.29999290408147,-83.69796062748131,236.1101837158203,0.7262075550052356,0.6874527231385957,-0.0055977149851655205,-7.803583690159149e-05,0.0013200000000000002,0.006660000000000001,-0.0015200000000000003,1.7670000000000001,-0.1136,-10.0428,0.64580396109452,1.4446247127307756,2.0299999713897705,2.059999942779541,2.129999876022339,2.049999952316284,1.64837869336823,1.6727389467364597,1.7295795379289962,1.664618862280383,1.6788290100785173,0.16212120371734814,0.30000001192092896,28.375,0.0,0.0,0.0,0.0,0.0,snow covered,0.252878487110138,-6.82264423370361,100.0,500.625823974609
arenacam6_1769536784181579976.png,1769536784181579976,1769536784.18158,42.299993022643925,-83.69796062115427,236.11053466796875,0.7262079114513944,0.6874526832879356,-0.005555053851844484,-0.0001377037543438931,0.00128,0.009340000000000003,-6e-05,2.0513,-0.2868,-10.008700000000001,0.6866992793846723,1.5361050860267491,2.2300000190734863,2.059999942779541,2.129999876022339,2.25,1.810780576087847,1.6727389467364597,1.7295795379289962,1.827020745,1.7600299514383257,0.14577444437136464,0.30000001192092896,28.75,0.0,0.0,0.0,0.0,0.0,snow covered,0.252878487110138,-6.82264423370361,100.0,500.625823974609
arenacam6_1769536784202044505.png,1769536784202044505,1769536784.2020445,42.299993022643925,-83.69796062115427,236.11053466796875,0.7262196078487467,0.6874407027273741,-0.0055073937117710685,-0.00017327495566111064,-0.0024400000000000003,0.0058200000000000005,0.00239,2.1269,-0.2548,-9.876900000000001,0.7294849036907131,1.6318139604619037,2.2300000190734863,2.25,2.3299999237060547,2.25,1.810780576087847,1.827020745,1.8919814206486132,1.827020745,1.839200871684115,0.12708980082723895,0.30000001192092896,29.399999618530273,0.0,0.0,0.0,0.0,0.0,snow covered,0.252878487110138,-6.82264423370361,100.0,500.625823974609
arenacam6_1769536784223367932.png,1769536784223367932,1769536784.223368,42.29999329305542,-83.69796060858059,236.11134338378906,0.7262344013959777,0.6874256279850068,-0.005437157339451869,-0.00019374857582321722,-0.004190000000000001,0.00478,0.0026400000000000004,2.0162,-0.1728,-9.7612,0.7716097803134256,1.7260447819743145,2.419999837875366,2.440000057220459,2.509999990463257,2.440000057220459,1.9650621807533026,1.9813025432635405,2.0381431344560768,1.9813025432635405,1.991452600434115,0.15376647305536137,0.20000000298023224,29.725000381469727,0.0,0.0,0.0,0.0,0.0,snow covered,0.252878487110138,-6.82264423370361,100.0,500.625823974609
arenacam6_1769536784243268723.png,1769536784243268723,1769536784.2432685,42.29999343374899,-83.69796060254818,236.11170959472656,0.726261224919049,0.68739787416787,-0.00536214334549759,-0.0002078155868911342,-0.0036600000000000005,0.00708,0.0028000000000000004,1.9128,-0.26630000000000004,-9.8366,0.8126429224205896,1.8178334588795138,2.5899999141693115,2.629999876022339,2.669999837875366,2.619999885559082,2.1031038101046895,2.1355841479289963,2.1680644857533027,2.1274640634729196,2.133554126814977,0.17367964397028363,0.20000000298023224,30.0,0.0,0.0,0.0,0.0,0.0,snow covered,0.252878487110138,-6.82264423370361,100.0,500.625823974609
arenacam6_1769536784263977815.png,1769536784263977815,1769536784.2639778,42.29999358661921,-83.6979605963915,236.1121368408203,0.7262883976838574,0.6873701116541074,-0.005237735147127299,-0.00024315625237621315,-0.0064600000000000005,0.011720000000000001,0.0038200000000000005,1.9027,-0.1037,-9.7501,0.8510692358084513,1.903790816349357,2.740000009536743,2.629999876022339,2.669999837875366,2.7799999713897705,2.2249052705439234,2.1355841479289963,2.1680644857533027,2.2573856083682298,2.1964848781486133,0.15374276379823917,0.20000000298023224,30.30000114440918,0.0,0.0,0.0,0.0,0.0,snow covered,0.252878487110138,-6.82264423370361,100.0,500.625823974609
arenacam6_1769536784284930290.png,1769536784284930290,1769536784.2849302,42.299993749312435,-83.69796059040597,236.11244201660156,0.7263172822644774,0.6873405313652671,-0.005110048004061153,-0.00029467923632887775,-0.004520000000000001,0.010330000000000002,0.0024400000000000003,2.2225,-0.2495,-9.7302,0.8964804269831718,2.0053729263357365,2.8999998569488525,2.819999933242798,2.8399999141693115,2.7799999713897705,2.3548266218411498,2.2898659461925366,2.3061061151046895,2.2573856083682298,2.3020460728766516,0.14793914021917268,0.20000000298023224,30.625,0.0,0.0,0.0,0.0,0.0,snow covered,0.252878487110138,-6.82264423370361,100.0,500.625823974609
arenacam6_1769536784305843890.png,1769536784305843890,1769536784.305844,42.29999391248939,-83.69796058408531,236.1127471923828,0.7263667860154714,0.6872898211883818,-0.004883367524467916,-0.0003828655346314354,-0.0059900000000000005,0.016440000000000003,0.00442,2.0055,-0.1032,-9.6635,0.9589582929090485,2.145132163739967,3.059999942779541,2.990000009536743,3.0,2.950000047683716,2.48474816673646,2.4279075755439234,2.43602766,2.395427237719617,2.4360276600000006,0.13560726055818711,0.20000000298023224,31.05000114440918,0.0,0.0,0.0,0.0,0.0,snow covered,0.252878487110138,-6.82264423370361,100.0,500.625823974609
arenacam6_1769536784326014164.png,1769536784326014164,1769536784.3260143,42.29999408803422,-83.69796057721601,236.1130828857422,0.726389803718687,0.6872665993140046,-0.004717615476154238,-0.0004675736411321158,-0.00354,0.016380000000000002,0.0022600000000000003,1.951,0.07400000000000001,-9.7866,1.0010027803376345,2.2391831594484684,3.059999942779541,3.109999895095825,3.1399998664855957,3.0899999141693115,2.48474816673646,2.525348589016843,2.549708842385073,2.50910842010469,2.5172285045607663,0.1241726671349132,0.20000000298023224,31.149999618530273,0.0,0.0,0.0,0.0,0.0,snow covered,0.252878487110138,-6.82264423370361,100.0,500.625823974609
arenacam6_1769536784348349878.png,1769536784348349878,1769536784.34835,42.29999408803422,-83.69796057721601,236.1130828857422,0.7264024931167412,0.6872537776263564,-0.004622478204900469,-0.0005439001109753841,-0.00185,0.024040000000000002,0.0034100000000000007,2.1238,-0.006500000000000001,-9.8399,1.0226721519063333,2.2876562434853533,3.419999837875366,3.4600000381469727,3.2699999809265137,3.379999876022339,2.777071400753303,2.809551932175694,2.6552701339121536,2.7445910629289965,2.7466211324425367,0.20062668517798307,0.20000000298023224,31.5,0.0,0.0,0.0,0.0,0.0,snow covered,0.252878487110138,-6.82264423370361,100.0,500.625823974609
arenacam6_1769536784367502198.png,1769536784367502198,1769536784.367502,42.29999465998482,-83.69796055147246,236.11383056640625,0.7264192745433531,0.6872369359088867,-0.004471351236475587,-0.0006622028339984862,-0.0018800000000000004,0.019770000000000003,0.0023500000000000005,2.1932,0.040100000000000004,-9.7361,1.068094264574856,2.3892627841980785,3.7200000286102295,3.5799999237060547,3.6399998664855957,3.5299999713897705,3.0206743216317706,2.906992945648613,2.955713452385073,2.86639252336823,2.9374433107584217,0.22943500823176807,0.20000000298023224,31.600000381469727,0.0,0.0,0.0,0.0,0.0,snow covered,0.252878487110138,-6.82264423370361,100.0,500.625823974609
arenacam6_1769536784387967611.png,1769536784387967611,1769536784.3879676,42.29999465998482,-83.69796055147246,236.11383056640625,0.7264080856034917,0.6872497996983742,-0.0042656484659686885,-0.0009001264241068047,0.0049700000000000005,0.02338,-0.00221,2.2164,0.16690000000000002,-9.8016,1.1363177679859788,2.5418746679185555,3.9499998092651367,3.679999828338623,3.8299999237060547,3.6599998474121094,3.2074362641215326,2.988193790209379,3.109995250648613,2.971953621297226,3.069394731569188,0.20753189380599887,0.20000000298023224,31.725000381469727,0.0,0.0,0.0,0.0,0.0,snow covered,0.252878487110138,-6.82264423370361,100.0,500.625823974609
arenacam6_1769536784409660110.png,1769536784409660110,1769536784.40966,42.29999465998482,-83.69796055147246,236.11383056640625,0.7264007750885922,0.6872576708454183,-0.0042233256215895385,-0.0009855635530748772,0.006710000000000001,0.01759,-0.0022700000000000003,2.3095000000000003,0.1048,-9.877600000000001,1.1596491145046433,2.5940654902000166,4.029999732971191,3.809999942779541,3.869999885559082,3.809999942779541,3.272396939770146,3.0937550817364596,3.14247558847292,3.0937550817364596,3.150595672928996,0.21453975808685846,0.20000000298023224,31.975000381469727,0.0,0.0,0.0,0.0,0.0,snow covered,0.252878487110138,-6.82264423370361,100.0,500.625823974609
arenacam6_1769536784450676273.png,1769536784450676273,1769536784.4506762,42.29999530675112,-83.6979605179377,236.11483764648438,0.7263608419769414,0.6873015172382618,-0.0038553725249799685,-0.001299133259583677,-0.00642,0.018830000000000003,-0.00202,2.2421,0.1047,-9.7684,1.2801872205687979,2.863702001179167,4.059999942779541,4.059999942779541,4.279999732971191,4.400000095367432,3.29675738673646,3.29675738673646,3.4753992447701454,3.572840645439234,3.4104386659205748,0.19091953859594393,0.20000000298023224,32.22500228881836,0.0,0.0,0.0,0.0,0.0,snow covered,0.252878487110138,-6.82264423370361,100.0,500.625823974609
arenacam6_1769536784471070951.png,1769536784471070951,1769536784.471071,42.299995544401995,-83.69796050746663,236.11526489257812,0.7263347030395728,0.6873302637723555,-0.003640758316713729,-0.0013238360619109222,-0.016700000000000003,0.014750000000000001,-0.00512,2.7076000000000002,-0.5984,-9.9114,1.3345407304955086,2.985287541674623,4.110000133514404,4.170000076293945,4.279999732971191,4.360000133514404,3.3373580026149274,3.386078509351387,3.4753992447701454,3.540360307614927,3.4347990160878465,0.15057560390349073,0.20000000298023224,32.20000076293945,0.0,0.0,0.0,0.0,0.0,snow covered,0.252878487110138,-6.82264423370361,100.0,500.625823974609
arenacam6_1769536784491703631.png,1769536784491703631,1769536784.4917035,42.29999578238735,-83.6979604952736,236.11566162109375,0.7263526300249252,0.6873125711901459,-0.003403963522024367,-0.0013035997105127193,-0.015050000000000001,0.020870000000000003,0.0029600000000000004,2.7342,-0.33630000000000004,-9.5005,1.3866082154386732,3.1017593814433857,4.230000019073486,4.360000133514404,4.670000076293945,4.549999713897705,3.4347990160878465,3.540360307614927,3.7920831193513873,3.694641718682299,3.615471040434115,0.16561944232813977,0.20000000298023224,32.47500228881836,0.0,0.0,0.0,0.0,0.0,snow covered,0.252878487110138,-6.82264423370361,100.0,500.625823974609
arenacam6_1769536784515202451.png,1769536784515202451,1769536784.5152025,42.29999603549546,-83.69796048285427,236.11614990234375,0.7263563831251761,0.6873101772719232,-0.003142401296559746,-0.0011181349834453657,-0.011110000000000002,0.016460000000000002,0.0017600000000000003,2.7215000000000003,-0.2874,-10.0068,1.4680751895169324,3.2839961144380068,4.319999694824219,4.509999752044678,4.579999923706055,4.859999656677246,3.507879582594452,3.6621613808579925,3.719002165648613,3.9463645304187587,3.708851914879954,0.12937159047602995,0.20000000298023224,33.525001525878906,0.0,0.0,0.0,0.0,0.0,snow covered,0.252878487110138,-6.82264423370361,100.0,500.625823974609
arenacam6_1769536784534302991.png,1769536784534302991,1769536784.534303,42.299996301400405,-83.69796047295682,236.11660766601562,0.7263318876311853,0.6873360546099688,-0.003206086849224965,-0.0009263101188211705,-0.019060000000000004,-0.03567000000000001,-0.007040000000000001,2.1859,-0.8742000000000001,-9.5975,1.4902593270849869,3.3336206991294905,4.619999885559082,4.579999923706055,5.099999904632568,4.730000019073486,3.7514825034729196,3.719002165648613,4.141246944560766,3.8408036260878466,3.8631338099425365,0.15884023966833358,0.20000000298023224,33.79999923706055,0.0,0.0,0.0,0.0,0.0,snow covered,0.252878487110138,-6.82264423370361,100.0,500.625823974609
arenacam6_1769536784618543991.png,1769536784618543991,1769536784.6185439,42.29999743982229,-83.6979604129591,236.11827087402344,0.7262831346186587,0.6873879375396622,-0.0031371484439605317,-0.0008888155629853965,0.011130000000000001,-0.011590000000000001,-0.011130000000000001,2.4719,-0.1457,-9.3283,1.722159721767372,3.852367968010306,5.190000057220459,5.179999828338623,5.650000095367432,6.440000057220459,4.214327898263541,4.206207620209379,4.587852170439234,5.229339423263541,4.559431778043924,0.18354005014708064,0.4000000059604645,34.79999923706055,0.0,0.0,0.0,0.0,0.0,snow covered,0.252878487110138,-6.82264423370361,100.0,500.625823974609
arenacam6_1769536784639300425.png,1769536784639300425,1769536784.6393003,42.29999774707778,-83.69796039601526,236.11865234375,0.7263077794278101,0.6873614318975757,-0.0032148856558972113,-0.0009674670936755729,0.015060000000000002,0.00604,0.0066900000000000015,1.4336,0.2675,-9.9299,1.7567751768153237,3.9298006640252705,5.279999732971191,5.299999713897705,5.519999980926514,7.029999732971191,4.287408464770145,4.3036486336822986,4.482290878912154,5.7084245997701455,4.695443144283686,0.19482985161750493,0.5,35.0,0.0,0.0,0.0,0.0,0.0,snow covered,0.252878487110138,-6.82264423370361,100.0,500.625823974609
arenacam6_1769536784678959806.png,1769536784678959806,1769536784.6789598,42.299998386473085,-83.69796035637285,236.11932373046875,0.7262801411645159,0.6873892706296277,-0.0033893027224191036,-0.0012883324007894568,0.034640000000000004,0.005040000000000001,-0.00335,1.7993000000000001,0.4847,-9.5396,1.829183366130495,4.09177343903195,5.559999942779541,5.519999980926514,6.319999694824219,10.329999923706055,4.5147712167364595,4.482290878912154,5.131898022594452,8.388055180648614,5.62925382472292,0.3757491485292776,0.800000011920929,35.42499923706055,0.0,0.0,0.0,0.0,0.0,snow covered,0.252878487110138,-6.82264423370361,100.0,500.625823974609
arenacam6_1769536784703442590.png,1769536784703442590,1769536784.7034426,42.299999061968514,-83.69796031102418,236.1202392578125,0.7262926539593364,0.6873751122543382,-0.0034577949108369923,-0.0015746467521535678,0.024280000000000003,0.019060000000000004,0.004130000000000001,0.8836,1.5538,-9.6536,1.8902247233705374,4.22831929269649,5.789999961853027,5.659999847412109,6.449999809265137,14.809999465942383,4.701533352824307,4.595972061297226,5.237459314121533,12.025856114540291,6.640205210695839,0.5704124383807444,0.9000000357627869,35.97500228881836,0.0,0.0,0.0,0.0,0.0,snow covered,0.252878487110138,-6.82264423370361,100.0,500.625823974609
arenacam6_1769536784761546820.png,1769536784761546820,1769536784.7615469,42.29999976275938,-83.69796026717968,236.12100219726562,0.7264256000641434,0.6872282770139048,-0.0038766674516991255,-0.0028485598849018324,0.03658000000000001,0.03132,0.012750000000000003,1.4608,-0.031900000000000005,-9.245800000000001,2.0059533144231363,4.487197207165691,6.309999942779541,6.0,6.279999732971191,21.93000030517578,5.12377813173646,4.87205532,5.099417684770146,17.807362442405548,8.225653394728038,0.8331383745720681,0.9000000357627869,35.625,0.0,0.0,0.0,0.0,0.0,snow covered,0.252878487110138,-6.82264423370361,100.0,500.625823974609
arenacam6_1769536784781542076.png,1769536784781542076,1769536784.781542,42.300000489207214,-83.69796021787634,236.12144470214844,0.7265384820063281,0.6871045996134212,-0.004091367876985745,-0.0035162569468022878,0.06923000000000001,0.031470000000000005,0.011040000000000001,2.6781,-0.17470000000000002,-9.8274,2.0501666132085328,4.586099703750696,6.399999618530273,6.089999675750732,6.769999980926514,25.0,5.196858698243065,4.9451358865066055,5.497302403912153,20.3002305,8.984881872165456,0.9591553722256103,0.800000011920929,36.0,0.0,0.0,0.0,0.0,0.0,snow covered,0.252878487110138,-6.82264423370361,100.0,500.625823974609
arenacam6_1769536784801932819.png,1769536784801932819,1769536784.8019328,42.30000086334408,-83.69796019351715,236.12171936035156,0.7266461023276228,0.6869858179730441,-0.004438634590284082,-0.004028200461109111,0.06201000000000001,0.023350000000000003,0.018270000000000005,1.2502,-0.5294,-9.8848,2.0832269751236354,4.660053749733065,6.279999732971191,6.190000057220459,7.440000057220459,26.920000076293945,5.099417684770146,5.02633711826354,6.041348643263541,21.859288264351388,9.506597927662153,1.0400189436026792,0.699999988079071,36.150001525878906,0.0,24.0,0.0,0.0,0.0,snow covered,0.252878487110138,-6.82264423370361,100.0,500.625823974609
arenacam6_1769536784823010275.png,1769536784823010275,1769536784.8230102,42.30000124519649,-83.69796016802574,236.12184143066406,0.7268182009851238,0.686799935612672,-0.004632614905737787,-0.0044373458635660265,0.03749000000000001,0.012040000000000002,0.025900000000000006,1.4538,0.0499,-9.1544,2.118706834055589,4.739420065372309,6.349999904632568,6.349999904632568,6.480000019073486,26.90999984741211,5.1562584695607665,5.1562584695607665,5.261819761087847,21.851167986297227,9.356376171626652,0.9741605602734548,0.6000000238418579,35.75,0.0,300.0,0.0,0.0,0.0,snow covered,0.252878487110138,-6.82264423370361,100.0,500.625823974609
arenacam6_1769536784843912803.png,1769536784843912803,1769536784.8439126,42.30000163136729,-83.69796014915602,236.12240600585938,0.7269839820114582,0.6866190557127196,-0.004824768385916859,-0.005028303984374542,0.05831000000000001,0.024530000000000003,0.02375,2.6111,-0.7161000000000001,-10.071900000000001,2.1606848567617893,4.833322383484718,6.539999961853027,6.46999979019165,7.170000076293945,26.03999900817871,5.310540267824307,5.253699483033686,5.822106169351388,21.144719283431968,9.382766300910337,0.941266391203471,0.6000000238418579,36.20000076293945,0.0,412.0,0.0,0.0,0.0,snow covered,0.252878487110138,-6.82264423370361,100.0,500.625823974609
arenacam6_1769536784864112031.png,1769536784864112031,1769536784.8641121,42.30000202663315,-83.6979601259284,236.12303161621094,0.727225543528334,0.6863602034043008,-0.005075547652354342,-0.005188336800399203,0.005540000000000001,-0.014340000000000002,0.03243,1.473,0.47350000000000003,-10.495700000000001,2.2266700714771384,4.98092734969007,6.62999963760376,6.649999618530273,9.34999942779541,24.3799991607666,5.3836208343309115,5.399861003243066,7.592285742364598,19.796784102134744,9.54313792051833,0.9159359794942875,0.6000000238418579,36.29999923706055,0.0,480.0,0.0,0.0,0.0,snow covered,0.252878487110138,-6.82264423370361,100.0,500.625823974609
arenacam6_1769536784884839692.png,1769536784884839692,1769536784.8848398,42.300002433139994,-83.69796010745476,236.1237030029297,0.7273186567852453,0.68626061134089,-0.005117815775846686,-0.005268090338910635,0.017510000000000005,0.004880000000000001,0.026880000000000005,1.8389,0.20040000000000002,-9.8053,2.2449910100247603,5.021910189964788,6.75,6.690000057220459,11.429999351501465,20.5,5.4810622350000004,5.43234172826354,9.28126485801321,16.64618901,9.210214457819188,0.8340062066868158,0.6000000238418579,36.85000228881836,0.0,488.0,0.0,0.0,0.0,snow covered,0.252878487110138,-6.82264423370361,100.0,500.625823974609
arenacam6_1769536784905499537.png,1769536784905499537,1769536784.9054997,42.300002839977644,-83.69796008744922,236.12432861328125,0.7274185140183749,0.6861553489121456,-0.005138298577566308,-0.005171122729041034,-0.014370000000000003,-0.011210000000000001,0.020440000000000003,1.7025000000000001,-0.4137,-9.1235,2.285877361526852,5.113370505093877,6.889999866485596,6.799999713897705,12.40999984741211,15.789999961853027,5.5947434173850725,5.521662463682299,10.077034296297228,12.821625552824306,8.503766432547227,0.6630452309442235,0.6000000238418579,37.375,0.0,424.0,0.0,0.0,0.0,snow covered,0.252878487110138,-6.82264423370361,100.0,500.625823974609
arenacam6_1769536784926158339.png,1769536784926158339,1769536784.9261584,42.300002839977644,-83.69796008744922,236.12432861328125,0.727571521751071,0.6859945703170819,-0.005088831951030467,-0.005023347657408387,-0.016260000000000004,-0.008310000000000001,0.018040000000000004,2.4812000000000003,-0.14850000000000002,-10.1729,2.329555498400994,5.211075876593119,6.739999771118164,6.869999885559082,14.149999618530273,13.359999656677246,5.4729419569458395,5.578503248472919,11.489930153243066,10.848442900418759,8.347454564770146,0.6018677836307996,0.699999988079071,38.10000228881836,0.0,288.0,0.0,0.0,0.0,snow covered,0.252878487110138,-6.82264423370361,100.0,500.625823974609
arenacam6_1769536784947090435.png,1769536784947090435,1769536784.9470904,42.30000368588888,-83.697960050564,236.12548828125,0.7276321568168731,0.6859326503513145,-0.005099452003625854,-0.004673236277933475,-0.03348,-0.0342,0.009900000000000003,2.4174,-1.1616,-9.830400000000001,2.3889925738757705,5.344033048205667,6.909999847412109,7.039999961853027,16.420000076293945,13.729999542236328,5.610983586297227,5.716544877824306,13.333191454351388,11.148886218891679,8.95240153434115,0.675214478201448,0.9000000357627869,38.82500076293945,0.0,68.0,0.0,0.0,0.0,snow covered,0.252878487110138,-6.82264423370361,100.0,500.625823974609
arenacam6_1769536784988212945.png,1769536784988212945,1769536784.988213,42.300004547627765,-83.69796000347192,236.12571716308594,0.7276426858603813,0.6859231235447018,-0.0050600992242186725,-0.004470536479124019,-0.0024600000000000004,-0.009290000000000001,-0.010330000000000002,1.1391,-0.2295,-8.8049,2.4300655756417657,5.435910888776092,7.779999732971191,8.289999961853027,14.25,11.619999885559082,6.317431514770146,6.731556402824307,11.571131385000001,9.435547043472921,8.513916586516844,0.5662354958938212,1.2000000476837158,39.150001525878906,0.0,120.0,0.0,0.0,0.0,snow covered,0.252878487110138,-6.82264423370361,100.0,500.625823974609
arenacam6_1769536785008883101.png,1769536785008883101,1769536785.0088832,42.30000499016837,-83.69795998111361,236.1253662109375,0.7275802975670598,0.6859915565882012,-0.004801264783166664,-0.00440939206778776,-0.027250000000000003,0.02096,-0.0024400000000000003,0.9790000000000001,-0.5348,-9.440100000000001,2.449348435528509,5.479045489371143,8.789999961853027,10.800000190734863,13.139999389648438,12.309999465942383,7.137561012824307,8.769699730878468,10.669800655188904,9.99583306454029,9.143223615857993,0.668762129023208,1.600000023841858,39.04999923706055,0.0,76.0,0.0,0.0,0.0,snow covered,0.252878487110138,-6.82264423370361,100.0,500.625823974609
arenacam6_1769536785031414097.png,1769536785031414097,1769536785.031414,42.30000543682117,-83.69795995842418,236.1251220703125,0.7274339174867289,0.6861502926354175,-0.004343437596942576,-0.004336606516959016,-0.024590000000000004,-0.00871,-0.024590000000000004,2.1508000000000003,-0.19410000000000002,-10.161200000000001,2.5185925834488834,5.633940493620146,8.739999771118164,12.479999542236328,11.800000190734863,12.25,7.096960396945839,10.133874693891677,9.581708950878468,9.947112945,9.189914246678995,0.6311699168788918,2.0,38.775001525878906,0.0,68.0,0.0,0.0,0.0,snow covered,0.252878487110138,-6.82264423370361,100.0,500.625823974609
arenacam6_1769536785050136894.png,1769536785050136894,1769536785.0501368,42.30000543682117,-83.69795995842418,236.1251220703125,0.7273258014103383,0.6862689856127547,-0.0036340802108088977,-0.0043418256380241245,-0.051340000000000004,0.050940000000000006,-0.018680000000000006,1.8085,-1.0618,-9.3377,2.546885131880694,5.6972292269092,8.079999923706055,13.359999656677246,9.59999942779541,11.300000190734863,6.5610344356486126,10.848442900418759,7.795288047364597,9.175704340878468,8.59511743107761,0.5086486937336275,2.5,39.29999923706055,0.0,68.0,0.0,0.0,0.0,snow covered,0.252878487110138,-6.82264423370361,100.0,500.625823974609
arenacam6_1769536785071502905.png,1769536785071502905,1769536785.071503,42.300006349697604,-83.69795991518775,236.12428283691406,0.7272740969673467,0.6863256083841822,-0.003297207382076524,-0.004321525181217741,-0.04913000000000001,0.04621000000000001,-0.015670000000000003,2.2694,0.7487,-9.4952,2.569412897900692,5.7476224878299735,7.960000038146973,15.469999313354492,7.940000057220459,10.329999923706055,6.463593422175694,12.561782075837517,6.4473532532635405,8.388055180648614,8.465195982981342,0.47281697796011546,3.5,38.92499923706055,0.0,60.0,0.0,0.0,0.0,snow covered,0.252878487110138,-6.82264423370361,100.0,500.625823974609
arenacam6_1769536785091877128.png,1769536785091877128,1769536785.0918772,42.300006349697604,-83.69795991518775,236.12428283691406,0.7272025231512244,0.6864030832676291,-0.0026288683419345817,-0.004515158294685916,-0.03218,0.023000000000000003,-0.006010000000000001,1.9484000000000001,-1.4157,-10.6167,2.6431596466348983,5.91258953994347,9.210000038146973,18.35999870300293,7.849999904632568,9.289999961853027,7.478604947175694,14.90848822602642,6.374272299560767,7.543565622824306,9.076232773896797,0.5350689765593932,3.700000047683716,39.04999923706055,0.0,44.0,0.0,0.0,0.0,snow covered,0.252878487110138,-6.82264423370361,100.0,500.625823974609
arenacam6_1769536785112299976.png,1769536785112299976,1769536785.1123,42.300007284428396,-83.69795986932441,236.12351989746094,0.7272217085671359,0.6863833223414844,-0.002370673802225343,-0.004571794602237231,-0.027180000000000003,0.04535,0.005280000000000001,1.3058,0.5691,-10.0192,2.655858677240495,5.940996509466354,9.40999984741211,19.809999465942383,7.859999656677246,7.509999752044678,7.641006636297226,16.08590221454029,6.382392190418759,6.098189040857992,9.051872520528567,0.5236286549075326,4.5,39.20000076293945,0.0,44.0,0.0,0.0,0.0,snow covered,0.252878487110138,-6.82264423370361,100.0,500.625823974609
arenacam6_1769536785134869808.png,1769536785134869808,1769536785.1348698,42.300007769403265,-83.69795984607393,236.1235809326172,0.7272798513495249,0.6863201999173353,-0.002005030041667041,-0.0049579089316154875,0.015330000000000002,0.032010000000000004,0.007150000000000001,2.1573,0.6764,-10.937000000000001,2.7229762345971324,6.09113445821971,9.149999618530273,20.559999465942383,8.09000015258789,7.859999656677246,7.4298840532430654,16.694909129540292,6.569154713702774,6.382392190418759,9.269085021726223,0.5217337731262874,5.400000095367432,39.900001525878906,0.0,208.0,0.0,0.0,0.0,snow covered,0.252878487110138,-6.82264423370361,100.0,500.625823974609
arenacam6_1769536785153956996.png,1769536785153956996,1769536785.1539571,42.30000825511765,-83.69795982286496,236.12374877929688,0.7273248251758806,0.6862707331666683,-0.002017199645826175,-0.005197151849536271,0.03644000000000001,0.031110000000000002,0.014040000000000002,2.4212000000000002,-0.11270000000000001,-10.6061,2.7467411287016636,6.1442951004379,8.819999694824219,21.809999465942383,8.319999694824219,8.119999885559082,7.161921072594452,17.70992065454029,6.7559164625944526,6.59351477347292,9.55531824080053,0.5551528832200016,5.800000190734863,40.47500228881836,0.0,36.0,0.0,0.0,0.0,snow covered,0.252878487110138,-6.82264423370361,100.0,500.625823974609
arenacam6_1769536785200135275.png,1769536785200135275,1769536785.2001352,42.30000978055581,-83.69795974504694,236.12709045410156,0.7275842119516142,0.6859863891902198,-0.002548088604202846,-0.006115194925574655,0.04818000000000001,-0.0030700000000000002,0.011260000000000001,3.4772000000000003,-1.088,-12.338000000000001,2.880037296838099,6.442470630789018,8.289999961853027,20.809999465942383,8.720000267028809,8.429999351501465,6.731556402824307,16.89791143454029,7.080720615229854,6.845237198013211,9.388856412651915,0.4573378678331747,6.900000095367432,40.70000076293945,0.0,468.0,0.0,0.0,0.0,snow covered,0.252878487110138,-6.82264423370361,100.0,500.625823974609
arenacam6_1769536785217808342.png,1769536785217808342,1769536785.2178085,42.30000978055581,-83.69795974504694,236.12709045410156,0.7277227486247556,0.6858378871984054,-0.003074924236647925,-0.006044704971861915,0.031790000000000006,-0.031210000000000005,0.020280000000000003,-0.2013,0.3073,-11.6983,2.8979145130526347,6.482460890827961,8.40999984741211,19.049999237060547,8.649999618530273,8.529999732971191,6.828997416297226,15.46877502148613,7.023879443243065,6.926438429770146,9.06202257769914,0.39792938674277284,7.5,40.5,0.0,500.0,0.0,0.0,0.0,snow covered,0.252878487110138,-6.82264423370361,100.0,500.625823974609
arenacam6_1769536785236547976.png,1769536785236547976,1769536785.2365482,42.300010299987136,-83.69795971441481,236.12939453125,0.7278206561672088,0.6857319461513471,-0.003242079222013496,-0.006187035327003876,0.02161,-0.0008900000000000001,0.010990000000000003,2.0388,0.9608000000000001,-9.6045,2.9241068047073604,6.5410514757220835,8.59000015258789,17.969999313354492,8.84000015258789,8.559999465942383,6.9751593237027745,14.591805125837517,7.1781616287027745,6.950798489540291,8.92398114194584,0.36430376294519196,8.100000381469727,40.625,0.0,556.0,0.0,0.0,0.0,snow covered,0.252878487110138,-6.82264423370361,100.0,500.625823974609
arenacam6_1769536785257074555.png,1769536785257074555,1769536785.2570744,42.300010829549976,-83.69795967929623,236.1319122314453,0.7278515137771522,0.6856977849117903,-0.003381216959403967,-0.006268096301557525,0.030910000000000003,-0.009010000000000002,0.009270000000000002,2.656,0.0269,-8.977,2.950300576717913,6.599645372083368,8.889999389648438,16.309999465942383,8.84000015258789,8.829999923706055,7.2187614701889045,13.24386994454029,7.1781616287027745,7.170041350648613,8.702708598520145,0.3186630656448263,8.699999809265137,40.57500076293945,0.0,560.0,0.0,0.0,0.0,snow covered,0.252878487110138,-6.82264423370361,100.0,500.625823974609
arenacam6_1769536785277880825.png,1769536785277880825,1769536785.277881,42.30001189866199,-83.6979596112701,236.13748168945312,0.7279598175198772,0.6855849774939414,-0.0036479980351076793,-0.005868119067877477,-0.025830000000000002,-0.031490000000000004,0.010650000000000001,1.621,0.8947,-9.9021,3.0166708824631905,6.74811176381721,9.130000114440918,14.539999961853027,9.15999984741211,8.809999465942383,7.413644271527081,11.806614027824308,7.438004331297226,7.153800794540291,8.453015856297226,0.25264905978907515,9.300000190734863,40.47500228881836,0.0,536.0,0.0,0.0,0.0,snow covered,0.252878487110138,-6.82264423370361,100.0,500.625823974609
arenacam6_1769536785298984561.png,1769536785298984561,1769536785.2989845,42.30001244733298,-83.6979595705055,236.13992309570312,0.7279566054765536,0.6855875806433723,-0.0038348212601546656,-0.005843283026109993,0.022320000000000003,-0.0021000000000000003,-0.004240000000000001,1.339,0.8227,-9.6005,3.035666846914771,6.790604596537529,9.319999694824219,13.75,8.889999389648438,9.279999732971191,7.567925682594453,11.165126775000001,7.2187614701889045,7.535445344770146,8.371814818138375,0.23285264207653794,10.0,40.67499923706055,0.0,464.0,0.0,0.0,0.0,snow covered,0.252878487110138,-6.82264423370361,100.0,500.625823974609
arenacam6_1769536785319449494.png,1769536785319449494,1769536785.3194497,42.30001244733298,-83.6979595705055,236.13992309570312,0.7278696499884276,0.6856801439754421,-0.0038779468822023617,-0.005785698879047701,-0.01093,-0.01055,-0.00949,2.2422,-0.40180000000000005,-8.904,3.079295994139955,6.888200381131432,9.469999313354492,13.319999694824219,9.1899995803833,8.979999542236328,7.689726755837517,10.815962562594452,7.462364391067371,7.291842423891678,8.314974033347754,0.20713300619485836,10.5,40.650001525878906,0.0,380.0,0.0,0.0,0.0,snow covered,0.252878487110138,-6.82264423370361,100.0,500.625823974609
arenacam6_1769536785340129074.png,1769536785340129074,1769536785.3401291,42.300013554932896,-83.69795948576272,236.1443328857422,0.7277566494825438,0.685797951952776,-0.004022221758360872,-0.005937167965153832,0.022100000000000005,0.026660000000000007,-0.020680000000000004,1.8426,-0.29910000000000003,-9.3375,3.1216794984556886,6.983009737275468,10.0,13.219999313354492,9.769999504089355,9.059999465942383,8.1200922,10.734761330837516,7.933329676715984,7.356803099540292,8.536246576773449,0.2224308568849283,10.90000057220459,40.67499923706055,0.0,216.0,0.0,0.0,0.0,snow covered,0.252878487110138,-6.82264423370361,100.0,500.625823974609
arenacam6_1769536785360483930.png,1769536785360483930,1769536785.360484,42.3000141221333,-83.69795943994087,236.14585876464844,0.7276923032966849,0.685865183947853,-0.004037925727034688,-0.006046182826082393,0.01805,0.01251,-0.018170000000000006,1.8275000000000001,-0.0687,-8.4259,3.139721494381137,7.023368599640941,10.489999771118164,13.219999313354492,10.119999885559082,9.289999961853027,8.51797653194584,10.734761330837516,8.21753321347292,7.543565622824306,8.753459174770144,0.24633344392855186,11.100000381469727,40.60000228881836,0.0,216.0,0.0,0.0,0.0,snow covered,0.252878487110138,-6.82264423370361,100.0,500.625823974609
arenacam6_1769536785381644795.png,1769536785381644795,1769536785.3816447,42.300014688813114,-83.69795939131237,236.1477813720703,0.7275966014042161,0.6859629317598247,-0.004182404093977479,-0.006367838918743434,0.03862000000000001,0.00124,-0.015110000000000002,2.3005,-0.42610000000000003,-9.694,3.183404619908878,7.121085130458966,11.15999984741211,13.630000114440918,10.869999885559082,9.90999984741211,9.062022771297226,11.06768576152708,8.826540128472919,8.047011246297227,9.250814976898614,0.29907377982748296,11.100000381469727,40.47500228881836,0.0,76.0,0.0,0.0,0.0,snow covered,0.252878487110138,-6.82264423370361,100.0,500.625823974609
arenacam6_1769536785402378777.png,1769536785402378777,1769536785.4023788,42.300014688813114,-83.69795939131237,236.1477813720703,0.7275212984741265,0.6860400634556905,-0.0041852776699586895,-0.00665395003423688,0.013460000000000001,0.018550000000000004,-0.013740000000000002,2.0034,-0.2257,-9.7257,3.2217496170181077,7.2068605882924865,11.789999961853027,14.059999465942383,11.09999942779541,10.729999542236328,9.573588672824306,11.416849199540291,9.013301877364597,8.712858558891678,9.679149577155219,0.34304659547306277,11.0,40.625,0.0,64.0,0.0,0.0,0.0,snow covered,0.252878487110138,-6.82264423370361,100.0,500.625823974609
arenacam6_1769536785422951548.png,1769536785422951548,1769536785.4229515,42.300015854024814,-83.69795929970887,236.15057373046875,0.7274227288287043,0.6861411765195972,-0.004306758484950391,-0.006921798830963696,0.03368000000000001,0.010260000000000002,-0.020130000000000002,1.9267,-0.44730000000000003,-9.6244,3.258470785861821,7.289003639725742,11.479999542236328,14.699999809265137,11.050000190734863,10.819999694824219,9.321865473891679,11.936535379121532,8.972702035878468,8.785939512594451,9.754260600371532,0.3382159047376397,10.800000190734863,40.47500228881836,0.0,80.0,0.0,0.0,0.0,snow covered,0.252878487110138,-6.82264423370361,100.0,500.625823974609
arenacam6_1769536785443587037.png,1769536785443587037,1769536785.443587,42.30001644249424,-83.69795925173823,236.1519317626953,0.7272805407007703,0.6862915997757549,-0.004216242426100916,-0.007005604544550277,-0.015960000000000002,0.013850000000000001,-0.017820000000000003,2.0891,-1.3665,-9.7451,3.2974570880705123,7.376213658588452,11.09000015258789,15.319999694824219,12.09999942779541,10.479999542236328,9.005182373702773,12.439981002594452,9.825311097364597,8.509856253891678,9.945082681888374,0.348263911838952,10.600000381469727,40.400001525878906,0.0,80.0,0.0,0.0,0.0,snow covered,0.252878487110138,-6.82264423370361,100.0,500.625823974609
arenacam6_1769536785464427437.png,1769536785464427437,1769536785.4644275,42.30001704134659,-83.69795921462175,236.1531219482422,0.727225127479754,0.6863511371579749,-0.004173111815259873,-0.0069509439493983406,0.0028200000000000005,-0.00010000000000000002,-0.014310000000000002,1.741,0.2827,-9.259500000000001,3.3348168788331223,7.459785268936965,10.639999389648438,16.619998931884766,13.019999504089355,9.719999313354492,8.639777605188904,13.495592369080581,10.572359641715984,7.892729060837517,10.150114669205747,0.3606443487685215,10.0,40.45000076293945,0.0,84.0,0.0,0.0,0.0,snow covered,0.252878487110138,-6.82264423370361,100.0,500.625823974609
arenacam6_1769536785484951494.png,1769536785484951494,1769536785.4849515,42.30001764787248,-83.6979591770704,236.1535186767578,0.727079340851083,0.6865105028877677,-0.003650001588817912,-0.006755665825131354,-0.05482000000000001,0.026170000000000002,-0.0068000000000000005,1.5328000000000002,-0.5461,-7.731800000000001,3.3814764667514337,7.564159967534953,10.719999313354492,17.6299991607666,13.359999656677246,9.869999885559082,8.704738280837518,14.315721867134743,10.848442900418759,8.014530908472919,10.470858489215985,0.3842724815652308,9.90000057220459,40.60000228881836,0.0,144.0,0.0,0.0,0.0,snow covered,0.252878487110138,-6.82264423370361,100.0,500.625823974609
arenacam6_1769536785505706020.png,1769536785505706020,1769536785.505706,42.30001825824052,-83.69795913231704,236.15394592285156,0.727046625883705,0.6865475263717609,-0.003381633651200122,-0.0066529976540785,-0.051710000000000006,0.024820000000000002,-0.010230000000000003,2.4376,0.2657,-7.8295,3.4054530079772376,7.617794051664602,10.679999351501465,18.799999237060547,12.40999984741211,9.929999351501465,8.67225794301321,15.26577271648613,10.077034296297228,8.06325102801321,10.519578995952445,0.38092194729965945,9.5,40.650001525878906,0.0,500.0,0.0,0.0,0.0,snow covered,0.252878487110138,-6.82264423370361,100.0,500.625823974609
arenacam6_1769536785526245934.png,1769536785526245934,1769536785.5262458,42.30001887717822,-83.69795909548093,236.1532745361328,0.7269384841327394,0.6866635270713537,-0.00299377297971637,-0.006684175346989288,-0.013480000000000002,0.030130000000000004,-0.01896,2.2802000000000002,0.7318,-7.9001,3.4522054658082553,7.722376494685119,10.819999694824219,19.78999900817871,10.229999542236328,10.210000038146973,8.785939512594451,16.06966165843197,8.306853948891678,8.290614167175693,10.36326732177345,0.3419790305362485,9.199999809265137,40.92499923706055,0.0,548.0,0.0,0.0,0.0,snow covered,0.252878487110138,-6.82264423370361,100.0,500.625823974609
arenacam6_1769536785547050188.png,1769536785547050188,1769536785.5470502,42.30001887717822,-83.69795909548093,236.1532745361328,0.7268592351228284,0.6867464247641075,-0.002655213642431032,-0.006924610522324126,-0.01012,0.04979000000000001,-0.015830000000000004,1.7144000000000001,-0.9961000000000001,-8.7681,3.4851024421975456,7.795965057049378,11.5,21.18000030517578,10.389999389648438,10.319999694824219,9.33810603,17.19835552740555,8.436775300188904,8.379934902594453,10.838292940047229,0.3902439096038371,8.800000190734863,40.70000076293945,0.0,508.0,0.0,0.0,0.0,snow covered,0.252878487110138,-6.82264423370361,100.0,500.625823974609
arenacam6_1769536785567798776.png,1769536785567798776,1769536785.5677989,42.300020136777924,-83.69795900491111,236.15017700195312,0.7267172056806446,0.6868927479190935,-0.0021241823172797004,-0.007479550344467727,0.026990000000000004,0.037930000000000005,-0.01856,2.4006000000000003,-0.013600000000000001,-10.565100000000001,3.549345739475925,7.939673458463276,11.619999885559082,22.60999870300293,10.34000015258789,10.269999504089355,9.435547043472921,18.359527411026423,8.396175458702775,8.339334286715985,11.132646049979524,0.40215414503133073,8.300000190734863,40.82500076293945,0.0,448.0,0.0,0.0,0.0,snow covered,0.252878487110138,-6.82264423370361,100.0,500.625823974609
arenacam6_1769536785588435129.png,1769536785588435129,1769536785.5884352,42.30002077654796,-83.69795896387069,236.1490020751953,0.7266509351885623,0.6869586592088925,-0.001993780852291193,-0.007889471808788488,0.01818,0.041100000000000005,-0.006430000000000001,1.5858,-0.23600000000000002,-11.728100000000001,3.5824721624456353,8.01377527906114,11.149999618530273,22.90999984741211,10.469999313354492,10.469999313354492,9.053902493243067,18.603131106297226,8.501735975837518,8.501735975837518,11.165126387803832,0.3932417617170683,7.800000190734863,40.70000076293945,0.0,500.0,0.0,0.0,0.0,snow covered,0.252878487110138,-6.82264423370361,100.0,500.625823974609
arenacam6_1769536785609027988.png,1769536785609027988,1769536785.609028,42.30002077654796,-83.69795896387069,236.1490020751953,0.7266318215302279,0.6869756032267679,-0.0019411750814157338,-0.008182197148960934,0.0351,0.047450000000000006,-0.011070000000000002,1.6574,-0.0823,-11.1242,3.5981319077167333,8.04880518964787,10.6899995803833,23.01999855041504,10.559999465942383,10.59000015258789,8.680378221067372,18.692451067323645,8.57481692954029,8.599177763702775,11.136705995408521,0.38364710450840767,7.200000286102295,40.5,0.0,524.0,0.0,0.0,0.0,snow covered,0.252878487110138,-6.82264423370361,100.0,500.625823974609
arenacam6_1769536785629840572.png,1769536785629840572,1769536785.6298406,42.30002208039604,-83.69795887686132,236.1486053466797,0.726555179083471,0.6870498380141533,-0.0018285500074000454,-0.008760607089754143,0.006120000000000001,0.032740000000000005,-0.0079,3.3633,-0.7947000000000001,-11.3861,3.686073786256409,8.245525895428411,10.639999389648438,22.439998626708984,10.729999542236328,10.800000190734863,8.639777605188904,18.22148578167503,8.712858558891678,8.769699730878468,11.08595541915852,0.3444813053470532,6.900000095367432,40.900001525878906,0.0,508.0,0.0,0.0,0.0,snow covered,0.252878487110138,-6.82264423370361,100.0,500.625823974609
arenacam6_1769536785650733156.png,1769536785650733156,1769536785.650733,42.300022746275424,-83.69795883714315,236.1492156982422,0.7265297993012089,0.6870742806453367,-0.002042114982224984,-0.008900189292241067,0.035500000000000004,0.010510000000000002,-0.007840000000000001,2.7469,-0.5771000000000001,-10.7874,3.7398604426746167,8.365843418636558,10.75,20.869998931884766,10.719999313354492,11.059999465942383,8.729099115,16.946631554080582,8.704738280837518,8.980821539540292,10.840322622364598,0.29578359047644276,6.700000286102295,40.85000228881836,0.0,484.0,0.0,0.0,0.0,snow covered,0.252878487110138,-6.82264423370361,100.0,500.625823974609
arenacam6_1769536785671439504.png,1769536785671439504,1769536785.6714396,42.300023423904584,-83.69795880263254,236.15042114257812,0.7264926802468585,0.6871175228667902,-0.0021230378295342216,-0.008566681242821617,-0.03832000000000001,-0.030330000000000006,-0.0007300000000000002,1.76,-1.483,-10.3468,3.788772338774951,8.47525639549924,10.9399995803833,18.549999237060547,10.949999809265137,11.25,8.883380526067372,15.06277041148613,8.891500804121533,9.135103725,10.493188866668758,0.23809692320826242,6.599999904632568,40.70000076293945,0.0,456.0,0.0,0.0,0.0,snow covered,0.252878487110138,-6.82264423370361,100.0,500.625823974609
arenacam6_1769536785691772884.png,1769536785691772884,1769536785.691773,42.30002479458191,-83.6979587288875,236.15382385253906,0.7265184918596113,0.6870928273595179,-0.0021062341268938624,-0.008360104959991843,-0.03237,-0.025830000000000002,0.007180000000000001,2.0324,0.31770000000000004,-11.104800000000001,3.808265043060312,8.518860405423336,11.170000076293945,16.309999465942383,11.15999984741211,11.239999771118164,9.070143049351387,13.24386994454029,9.062022771297226,9.12698344694584,10.125754803033686,0.18862785879052066,6.700000286102295,41.125,0.0,440.0,0.0,0.0,0.0,snow covered,0.252878487110138,-6.82264423370361,100.0,500.625823974609
arenacam6_1769536785712622771.png,1769536785712622771,1769536785.712623,42.30002479458191,-83.6979587288875,236.15382385253906,0.7264831248943611,0.687140623317339,-0.00209366040204548,-0.007459867083537833,-0.058530000000000006,-0.044390000000000006,-0.007440000000000001,1.9201000000000001,-1.4732,-10.657300000000001,3.8780719820762317,8.675014339585607,11.559999465942383,13.679999351501465,11.449999809265137,11.429999351501465,9.38682614954029,11.108285603013211,9.297505414121533,9.28126485801321,9.768470506172061,0.1260466120034895,7.200000286102295,41.35000228881836,0.0,460.0,0.0,0.0,0.0,snow covered,0.252878487110138,-6.82264423370361,100.0,500.625823974609
arenacam6_1769536785733570147.png,1769536785733570147,1769536785.73357,42.30002549484698,-83.69795869320853,236.1562957763672,0.7265156188415606,0.6871141827010583,-0.0020254697295526035,-0.006712151867730449,-0.049490000000000006,-0.0415,0.0015,2.0961000000000003,1.2351,-10.8543,3.9135638207594488,8.754407453209643,11.899999618530273,11.380000114440918,11.609999656677246,11.59000015258789,9.662909408243065,9.240665016527082,9.427426765418758,9.411186983702773,9.43554704347292,0.07780533335966092,7.300000190734863,41.775001525878906,0.0,312.0,0.0,0.0,0.0,snow covered,0.252878487110138,-6.82264423370361,100.0,500.625823974609
arenacam6_1769536785753805403.png,1769536785753805403,1769536785.7538054,42.30002691372711,-83.69795862880476,236.162109375,0.7263997685652058,0.687245522170457,-0.002246040290670477,-0.005650113988561062,-0.03986000000000001,-0.05354000000000001,-0.005830000000000001,1.2859,0.2092,-10.4884,3.9764817540158948,8.895151094828316,11.829999923706055,11.649999618530273,11.779999732971191,12.019999504089355,9.606069010648612,9.459907103243065,9.565468394770146,9.760350421715986,9.597948732594453,0.07900907250184284,7.300000190734863,42.17499923706055,0.0,392.0,0.0,0.0,0.0,snow covered,0.252878487110138,-6.82264423370361,100.0,500.625823974609
arenacam6_1769536785774743935.png,1769536785774743935,1769536785.7747438,42.30002691372711,-83.69795862880476,236.162109375,0.7263836656928058,0.6872643823301584,-0.00234922392854354,-0.005377745062894588,-0.02528,-0.05244000000000001,-0.00478,1.7354,0.7011000000000001,-10.496,3.9934114894170105,8.933021897136488,11.710000038146973,12.15999984741211,12.119999885559082,12.229999542236328,9.508627997175694,9.874031991297226,9.84155165347292,9.930872388891677,9.788771007709379,0.0957961505554133,7.300000190734863,42.025001525878906,0.0,260.0,0.0,0.0,0.0,snow covered,0.252878487110138,-6.82264423370361,100.0,500.625823974609
arenacam6_1769536785795334867.png,1769536785795334867,1769536785.7953348,42.30002763621157,-83.69795858521093,236.16519165039062,0.7262662002601104,0.6873893001584873,-0.0026382826438310996,-0.005137689369527098,0.008890000000000002,-0.04011000000000001,-0.022500000000000003,2.6077,0.6235,-9.581800000000001,4.037207501312704,9.03099094798644,12.40999984741211,12.319999694824219,12.069999694824219,12.139999389648438,10.077034296297228,10.003953342594452,9.800951037594453,9.857791435188904,9.934932527918757,0.1000932882270091,6.900000095367432,42.125,0.0,200.0,0.0,0.0,0.0,snow covered,0.252878487110138,-6.82264423370361,100.0,500.625823974609
arenacam6_1769536785816342657.png,1769536785816342657,1769536785.8163428,42.30002835836168,-83.69795854580576,236.16844177246094,0.7261461239130026,0.6875144742595323,-0.0030089278960196667,-0.005157592721193916,0.029170000000000005,-0.010690000000000002,-0.019280000000000002,2.1293,-0.8532000000000001,-9.328800000000001,4.075802411414911,9.117325446190472,13.130000114440918,13.09999942779541,11.960000038146973,12.219999313354492,10.661681151527082,10.637320317364598,9.711630302175694,9.922752110837518,10.233345970476222,0.12240656877637958,6.400000095367432,41.775001525878906,0.0,72.0,0.0,0.0,0.0,snow covered,0.252878487110138,-6.82264423370361,100.0,500.625823974609
arenacam6_1769536785837244407.png,1769536785837244407,1769536785.8372445,42.30002909484449,-83.69795850682563,236.17141723632812,0.7259996328492214,0.6876685289522375,-0.0031417848719433586,-0.005163000995487981,0.0054,0.004750000000000001,-0.014940000000000002,1.8142,-0.5497000000000001,-8.366900000000001,4.138289916218098,9.257106245184913,13.889999389648438,14.380000114440918,12.019999504089355,12.369999885559082,11.278807570188903,11.67669267652708,9.760350421715986,10.04455395847292,10.690101156726222,0.15479944526797257,5.900000095367432,42.025001525878906,0.0,72.0,0.0,0.0,0.0,snow covered,0.252878487110138,-6.82264423370361,100.0,500.625823974609
arenacam6_1769536785860067942.png,1769536785860067942,1769536785.8600678,42.30002983841913,-83.69795846849011,236.17337036132812,0.7259493162071816,0.6877215927842286,-0.0029683857675344393,-0.005271603416813905,-0.011860000000000002,0.03175000000000001,-0.004130000000000001,2.2368,-0.6588,-8.8472,4.173840808452115,9.336631458058875,14.489999771118164,15.1899995803833,12.139999389648438,12.359999656677246,11.76601341194584,12.33441971106737,9.857791435188904,10.03643368041876,10.99866455965522,0.17801207095539448,5.099999904632568,42.400001525878906,0.0,36.0,0.0,0.0,0.0,snow covered,0.252878487110138,-6.82264423370361,100.0,500.625823974609
arenacam6_1769536785880382689.png,1769536785880382689,1769536785.8803828,42.30003058605274,-83.69795842935763,236.1755828857422,0.7259399670899496,0.6877324142828559,-0.002814272802530494,-0.005231672267066673,-0.027240000000000004,0.01649,-0.006410000000000002,3.0632,-0.3131,-9.4886,4.20399364052182,9.404081534228881,15.920000076293945,15.769999504089355,12.359999656677246,12.519999504089355,12.927186844351388,12.805384996715986,10.03643368041876,10.166355031715984,11.483840138300529,0.2211548885982925,4.700000286102295,43.0,0.0,0.0,0.0,0.0,0.0,snow covered,0.252878487110138,-6.82264423370361,100.0,500.625823974609
arenacam6_1769536785898697549.png,1769536785898697549,1769536785.8986974,42.30003134512424,-83.69795839395123,236.17755126953125,0.7258290916362746,0.6878509698759047,-0.0024782160409275535,-0.0051991749818969465,-0.01572,0.013950000000000002,-0.007540000000000001,1.6174000000000002,-0.8887,-9.8657,4.268755881116332,9.54895078070437,16.719999313354492,16.31999969482422,12.65999984741211,12.729999542236328,13.576793600837517,13.251990222594452,10.280036601297226,10.336876998891679,11.861424355905218,0.2421704361356306,4.200000286102295,43.67499923706055,0.0,0.0,0.0,0.0,0.0,snow covered,0.252878487110138,-6.82264423370361,100.0,500.625823974609
arenacam6_1769536785919421379.png,1769536785919421379,1769536785.9194214,42.30003211355524,-83.69795835693364,236.1793975830078,0.7257886049779252,0.6878946250810535,-0.0021339683052641984,-0.005227986999456614,-0.021640000000000003,0.025670000000000002,-0.007930000000000001,2.3641,0.157,-9.781600000000001,4.310669168059791,9.64270828879967,16.75,16.600000381469727,12.799999237060547,12.880000114440918,13.601154435,13.479353361756935,10.39371739648613,10.458678846527082,11.983226009942538,0.24272410312997422,3.9000000953674316,44.625,0.0,16.0,0.0,0.0,0.0,snow covered,0.252878487110138,-6.82264423370361,100.0,500.625823974609
arenacam6_1769536785940568199.png,1769536785940568199,1769536785.9405682,42.30003288615695,-83.69795831565271,236.18113708496094,0.7257592621159564,0.6879258378603541,-0.0020174878670963904,-0.005240686952891374,-0.014360000000000001,0.018220000000000004,-0.009430000000000001,3.0495,0.3025,-9.5873,4.340650094623627,9.709773822667378,16.639999389648438,16.600000381469727,12.889999389648438,12.9399995803833,13.511832925188905,13.479353361756935,10.466798350188904,10.507398966067372,11.991345900800528,0.2349768511401204,3.700000047683716,44.5,0.0,56.0,0.0,0.0,0.0,snow covered,0.252878487110138,-6.82264423370361,100.0,500.625823974609
arenacam6_1769536785961156031.png,1769536785961156031,1769536785.9611561,42.300034462743966,-83.69795823423961,236.18533325195312,0.7256868662110719,0.6880021349330667,-0.0021028535855787452,-0.005216564299756818,0.012880000000000003,0.00218,-0.006810000000000001,1.7015,-0.0117,-10.266300000000001,4.405034104487385,9.853796989692011,16.779998779296875,16.5,12.859999656677246,12.979999542236328,13.625513720377807,13.39815213,10.442438290418758,10.539879303891679,12.001495861172062,0.21795647644524682,3.700000047683716,44.79999923706055,0.0,112.0,0.0,0.0,0.0,snow covered,0.252878487110138,-6.82264423370361,100.0,500.625823974609
arenacam6_1769536785981804194.png,1769536785981804194,1769536785.9818044,42.30003525879534,-83.6979581854985,236.18734741210938,0.7256277644335299,0.6880638686577454,-0.0022002311353894175,-0.005255389032720096,0.012370000000000003,-0.008230000000000001,-0.00638,2.1745,1.133,-9.9145,4.446225951989855,9.945940681044187,16.969999313354492,16.18000030517578,12.799999237060547,12.829999923706055,13.779795905837517,13.138309427405549,10.39371739648613,10.418078230648614,11.932475240094451,0.1997331999814125,3.799999952316284,44.900001525878906,0.0,140.0,0.0,0.0,0.0,snow covered,0.252878487110138,-6.82264423370361,100.0,500.625823974609
arenacam6_1769536786023025917.png,1769536786023025917,1769536786.023026,42.300036885022166,-83.69795808699158,236.19171142578125,0.7254255495104338,0.6882699952681716,-0.0031863385371617087,-0.005659768348854451,0.043100000000000006,-0.025910000000000002,-0.011800000000000001,2.3105,0.4731,-9.360100000000001,4.567219448340669,10.216595872771178,17.15999984741211,14.219999313354492,13.25999927520752,13.199999809265137,13.934078091297227,11.546770550837518,10.767241668661823,10.718521549121533,11.741652964979526,0.14927252787524492,4.300000190734863,44.775001525878906,0.0,68.0,0.0,0.0,0.0,snow covered,0.252878487110138,-6.82264423370361,100.0,500.625823974609
arenacam6_1769536786045395686.png,1769536786045395686,1769536786.0453956,42.30003770549801,-83.69795803436023,236.19390869140625,0.7253246267415928,0.6883728448669753,-0.003650934941242103,-0.005803702781081692,0.04238000000000001,-0.033420000000000005,-0.013740000000000002,2.3824,-0.1569,-10.163400000000001,4.616402112404957,10.326614541323146,17.770000457763672,13.149999618530273,13.619999885559082,13.359999656677246,14.429404211108324,10.677920933243065,11.059565483472921,10.848442900418759,11.753833382060767,0.13820781583610386,4.400000095367432,44.79999923706055,0.0,36.0,0.0,0.0,0.0,snow covered,0.252878487110138,-6.82264423370361,100.0,500.625823974609
arenacam6_1769536786064199596.png,1769536786064199596,1769536786.0641997,42.300038539016995,-83.69795798312092,236.19615173339844,0.7252796457047678,0.6884186552809244,-0.0038287180603143274,-0.005876351383711662,0.035120000000000005,-0.015860000000000003,-0.012730000000000002,2.4302,-0.2805,-9.7987,4.640446895704228,10.380401278876617,18.549999237060547,13.59999942779541,13.880000114440918,13.729999542236328,15.06277041148613,11.043324927364598,11.27068806652708,11.148886218891679,12.13141740606737,0.16868482057181622,4.5,44.82500076293945,0.0,28.0,0.0,0.0,0.0,snow covered,0.252878487110138,-6.82264423370361,100.0,500.625823974609
arenacam6_1769536786085077405.png,1769536786085077405,1769536786.0850775,42.300038539016995,-83.69795798312092,236.19615173339844,0.7251796213893298,0.6885220039025882,-0.0041981428293424985,-0.005860244054372029,0.026330000000000003,-0.02452,-0.013200000000000002,1.4605000000000001,0.30760000000000004,-9.8664,4.678295845220071,10.465067108006586,19.15999984741211,13.829999923706055,14.289999961853027,14.170000076293945,15.558096531297227,11.230087450648613,11.603611722824308,11.506170709351387,12.474491603530383,0.19201257620091436,4.700000286102295,44.525001525878906,0.0,0.0,0.0,0.0,0.0,snow covered,0.252878487110138,-6.82264423370361,100.0,500.625823974609
arenacam6_1769536786106028418.png,1769536786106028418,1769536786.1060286,42.30004022663895,-83.69795787590105,236.2009735107422,0.7250154020254751,0.6886929031328063,-0.004518896128567106,-0.005859315499711692,0.0019500000000000003,-0.015920000000000004,-0.014210000000000002,2.4423,-0.4556,-10.4197,4.742410876910539,10.608488586996263,19.809999465942383,13.84000015258789,14.489999771118164,14.389999389648438,16.08590221454029,11.238207728702776,11.76601341194584,11.684812180188905,12.693733883844454,0.19656384410916514,4.700000286102295,44.650001525878906,0.0,0.0,0.0,0.0,0.0,snow covered,0.252878487110138,-6.82264423370361,100.0,500.625823974609
arenacam6_1769536786126365935.png,1769536786126365935,1769536786.126366,42.30004108213478,-83.69795782531023,236.20375061035156,0.7249612177072053,0.6887502728944342,-0.004613157009726287,-0.005745710637690012,-0.0034200000000000003,-0.029490000000000002,-0.015560000000000001,2.2635,-0.0935,-10.554400000000001,4.7649506034589715,10.658908602901512,20.989999771118164,14.309999465942383,15.079999923706055,14.670000076293945,17.04407334194584,11.619851504540291,12.245098975648615,11.912175319351388,13.205299785371533,0.23889792823412107,4.700000286102295,44.5,0.0,0.0,0.0,0.0,0.0,snow covered,0.252878487110138,-6.82264423370361,100.0,500.625823974609
arenacam6_1769536786146943540.png,1769536786146943540,1769536786.1469436,42.30004194660563,-83.69795778342159,236.20655822753906,0.7248069246859059,0.6889134923549433,-0.004702750727399377,-0.0055683134134768665,-0.009930000000000001,-0.019430000000000003,-0.022060000000000003,2.1295,-1.4332,-10.0465,4.80604892209532,10.750843075791906,22.34000015258789,14.559999465942383,14.699999809265137,15.170000076293945,18.140286098702774,11.822853809540293,11.936535379121532,12.318179929351386,13.554463804178996,0.2607814762639511,4.700000286102295,44.32500076293945,0.0,0.0,0.0,0.0,0.0,snow covered,0.252878487110138,-6.82264423370361,100.0,500.625823974609
arenacam6_1769536786167888478.png,1769536786167888478,1769536786.1678884,42.300042812353134,-83.69795773732527,236.20938110351562,0.7247168554535773,0.6890142893103781,-0.004420866129816698,-0.005024389540597058,-0.045110000000000004,-0.0010000000000000002,-0.0026100000000000003,2.3971,-0.5305,-9.776900000000001,4.862414269147903,10.876928975227711,23.84000015258789,14.84999942779541,14.529999732971191,17.28999900817871,19.358299928702774,12.058336452364598,11.798493749770145,14.03963860843197,14.313692184817372,0.3159681576865046,4.599999904632568,44.5,0.0,24.0,0.0,0.0,0.0,snow covered,0.252878487110138,-6.82264423370361,100.0,500.625823974609
arenacam6_1769536786188805817.png,1769536786188805817,1769536786.1888058,42.300043690855695,-83.69795769755352,236.2120819091797,0.7246705189770307,0.6890668677902554,-0.004182783565222779,-0.004689878562828873,-0.03685000000000001,-0.0059700000000000005,-0.009530000000000002,2.3155,-0.43920000000000003,-8.4681,4.911756488098717,10.987304558487544,24.969999313354492,14.84999942779541,14.5,18.760000228881836,20.27586966583752,12.058336452364598,11.77413369,15.233293153054163,14.83540824031407,0.3502318208567285,4.700000286102295,44.650001525878906,0.0,68.0,0.0,0.0,0.0,snow covered,0.252878487110138,-6.82264423370361,100.0,500.625823974609
arenacam6_1769536786209531600.png,1769536786209531600,1769536786.2095315,42.300044578232956,-83.69795766327782,236.21392822265625,0.7246267832109461,0.689117151122039,-0.0038226382780147624,-0.00435482713740761,-0.05598000000000001,0.00931,-0.0016200000000000001,1.746,-1.0461,-8.5465,4.946714788418044,11.06550417880386,26.099998474121094,14.739999771118164,14.710000038146973,19.649999618530273,21.19343940297226,11.96901571694584,11.944655657175694,15.955980863243067,15.265772910084216,0.3795822281036263,4.700000286102295,44.625,0.0,68.0,0.0,0.0,0.0,snow covered,0.252878487110138,-6.82264423370361,100.0,500.625823974609
arenacam6_1769536786229837500.png,1769536786229837500,1769536786.2298377,42.30004546795728,-83.69795762266841,236.21592712402344,0.7246168587078066,0.6891302773751286,-0.0035360007147840927,-0.0041672029293344385,-0.06663000000000001,0.01561,-0.0034800000000000005,2.0513,0.085,-8.8251,4.967242461297002,11.111423351373716,26.76999855041504,14.699999809265137,14.869999885559082,20.420000076293945,21.737485642323648,11.936535379121532,12.07457700847292,16.581228334351387,15.582456591067372,0.402381683993788,4.700000286102295,44.25,0.0,144.0,0.0,0.0,0.0,snow covered,0.252878487110138,-6.82264423370361,100.0,500.625823974609
arenacam6_1769536786250468426.png,1769536786250468426,1769536786.2504683,42.3000463699743,-83.6979575830617,236.21749877929688,0.7244944788705249,0.689262415780606,-0.0030251567914798116,-0.003990075788320878,-0.012470000000000002,0.0159,-0.017200000000000003,2.8827000000000003,-0.21710000000000002,-9.026200000000001,5.040670060421354,11.275676484958943,28.279998779296875,14.6899995803833,15.149999618530273,23.28999900817871,22.96361975037781,11.928415101067372,12.301939373243066,18.911693928431973,16.526417038280055,0.4656696704916353,4.700000286102295,44.54999923706055,0.0,196.0,0.0,0.0,0.0,snow covered,0.252878487110138,-6.82264423370361,100.0,500.625823974609
arenacam6_1769536786271210982.png,1769536786271210982,1769536786.271211,42.300047281354935,-83.69795754307057,236.21873474121094,0.7244423003805658,0.6893187359881717,-0.0029005064469838906,-0.0038237020456759335,-0.022010000000000002,-0.009900000000000003,-0.0020900000000000003,1.3136,-0.4148,-9.9617,5.0801047586709105,11.363889538861308,29.059999465942383,14.889999389648438,15.0,25.44999885559082,23.59698749954029,12.090816790188905,12.180138300000001,20.665633719729193,17.1333940773646,0.5077050880135017,4.599999904632568,44.54999923706055,0.0,136.0,0.0,0.0,0.0,snow covered,0.252878487110138,-6.82264423370361,100.0,500.625823974609
arenacam6_1769536786313384836.png,1769536786313384836,1769536786.313385,42.300048193132376,-83.69795749646454,236.2198486328125,0.7242840294955375,0.6894816572161212,-0.0029202557819434346,-0.004377337819563577,0.030600000000000002,0.010280000000000003,-0.00816,2.1959,-1.7584000000000002,-9.313500000000001,5.176852357740962,11.580308113125069,28.869998931884766,15.229999542236328,15.00999927520752,28.09000015258789,23.442705314080584,12.36690004889168,12.188257803661823,22.809339113702777,17.701800570084217,0.5286122266488813,3.799999952316284,44.42499923706055,0.0,256.0,0.0,0.0,0.0,snow covered,0.252878487110138,-6.82264423370361,100.0,500.625823974609
arenacam6_1769536786333188221.png,1769536786333188221,1769536786.333188,42.300050048575784,-83.69795741407813,236.22222900390625,0.7242585895867993,0.6895079265992659,-0.002875514965913043,-0.004477273746607734,0.008310000000000001,0.020280000000000003,-0.007470000000000001,1.724,-1.9403000000000001,-8.978200000000001,5.193866249846117,11.618367168930774,27.369998931884766,15.809999465942383,15.40999984741211,27.44999885559082,22.22469148408058,12.837865334540291,12.513061956297227,22.289652159729197,17.466317733661825,0.5033366978080476,3.6000001430511475,44.35000228881836,0.0,604.0,0.0,0.0,0.0,snow covered,0.252878487110138,-6.82264423370361,100.0,500.625823974609
arenacam6_1769536786353966197.png,1769536786353966197,1769536786.353966,42.300050981457936,-83.6979573694036,236.22296142578125,0.7242911724119475,0.6894732596135176,-0.002676527467193825,-0.004664551935030079,-0.0025800000000000003,0.030650000000000004,0.009110000000000002,2.379,-1.0258,-8.2349,5.234354890304131,11.708937828316923,27.639999389648438,16.1299991607666,15.779999732971191,27.44999885559082,22.443934345188907,13.097708037134742,12.813505274770145,22.289652159729197,17.66119995420575,0.5083520139199869,3.4000000953674316,44.5,0.0,496.0,0.0,0.0,0.0,snow covered,0.252878487110138,-6.82264423370361,100.0,500.625823974609
arenacam6_1769536786376546997.png,1769536786376546997,1769536786.376547,42.30005288008263,-83.69795731161166,236.22340393066406,0.7244091787881303,0.6893521568627401,-0.002097240979688507,-0.004532890520159781,-0.04326000000000001,0.02289,0.022310000000000003,1.3673,-0.5313,-9.6708,5.292408676143769,11.838800664013045,28.44999885559082,16.079999923706055,15.519999504089355,27.35999870300293,23.101661379729194,13.057108195648613,12.602382691715986,22.216571206026423,17.744430868280055,0.4988368646343232,3.4000000953674316,44.375,0.0,548.0,0.0,0.0,0.0,snow covered,0.252878487110138,-6.82264423370361,100.0,500.625823974609
arenacam6_1769536786395208368.png,1769536786395208368,1769536786.3952084,42.30005288008263,-83.69795731161166,236.22340393066406,0.7245347810225339,0.6892223131480362,-0.0014807657759755572,-0.004445388646219527,-0.05091000000000001,0.042120000000000005,0.016110000000000003,1.9544000000000001,-0.1275,-10.0813,5.327095897684225,11.91639389736575,28.94999885559082,15.839999198913574,15.529999732971191,26.779998779296875,23.507665989729194,12.862225394310435,12.610502969770145,21.74560592037781,17.681500068546896,0.483796207211276,3.4000000953674316,44.375,0.0,548.0,0.0,0.0,0.0,snow covered,0.252878487110138,-6.82264423370361,100.0,500.625823974609
arenacam6_1769536786415969786.png,1769536786415969786,1769536786.4159698,42.300053836004174,-83.6979572834149,236.22373962402344,0.7245904327760776,0.689164610298564,-0.0011717755103620676,-0.004412661731644957,-0.04735000000000001,0.03941000000000001,0.015030000000000003,2.2868,-0.1245,-9.8756,5.349278059456676,11.966014062321017,30.170000076293945,15.989999771118164,15.539999961853027,25.869998931884766,24.498318229351387,12.98402724194584,12.618623247824306,21.006677654080583,17.776911593300532,0.4856168061240261,3.5,44.400001525878906,0.0,556.0,0.0,0.0,0.0,snow covered,0.252878487110138,-6.82264423370361,100.0,500.625823974609
arenacam6_1769536786439018262.png,1769536786439018262,1769536786.4390182,42.30005480327785,-83.6979572584805,236.22425842285156,0.7248102843988757,0.6889362480450789,-0.0002948619947675496,-0.004100099461501729,-0.05230000000000001,0.03275,0.026860000000000005,2.1469,0.08990000000000001,-11.0106,5.421205480434514,12.126911387403183,31.889999389648438,16.28999900817871,15.880000114440918,24.510000228881836,25.894973530188906,13.22762938843197,12.894706506527081,19.902346168054162,17.97991389830053,0.48264577219366406,3.6000001430511475,44.60000228881836,0.0,572.0,0.0,0.0,0.0,snow covered,0.252878487110138,-6.82264423370361,100.0,500.625823974609
arenacam6_1769536786457759750.png,1769536786457759750,1769536786.4577599,42.30005578104795,-83.69795723231437,236.22576904296875,0.7248834231982513,0.6888598594362342,-5.754091718639673e-05,-0.00401416478481744,-0.04510000000000001,0.022670000000000003,0.02084,2.6111,-0.1698,-11.319700000000001,5.446737468998099,12.184024913900608,32.65999984741211,16.1299991607666,16.279998779296875,23.549999237060547,26.520221001297227,13.097708037134742,13.219509110377807,19.122816511486132,17.990063665073976,0.4765287983406311,3.6000001430511475,44.525001525878906,0.0,568.0,0.0,0.0,0.0,snow covered,0.252878487110138,-6.82264423370361,100.0,500.625823974609
arenacam6_1769536786480221982.png,1769536786480221982,1769536786.480222,42.300057754790785,-83.69795718389102,236.22886657714844,0.725137320301128,0.6885947409088476,0.00044918030876426413,-0.0035982962950140214,-0.03851,-0.00821,0.028870000000000003,2.5857,-0.43570000000000003,-10.6567,5.527707599796357,12.365150238288464,33.09000015258789,15.880000114440918,16.420000076293945,22.779998779296875,26.869385213702774,12.894706506527081,13.333191454351388,18.497569040377808,17.898713053739762,0.44751278462567484,3.6000001430511475,44.70000076293945,0.0,556.0,0.0,0.0,0.0,snow covered,0.252878487110138,-6.82264423370361,100.0,500.625823974609
arenacam6_1769536786540378652.png,1769536786540378652,1769536786.5403786,42.30005976354958,-83.69795713141731,236.2344512939453,0.7257321350471385,0.6879719771809452,0.0007409867559574607,-0.002622539282926455,-0.019900000000000004,-0.03545000000000001,0.030910000000000003,1.9399000000000002,0.10300000000000001,-10.4785,5.650477054703841,12.639778142749211,30.869998931884766,16.299999237060547,16.420000076293945,21.959999084472656,25.06672375408058,13.23574966648613,13.333191454351388,17.831721727783357,17.366846650675363,0.3739835030757899,3.1000001430511475,44.57500076293945,0.0,448.0,0.0,0.0,0.0,snow covered,0.252878487110138,-6.82264423370361,100.0,500.625823974609
arenacam6_1769536786560843852.png,1769536786560843852,1769536786.5608437,42.30006077881021,-83.6979571034455,236.2373046875,0.7258483862068862,0.6878496585563993,0.0007534394039486608,-0.002529781367675978,-0.015220000000000003,-0.010890000000000002,0.03372000000000001,1.6796,-0.08650000000000001,-10.011700000000001,5.666702843437086,12.676074258598156,29.59000015258789,16.520000457763672,16.489999771118164,21.829999923706055,24.027352943702773,13.414392686108322,13.39003185194584,17.726161210648613,17.139484673101386,0.35211299046119954,2.9000000953674316,44.47500228881836,0.0,448.0,0.0,0.0,0.0,snow covered,0.252878487110138,-6.82264423370361,100.0,500.625823974609
arenacam6_1769536786581694762.png,1769536786581694762,1769536786.5816946,42.300062831273465,-83.69795704528411,236.24403381347656,0.7261468299104538,0.6875355450562401,0.0008353901090925356,-0.002226615948609941,-0.015500000000000002,-0.0034100000000000007,0.027590000000000003,2.5547,-0.5883,-9.5463,5.733737121191282,12.826025915877628,28.489999771118164,16.56999969482422,16.90999984741211,21.799999237060547,23.13414249194584,13.454992527594452,13.731075786297227,17.70180037648613,17.005502795580913,0.32585907023074207,2.6000001430511475,44.650001525878906,0.0,440.0,0.0,0.0,0.0,snow covered,0.252878487110138,-6.82264423370361,100.0,500.625823974609
arenacam6_1769536786602292506.png,1769536786602292506,1769536786.6022925,42.30006386889204,-83.69795701570676,236.24696350097656,0.7263884803477787,0.6872811259097115,0.0009883273624416114,-0.0018581698922554841,-0.041960000000000004,-0.01162,0.034910000000000004,1.5812000000000002,0.0417,-9.5951,5.771849973419937,12.911282079541994,28.1299991607666,16.69999885559082,17.489999771118164,22.489999771118164,22.841818677134746,13.560553044729195,14.202041071945839,18.262087171945836,17.216624991438906,0.3334558787712301,2.6000001430511475,44.650001525878906,0.0,400.0,0.0,0.0,0.0,snow covered,0.252878487110138,-6.82264423370361,100.0,500.625823974609
arenacam6_1769536786624123392.png,1769536786624123392,1769536786.6241233,42.30006386889204,-83.69795701570676,236.24696350097656,0.7265975223755374,0.6870600848047482,0.0013258049244501313,-0.001650026401244145,-0.039720000000000005,0.016050000000000002,0.029160000000000005,2.1435,-0.0669,-9.7368,5.806991557583961,12.989891694821868,28.170000076293945,17.020000457763672,17.739999771118164,23.65999984741211,22.874299789351387,13.820397296108322,14.405043376945839,19.212138021297225,17.577969620925693,0.35320370899880255,2.6000001430511475,44.85000228881836,0.0,380.0,0.0,0.0,0.0,snow covered,0.252878487110138,-6.82264423370361,100.0,500.625823974609
arenacam6_1769536786643571527.png,1769536786643571527,1769536786.6435714,42.30006596078499,-83.69795695245278,236.25340270996094,0.7269296478369166,0.6867081964211896,0.0018649353502093464,-0.0012892167361130847,-0.04996000000000001,0.010330000000000002,0.027680000000000003,1.5413000000000001,-0.2937,-10.001900000000001,5.858095145568616,13.104207354928262,28.44999885559082,17.170000076293945,17.170000076293945,24.51999855041504,23.101661379729194,13.942198369351386,13.942198369351386,19.910464897323646,17.724130753938905,0.3525526782261402,2.700000047683716,44.5,0.0,380.0,0.0,0.0,0.0,snow covered,0.252878487110138,-6.82264423370361,100.0,500.625823974609
arenacam6_1769536786664679059.png,1769536786664679059,1769536786.664679,42.300067018153726,-83.69795691930895,236.25631713867188,0.7270108234933937,0.6866215174861101,0.002179721524434226,-0.0011845094362086187,-0.05849000000000001,0.03143,0.023610000000000006,1.5907,0.2972,-9.9742,5.873476930202161,13.138615484246422,29.3799991607666,17.40999984741211,17.10999870300293,25.25,23.856830202134745,14.137080396297227,13.89347670102642,20.503232805,18.097655026114598,0.37744003908282475,3.1000001430511475,44.57500076293945,0.0,380.0,0.0,0.0,0.0,snow covered,0.252878487110138,-6.82264423370361,100.0,500.625823974609
arenacam6_1769536786687212888.png,1769536786687212888,1769536786.6872127,42.30006808368797,-83.69795688044414,236.25999450683594,0.7271880786025188,0.6864322373807239,0.002674200658712471,-0.001063237371085823,-0.033800000000000004,0.03128000000000001,0.020300000000000002,2.2995,0.8171,-10.226,5.913471771157915,13.228081543773987,30.329999923706055,17.559999465942383,17.260000228881836,25.760000228881836,24.628239580648614,14.258881469540292,14.01527932305416,20.917357693054164,18.454939516574306,0.39513348594834036,3.5,44.57500076293945,0.0,316.0,0.0,0.0,0.0,snow covered,0.252878487110138,-6.82264423370361,100.0,500.625823974609
arenacam6_1769536786706339459.png,1769536786706339459,1769536786.7063396,42.30006808368797,-83.69795688044414,236.25999450683594,0.7273246476648513,0.6862861248960421,0.0030975249241402,-0.0007855022078964405,-0.06066000000000001,0.012480000000000002,0.023170000000000003,1.9281000000000001,-1.1236000000000002,-10.2501,5.955691487780527,13.322524516675772,31.189998626708984,17.59000015258789,17.260000228881836,25.979999542236328,25.326566456675035,14.283242303702774,14.01527932305416,21.09599916389168,18.680271811830913,0.40215706028154513,3.9000000953674316,44.35000228881836,0.0,340.0,0.0,0.0,0.0,snow covered,0.252878487110138,-6.82264423370361,100.0,500.625823974609
arenacam6_1769536786727130040.png,1769536786727130040,1769536786.7271302,42.30007022722134,-83.69795681030428,236.26663208007812,0.7275610242319915,0.6860309964130928,0.004049380102545377,-0.00017464174566794437,-0.06291000000000001,0.019850000000000003,0.021930000000000005,2.2116000000000002,0.7377,-8.896,6.01507998671609,13.455373025484691,32.2599983215332,17.670000076293945,17.420000076293945,25.989999771118164,26.195416074269485,14.348202979351388,14.145200674351388,21.104119441945837,18.948234792479525,0.4082281298772814,4.400000095367432,44.29999923706055,0.0,352.0,0.0,0.0,0.0,snow covered,0.252878487110138,-6.82264423370361,100.0,500.625823974609
arenacam6_1769536786747027141.png,1769536786747027141,1769536786.7470272,42.30007131543763,-83.69795677259671,236.26988220214844,0.7276992173096088,0.685881432132507,0.0045254536268128035,0.0001745059184396921,-0.06134000000000001,0.006860000000000001,0.01607,2.236,-0.7041000000000001,-9.483600000000001,6.060984977055461,13.558059734574444,33.02000045776367,17.639999389648438,17.969999313354492,25.6299991607666,26.812544816108325,14.323842145188904,14.591805125837517,20.811795627134742,19.13499692856737,0.411337411338524,4.900000095367432,44.67499923706055,0.0,380.0,0.0,0.0,0.0,snow covered,0.252878487110138,-6.82264423370361,100.0,500.625823974609
arenacam6_1769536786767659556.png,1769536786767659556,1769536786.7676594,42.30007240233896,-83.69795673374676,236.2733612060547,0.7278816334464586,0.6856838994196476,0.005037920254618352,0.0007328898211212648,-0.07643,0.0020700000000000002,0.026860000000000005,1.4462000000000002,0.5559000000000001,-9.9245,6.077823592525737,13.595726707064523,34.0,17.6299991607666,18.600000381469727,24.920000076293945,27.60831348,14.315721867134743,15.103371801756936,20.235269824351388,19.315669243310765,0.42071620439928986,5.200000286102295,44.29999923706055,0.0,524.0,0.0,0.0,0.0,snow covered,0.252878487110138,-6.82264423370361,100.0,500.625823974609
arenacam6_1769536786788510443.png,1769536786788510443,1769536786.7885106,42.30007240233896,-83.69795673374676,236.2733612060547,0.7279595027980009,0.6855989594518801,0.005298246595801815,0.0009786049237000215,-0.07145000000000001,0.0041600000000000005,0.022710000000000004,2.2585,0.24480000000000002,-9.5645,6.113366949356078,13.675235063692586,33.57999801635742,18.690000534057617,18.59000015258789,24.829999923706055,27.26726799686394,15.17645275545971,15.095251523702775,20.162188870648613,19.425290286668762,0.4204721305480468,5.5,44.47500228881836,0.0,580.0,0.0,0.0,0.0,snow covered,0.252878487110138,-6.82264423370361,100.0,500.625823974609
arenacam6_1769536786809136306.png,1769536786809136306,1769536786.8091364,42.30007461313933,-83.69795665480505,236.279541015625,0.728175213755457,0.6853645309065823,0.005739988109843676,0.001835860532200974,-0.04681000000000001,-0.018580000000000003,0.022310000000000003,1.6635,0.9032,-9.8533,6.1764178230656155,13.816276085128399,32.98999786376953,18.65999984741211,17.8799991607666,25.03999900817871,26.788182433161165,15.152091921297227,14.518724172134743,20.332710063431968,19.197927147506277,0.38951531000242495,6.0,44.47500228881836,0.0,652.0,0.0,0.0,0.0,snow covered,0.252878487110138,-6.82264423370361,100.0,500.625823974609
arenacam6_1769536786850480304.png,1769536786850480304,1769536786.8504803,42.300076844252146,-83.69795657362353,236.2855224609375,0.7283959276018886,0.6851236580374498,0.006128788760978037,0.0027173146101995885,-0.05296000000000001,-0.012270000000000001,0.020190000000000003,2.5554,-0.1656,-9.008700000000001,6.25200593158293,13.98536214859512,32.290000915527344,18.420000076293945,18.229999542236328,24.689998626708984,26.219778457216645,14.957209894351388,14.802927708891678,20.048506526675034,19.007105646783685,0.3590713951367371,7.099999904632568,44.47500228881836,0.0,628.0,0.0,0.0,0.0,snow covered,0.252878487110138,-6.82264423370361,100.0,500.625823974609
arenacam6_1769536786871138449.png,1769536786871138449,1769536786.8711386,42.30007797300232,-83.69795653435533,236.288330078125,0.7285428382841559,0.6849620336301707,0.0063491292078905375,0.003468980886192122,-0.07765,-0.035140000000000005,0.017470000000000003,0.9549000000000001,-0.9011,-9.1681,6.283182599309694,14.055102483699828,31.76999855041504,18.19999885559082,18.440000534057617,24.31999969482422,25.797531742323645,14.778566874729195,14.97345045045971,19.748063982594452,18.82440326252675,0.3393287800183627,7.900000095367432,44.47500228881836,0.0,620.0,0.0,0.0,0.0,snow covered,0.252878487110138,-6.82264423370361,100.0,500.625823974609
