image_filename,timestamp_ns,timestamp_sec,latitude,longitude,altitude,orientation_x,orientation_y,orientation_z,orientation_w,angular_velocity_x,angular_velocity_y,angular_velocity_z,linear_acceleration_x,linear_acceleration_y,linear_acceleration_z,vehicle_speed_mps,vehicle_speed_mph,wheel_speed_fl_rads,wheel_speed_fr_rads,wheel_speed_rl_rads,wheel_speed_rr_rads,wheel_speed_fl_mph,wheel_speed_fr_mph,wheel_speed_rl_mph,wheel_speed_rr_mph,avg_wheel_speed_mph,wheel_slip,steering_angle_deg,throttle_pedal,brake_pedal,brake_torque_actual,abs_active,esc_active,trac_active,marwis_road_condition,marwis_friction,marwis_surface_temp_c,marwis_ice_percent,marwis_water_film_height
arenacam6_1769616035461242365.png,1769616035461242365,1769616035.4612424,42.3010712634707,-83.69745016915333,239.0604705810547,0.707708207867739,0.7063246497216141,0.011022253360697514,0.01153653514383065,0.03928,-0.021,-0.0175,1.4514,1.2366000000000001,-9.606200000000001,0.8869933490501982,1.9841509022243506,18.239999771118164,14.90999984741211,16.219999313354492,2.740000009536743,14.811047986945841,12.107057346297227,13.170788990837517,2.2249052705439234,10.578449898656126,4.331474479484932,-1.5,40.650001525878906,0.0,372.0,0.0,0.0,0.0,snow covered,0.250002771615982,-8.0164737701416,100.0,476.883514404297
arenacam6_1769616035481646864.png,1769616035481646864,1769616035.4816468,42.3010712634707,-83.69745016915333,239.0604705810547,0.707708207867739,0.7063246497216141,0.011022253360697514,0.01153653514383065,0.03928,-0.021,-0.0175,1.4514,1.2366000000000001,-9.606200000000001,0.8869933490501982,1.9841509022243506,18.239999771118164,14.90999984741211,16.219999313354492,2.740000009536743,14.811047986945841,12.107057346297227,13.170788990837517,2.2249052705439234,10.578449898656126,4.331474479484932,-1.5,40.650001525878906,0.0,372.0,0.0,0.0,0.0,snow covered,0.250002771615982,-8.0164737701416,100.0,476.883514404297
arenacam6_1769616035500451690.png,1769616035500451690,1769616035.5004516,42.3010712634707,-83.69745016915333,239.0604705810547,0.707708207867739,0.7063246497216141,0.011022253360697514,0.01153653514383065,0.03928,-0.021,-0.0175,1.4514,1.2366000000000001,-9.606200000000001,0.8869933490501982,1.9841509022243506,18.239999771118164,14.90999984741211,16.219999313354492,2.740000009536743,14.811047986945841,12.107057346297227,13.170788990837517,2.2249052705439234,10.578449898656126,4.331474479484932,-1.5,40.650001525878906,0.0,372.0,0.0,0.0,0.0,snow covered,0.250002771615982,-8.0164737701416,100.0,476.883514404297
arenacam6_1769616035521303373.png,1769616035521303373,1769616035.5213032,42.3010712634707,-83.69745016915333,239.0604705810547,0.707708207867739,0.7063246497216141,0.011022253360697514,0.01153653514383065,0.03928,-0.021,-0.0175,1.4514,1.2366000000000001,-9.606200000000001,0.8869933490501982,1.9841509022243506,18.239999771118164,14.90999984741211,16.219999313354492,2.740000009536743,14.811047986945841,12.107057346297227,13.170788990837517,2.2249052705439234,10.578449898656126,4.331474479484932,-1.5,40.650001525878906,0.0,372.0,0.0,0.0,0.0,snow covered,0.250002771615982,-8.0164737701416,100.0,476.883514404297
arenacam6_1769616035541956478.png,1769616035541956478,1769616035.5419564,42.3010712634707,-83.69745016915333,239.0604705810547,0.707708207867739,0.7063246497216141,0.011022253360697514,0.01153653514383065,0.03928,-0.021,-0.0175,1.4514,1.2366000000000001,-9.606200000000001,0.8869933490501982,1.9841509022243506,18.239999771118164,14.90999984741211,16.219999313354492,2.740000009536743,14.811047986945841,12.107057346297227,13.170788990837517,2.2249052705439234,10.578449898656126,4.331474479484932,-1.5,40.650001525878906,0.0,372.0,0.0,0.0,0.0,snow covered,0.250002771615982,-8.0164737701416,100.0,476.883514404297
arenacam6_1769616035562719455.png,1769616035562719455,1769616035.5627196,42.3010712634707,-83.69745016915333,239.0604705810547,0.707708207867739,0.7063246497216141,0.011022253360697514,0.01153653514383065,0.03928,-0.021,-0.0175,1.4514,1.2366000000000001,-9.606200000000001,0.8869933490501982,1.9841509022243506,18.239999771118164,14.90999984741211,16.219999313354492,2.740000009536743,14.811047986945841,12.107057346297227,13.170788990837517,2.2249052705439234,10.578449898656126,4.331474479484932,-1.5,40.650001525878906,0.0,372.0,0.0,0.0,0.0,snow covered,0.250002771615982,-8.0164737701416,100.0,476.883514404297
arenacam6_1769616035583235474.png,1769616035583235474,1769616035.5832355,42.3010712634707,-83.69745016915333,239.0604705810547,0.707708207867739,0.7063246497216141,0.011022253360697514,0.01153653514383065,0.03928,-0.021,-0.0175,1.4514,1.2366000000000001,-9.606200000000001,0.8869933490501982,1.9841509022243506,18.239999771118164,14.90999984741211,16.219999313354492,2.740000009536743,14.811047986945841,12.107057346297227,13.170788990837517,2.2249052705439234,10.578449898656126,4.331474479484932,-1.5,40.650001525878906,0.0,372.0,0.0,0.0,0.0,snow covered,0.250002771615982,-8.0164737701416,100.0,476.883514404297
arenacam6_1769616035604028156.png,1769616035604028156,1769616035.6040282,42.3010712634707,-83.69745016915333,239.0604705810547,0.707708207867739,0.7063246497216141,0.011022253360697514,0.01153653514383065,0.03928,-0.021,-0.0175,1.4514,1.2366000000000001,-9.606200000000001,0.8869933490501982,1.9841509022243506,18.239999771118164,14.90999984741211,16.219999313354492,2.740000009536743,14.811047986945841,12.107057346297227,13.170788990837517,2.2249052705439234,10.578449898656126,4.331474479484932,-1.5,40.650001525878906,0.0,372.0,0.0,0.0,0.0,snow covered,0.250002771615982,-8.0164737701416,100.0,476.883514404297
arenacam6_1769616035624830582.png,1769616035624830582,1769616035.6248305,42.3010712634707,-83.69745016915333,239.0604705810547,0.707708207867739,0.7063246497216141,0.011022253360697514,0.01153653514383065,0.03928,-0.021,-0.0175,1.4514,1.2366000000000001,-9.606200000000001,0.8869933490501982,1.9841509022243506,18.239999771118164,14.90999984741211,16.219999313354492,2.740000009536743,14.811047986945841,12.107057346297227,13.170788990837517,2.2249052705439234,10.578449898656126,4.331474479484932,-1.5,40.650001525878906,0.0,372.0,0.0,0.0,0.0,snow covered,0.250002771615982,-8.0164737701416,100.0,476.883514404297
arenacam6_1769616035645354744.png,1769616035645354744,1769616035.6453547,42.3010712634707,-83.69745016915333,239.0604705810547,0.707708207867739,0.7063246497216141,0.011022253360697514,0.01153653514383065,0.03928,-0.021,-0.0175,1.4514,1.2366000000000001,-9.606200000000001,0.8869933490501982,1.9841509022243506,18.239999771118164,14.90999984741211,16.219999313354492,2.740000009536743,14.811047986945841,12.107057346297227,13.170788990837517,2.2249052705439234,10.578449898656126,4.331474479484932,-1.5,40.650001525878906,0.0,372.0,0.0,0.0,0.0,snow covered,0.250002771615982,-8.0164737701416,100.0,476.883514404297
arenacam6_1769616035665957096.png,1769616035665957096,1769616035.6659572,42.3010712634707,-83.69745016915333,239.0604705810547,0.707708207867739,0.7063246497216141,0.011022253360697514,0.01153653514383065,0.03928,-0.021,-0.0175,1.4514,1.2366000000000001,-9.606200000000001,0.8869933490501982,1.9841509022243506,18.239999771118164,14.90999984741211,16.219999313354492,2.740000009536743,14.811047986945841,12.107057346297227,13.170788990837517,2.2249052705439234,10.578449898656126,4.331474479484932,-1.5,40.650001525878906,0.0,372.0,0.0,0.0,0.0,snow covered,0.250002771615982,-8.0164737701416,100.0,476.883514404297
arenacam6_1769616035686939237.png,1769616035686939237,1769616035.6869392,42.3010712634707,-83.69745016915333,239.0604705810547,0.707708207867739,0.7063246497216141,0.011022253360697514,0.01153653514383065,0.03928,-0.021,-0.0175,1.4514,1.2366000000000001,-9.606200000000001,0.8869933490501982,1.9841509022243506,18.239999771118164,14.90999984741211,16.219999313354492,2.740000009536743,14.811047986945841,12.107057346297227,13.170788990837517,2.2249052705439234,10.578449898656126,4.331474479484932,-1.5,40.650001525878906,0.0,372.0,0.0,0.0,0.0,snow covered,0.250002771615982,-8.0164737701416,100.0,476.883514404297
arenacam6_1769616035707445481.png,1769616035707445481,1769616035.7074456,42.3010712634707,-83.69745016915333,239.0604705810547,0.707708207867739,0.7063246497216141,0.011022253360697514,0.01153653514383065,0.03928,-0.021,-0.0175,1.4514,1.2366000000000001,-9.606200000000001,0.8869933490501982,1.9841509022243506,18.239999771118164,14.90999984741211,16.219999313354492,2.740000009536743,14.811047986945841,12.107057346297227,13.170788990837517,2.2249052705439234,10.578449898656126,4.331474479484932,-1.5,40.650001525878906,0.0,372.0,0.0,0.0,0.0,snow covered,0.250002771615982,-8.0164737701416,100.0,476.883514404297
arenacam6_1769616035728096863.png,1769616035728096863,1769616035.7280967,42.3010712634707,-83.69745016915333,239.0604705810547,0.707708207867739,0.7063246497216141,0.011022253360697514,0.01153653514383065,0.03928,-0.021,-0.0175,1.4514,1.2366000000000001,-9.606200000000001,0.8869933490501982,1.9841509022243506,18.239999771118164,14.90999984741211,16.219999313354492,2.740000009536743,14.811047986945841,12.107057346297227,13.170788990837517,2.2249052705439234,10.578449898656126,4.331474479484932,-1.5,40.650001525878906,0.0,372.0,0.0,0.0,0.0,snow covered,0.250002771615982,-8.0164737701416,100.0,476.883514404297
arenacam6_1769616035748881569.png,1769616035748881569,1769616035.7488816,42.3010712634707,-83.69745016915333,239.0604705810547,0.707708207867739,0.7063246497216141,0.011022253360697514,0.01153653514383065,0.03928,-0.021,-0.0175,1.4514,1.2366000000000001,-9.606200000000001,0.8869933490501982,1.9841509022243506,18.239999771118164,14.90999984741211,16.219999313354492,2.740000009536743,14.811047986945841,12.107057346297227,13.170788990837517,2.2249052705439234,10.578449898656126,4.331474479484932,-1.5,40.650001525878906,0.0,372.0,0.0,0.0,0.0,snow covered,0.250002771615982,-8.0164737701416,100.0,476.883514404297
arenacam6_1769616035769726477.png,1769616035769726477,1769616035.7697265,42.3010712634707,-83.69745016915333,239.0604705810547,0.707708207867739,0.7063246497216141,0.011022253360697514,0.01153653514383065,0.03928,-0.021,-0.0175,1.4514,1.2366000000000001,-9.606200000000001,0.8869933490501982,1.9841509022243506,18.239999771118164,14.90999984741211,16.219999313354492,2.740000009536743,14.811047986945841,12.107057346297227,13.170788990837517,2.2249052705439234,10.578449898656126,4.331474479484932,-1.5,40.650001525878906,0.0,372.0,0.0,0.0,0.0,snow covered,0.250002771615982,-8.0164737701416,100.0,476.883514404297
arenacam6_1769616035790262083.png,1769616035790262083,1769616035.790262,42.3010712634707,-83.69745016915333,239.0604705810547,0.707708207867739,0.7063246497216141,0.011022253360697514,0.01153653514383065,0.03928,-0.021,-0.0175,1.4514,1.2366000000000001,-9.606200000000001,0.8869933490501982,1.9841509022243506,18.239999771118164,14.90999984741211,16.219999313354492,2.740000009536743,14.811047986945841,12.107057346297227,13.170788990837517,2.2249052705439234,10.578449898656126,4.331474479484932,-1.5,40.650001525878906,0.0,372.0,0.0,0.0,0.0,snow covered,0.250002771615982,-8.0164737701416,100.0,476.883514404297
arenacam6_1769616035810873008.png,1769616035810873008,1769616035.810873,42.3010712634707,-83.69745016915333,239.0604705810547,0.707708207867739,0.7063246497216141,0.011022253360697514,0.01153653514383065,0.03928,-0.021,-0.0175,1.4514,1.2366000000000001,-9.606200000000001,0.8869933490501982,1.9841509022243506,18.239999771118164,14.90999984741211,16.219999313354492,2.740000009536743,14.811047986945841,12.107057346297227,13.170788990837517,2.2249052705439234,10.578449898656126,4.331474479484932,-1.5,40.650001525878906,0.0,372.0,0.0,0.0,0.0,snow covered,0.250002771615982,-8.0164737701416,100.0,476.883514404297
arenacam6_1769616035831425465.png,1769616035831425465,1769616035.8314254,42.3010712634707,-83.69745016915333,239.0604705810547,0.707708207867739,0.7063246497216141,0.011022253360697514,0.01153653514383065,0.03928,-0.021,-0.0175,1.4514,1.2366000000000001,-9.606200000000001,0.8869933490501982,1.9841509022243506,18.239999771118164,14.90999984741211,16.219999313354492,2.740000009536743,14.811047986945841,12.107057346297227,13.170788990837517,2.2249052705439234,10.578449898656126,4.331474479484932,-1.5,40.650001525878906,0.0,372.0,0.0,0.0,0.0,snow covered,0.250002771615982,-8.0164737701416,100.0,476.883514404297
arenacam6_1769616035852142984.png,1769616035852142984,1769616035.852143,42.3010712634707,-83.69745016915333,239.0604705810547,0.707708207867739,0.7063246497216141,0.011022253360697514,0.01153653514383065,0.03928,-0.021,-0.0175,1.4514,1.2366000000000001,-9.606200000000001,0.8869933490501982,1.9841509022243506,18.239999771118164,14.90999984741211,16.219999313354492,2.740000009536743,14.811047986945841,12.107057346297227,13.170788990837517,2.2249052705439234,10.578449898656126,4.331474479484932,-1.5,40.650001525878906,0.0,372.0,0.0,0.0,0.0,snow covered,0.250002771615982,-8.0164737701416,100.0,476.883514404297
arenacam6_1769616035872882869.png,1769616035872882869,1769616035.8728828,42.3010712634707,-83.69745016915333,239.0604705810547,0.707708207867739,0.7063246497216141,0.011022253360697514,0.01153653514383065,0.03928,-0.021,-0.0175,1.4514,1.2366000000000001,-9.606200000000001,0.8869933490501982,1.9841509022243506,18.239999771118164,14.90999984741211,16.219999313354492,2.740000009536743,14.811047986945841,12.107057346297227,13.170788990837517,2.2249052705439234,10.578449898656126,4.331474479484932,-1.5,40.650001525878906,0.0,372.0,0.0,0.0,0.0,snow covered,0.250002771615982,-8.0164737701416,100.0,476.883514404297
arenacam6_1769616035893622658.png,1769616035893622658,1769616035.8936229,42.3010712634707,-83.69745016915333,239.0604705810547,0.707708207867739,0.7063246497216141,0.011022253360697514,0.01153653514383065,0.03928,-0.021,-0.0175,1.4514,1.2366000000000001,-9.606200000000001,0.8869933490501982,1.9841509022243506,18.239999771118164,14.90999984741211,16.219999313354492,2.740000009536743,14.811047986945841,12.107057346297227,13.170788990837517,2.2249052705439234,10.578449898656126,4.331474479484932,-1.5,40.650001525878906,0.0,372.0,0.0,0.0,0.0,snow covered,0.250002771615982,-8.0164737701416,100.0,476.883514404297
arenacam6_1769616035914509617.png,1769616035914509617,1769616035.9145095,42.3010712634707,-83.69745016915333,239.0604705810547,0.707708207867739,0.7063246497216141,0.011022253360697514,0.01153653514383065,0.03928,-0.021,-0.0175,1.4514,1.2366000000000001,-9.606200000000001,0.8869933490501982,1.9841509022243506,18.239999771118164,14.90999984741211,16.219999313354492,2.740000009536743,14.811047986945841,12.107057346297227,13.170788990837517,2.2249052705439234,10.578449898656126,4.331474479484932,-1.5,40.650001525878906,0.0,372.0,0.0,0.0,0.0,snow covered,0.250002771615982,-8.0164737701416,100.0,476.883514404297
arenacam6_1769616035935151046.png,1769616035935151046,1769616035.935151,42.3010712634707,-83.69745016915333,239.0604705810547,0.707708207867739,0.7063246497216141,0.011022253360697514,0.01153653514383065,0.03928,-0.021,-0.0175,1.4514,1.2366000000000001,-9.606200000000001,0.8869933490501982,1.9841509022243506,18.239999771118164,14.90999984741211,16.219999313354492,2.740000009536743,14.811047986945841,12.107057346297227,13.170788990837517,2.2249052705439234,10.578449898656126,4.331474479484932,-1.5,40.650001525878906,0.0,372.0,0.0,0.0,0.0,snow covered,0.250002771615982,-8.0164737701416,100.0,476.883514404297
arenacam6_1769616035955689036.png,1769616035955689036,1769616035.955689,42.3010712634707,-83.69745016915333,239.0604705810547,0.707708207867739,0.7063246497216141,0.011022253360697514,0.01153653514383065,0.03928,-0.021,-0.0175,1.4514,1.2366000000000001,-9.606200000000001,0.8869933490501982,1.9841509022243506,18.239999771118164,14.90999984741211,16.219999313354492,2.740000009536743,14.811047986945841,12.107057346297227,13.170788990837517,2.2249052705439234,10.578449898656126,4.331474479484932,-1.5,40.650001525878906,0.0,372.0,0.0,0.0,0.0,snow covered,0.250002771615982,-8.0164737701416,100.0,476.883514404297
arenacam6_1769616035976560317.png,1769616035976560317,1769616035.9765604,42.3010712634707,-83.69745016915333,239.0604705810547,0.707708207867739,0.7063246497216141,0.011022253360697514,0.01153653514383065,0.03928,-0.021,-0.0175,1.4514,1.2366000000000001,-9.606200000000001,0.8869933490501982,1.9841509022243506,18.239999771118164,14.90999984741211,16.219999313354492,2.740000009536743,14.811047986945841,12.107057346297227,13.170788990837517,2.2249052705439234,10.578449898656126,4.331474479484932,-1.5,40.650001525878906,0.0,372.0,0.0,0.0,0.0,snow covered,0.250002771615982,-8.0164737701416,100.0,476.883514404297
arenacam6_1769616035997012724.png,1769616035997012724,1769616035.9970129,42.3010712634707,-83.69745016915333,239.0604705810547,0.707708207867739,0.7063246497216141,0.011022253360697514,0.01153653514383065,0.03928,-0.021,-0.0175,1.4514,1.2366000000000001,-9.606200000000001,0.8869933490501982,1.9841509022243506,18.239999771118164,14.90999984741211,16.219999313354492,2.740000009536743,14.811047986945841,12.107057346297227,13.170788990837517,2.2249052705439234,10.578449898656126,4.331474479484932,-1.5,40.650001525878906,0.0,372.0,0.0,0.0,0.0,snow covered,0.250002771615982,-8.0164737701416,100.0,476.883514404297
arenacam6_1769616036017773344.png,1769616036017773344,1769616036.0177734,42.3010712634707,-83.69745016915333,239.0604705810547,0.707708207867739,0.7063246497216141,0.011022253360697514,0.01153653514383065,0.03928,-0.021,-0.0175,1.4514,1.2366000000000001,-9.606200000000001,0.8869933490501982,1.9841509022243506,18.239999771118164,14.90999984741211,16.219999313354492,2.740000009536743,14.811047986945841,12.107057346297227,13.170788990837517,2.2249052705439234,10.578449898656126,4.331474479484932,-1.5,40.650001525878906,0.0,372.0,0.0,0.0,0.0,snow covered,0.250002771615982,-8.0164737701416,100.0,476.883514404297
arenacam6_1769616036038517816.png,1769616036038517816,1769616036.0385177,42.3010712634707,-83.69745016915333,239.0604705810547,0.707708207867739,0.7063246497216141,0.011022253360697514,0.01153653514383065,0.03928,-0.021,-0.0175,1.4514,1.2366000000000001,-9.606200000000001,0.8869933490501982,1.9841509022243506,18.239999771118164,14.90999984741211,16.219999313354492,2.740000009536743,14.811047986945841,12.107057346297227,13.170788990837517,2.2249052705439234,10.578449898656126,4.331474479484932,-1.5,40.650001525878906,0.0,372.0,0.0,0.0,0.0,snow covered,0.250002771615982,-8.0164737701416,100.0,476.883514404297
arenacam6_1769616036059146620.png,1769616036059146620,1769616036.0591464,42.3010712634707,-83.69745016915333,239.0604705810547,0.707708207867739,0.7063246497216141,0.011022253360697514,0.01153653514383065,0.03928,-0.021,-0.0175,1.4514,1.2366000000000001,-9.606200000000001,0.8869933490501982,1.9841509022243506,18.239999771118164,14.90999984741211,16.219999313354492,2.740000009536743,14.811047986945841,12.107057346297227,13.170788990837517,2.2249052705439234,10.578449898656126,4.331474479484932,-1.5,40.650001525878906,0.0,372.0,0.0,0.0,0.0,snow covered,0.250002771615982,-8.0164737701416,100.0,476.883514404297
arenacam6_1769616036079838470.png,1769616036079838470,1769616036.0798385,42.3010712634707,-83.69745016915333,239.0604705810547,0.707708207867739,0.7063246497216141,0.011022253360697514,0.01153653514383065,0.03928,-0.021,-0.0175,1.4514,1.2366000000000001,-9.606200000000001,0.8869933490501982,1.9841509022243506,18.239999771118164,14.90999984741211,16.219999313354492,2.740000009536743,14.811047986945841,12.107057346297227,13.170788990837517,2.2249052705439234,10.578449898656126,4.331474479484932,-1.5,40.650001525878906,0.0,372.0,0.0,0.0,0.0,snow covered,0.250002771615982,-8.0164737701416,100.0,476.883514404297
arenacam6_1769616036100630723.png,1769616036100630723,1769616036.1006308,42.3010712634707,-83.69745016915333,239.0604705810547,0.707708207867739,0.7063246497216141,0.011022253360697514,0.01153653514383065,0.03928,-0.021,-0.0175,1.4514,1.2366000000000001,-9.606200000000001,0.8869933490501982,1.9841509022243506,18.239999771118164,14.90999984741211,16.219999313354492,2.740000009536743,14.811047986945841,12.107057346297227,13.170788990837517,2.2249052705439234,10.578449898656126,4.331474479484932,-1.5,40.650001525878906,0.0,372.0,0.0,0.0,0.0,snow covered,0.250002771615982,-8.0164737701416,100.0,476.883514404297
arenacam6_1769616036121253687.png,1769616036121253687,1769616036.1212537,42.3010712634707,-83.69745016915333,239.0604705810547,0.707708207867739,0.7063246497216141,0.011022253360697514,0.01153653514383065,0.03928,-0.021,-0.0175,1.4514,1.2366000000000001,-9.606200000000001,0.8869933490501982,1.9841509022243506,18.239999771118164,14.90999984741211,16.219999313354492,2.740000009536743,14.811047986945841,12.107057346297227,13.170788990837517,2.2249052705439234,10.578449898656126,4.331474479484932,-1.5,40.650001525878906,0.0,372.0,0.0,0.0,0.0,snow covered,0.250002771615982,-8.0164737701416,100.0,476.883514404297
arenacam6_1769616036142028019.png,1769616036142028019,1769616036.142028,42.3010712634707,-83.69745016915333,239.0604705810547,0.707708207867739,0.7063246497216141,0.011022253360697514,0.01153653514383065,0.03928,-0.021,-0.0175,1.4514,1.2366000000000001,-9.606200000000001,0.8869933490501982,1.9841509022243506,18.239999771118164,14.90999984741211,16.219999313354492,2.740000009536743,14.811047986945841,12.107057346297227,13.170788990837517,2.2249052705439234,10.578449898656126,4.331474479484932,-1.5,40.650001525878906,0.0,372.0,0.0,0.0,0.0,snow covered,0.250002771615982,-8.0164737701416,100.0,476.883514404297
arenacam6_1769616036162638265.png,1769616036162638265,1769616036.1626384,42.3010712634707,-83.69745016915333,239.0604705810547,0.707708207867739,0.7063246497216141,0.011022253360697514,0.01153653514383065,0.03928,-0.021,-0.0175,1.4514,1.2366000000000001,-9.606200000000001,0.8869933490501982,1.9841509022243506,18.239999771118164,14.90999984741211,16.219999313354492,2.740000009536743,14.811047986945841,12.107057346297227,13.170788990837517,2.2249052705439234,10.578449898656126,4.331474479484932,-1.5,40.650001525878906,0.0,372.0,0.0,0.0,0.0,snow covered,0.250002771615982,-8.0164737701416,100.0,476.883514404297
arenacam6_1769616036183301249.png,1769616036183301249,1769616036.1833014,42.3010712634707,-83.69745016915333,239.0604705810547,0.707708207867739,0.7063246497216141,0.011022253360697514,0.01153653514383065,0.03928,-0.021,-0.0175,1.4514,1.2366000000000001,-9.606200000000001,0.8869933490501982,1.9841509022243506,18.239999771118164,14.90999984741211,16.219999313354492,2.740000009536743,14.811047986945841,12.107057346297227,13.170788990837517,2.2249052705439234,10.578449898656126,4.331474479484932,-1.5,40.650001525878906,0.0,372.0,0.0,0.0,0.0,snow covered,0.250002771615982,-8.0164737701416,100.0,476.883514404297
arenacam6_1769616036203934226.png,1769616036203934226,1769616036.2039342,42.3010712634707,-83.69745016915333,239.0604705810547,0.707708207867739,0.7063246497216141,0.011022253360697514,0.01153653514383065,0.03928,-0.021,-0.0175,1.4514,1.2366000000000001,-9.606200000000001,0.8869933490501982,1.9841509022243506,18.239999771118164,14.90999984741211,16.219999313354492,2.740000009536743,14.811047986945841,12.107057346297227,13.170788990837517,2.2249052705439234,10.578449898656126,4.331474479484932,-1.5,40.650001525878906,0.0,372.0,0.0,0.0,0.0,snow covered,0.250002771615982,-8.0164737701416,100.0,476.883514404297
arenacam6_1769616036224746039.png,1769616036224746039,1769616036.224746,42.3010712634707,-83.69745016915333,239.0604705810547,0.707708207867739,0.7063246497216141,0.011022253360697514,0.01153653514383065,0.03928,-0.021,-0.0175,1.4514,1.2366000000000001,-9.606200000000001,0.8869933490501982,1.9841509022243506,18.239999771118164,14.90999984741211,16.219999313354492,2.740000009536743,14.811047986945841,12.107057346297227,13.170788990837517,2.2249052705439234,10.578449898656126,4.331474479484932,-1.5,40.650001525878906,0.0,372.0,0.0,0.0,0.0,snow covered,0.250002771615982,-8.0164737701416,100.0,476.883514404297
arenacam6_1769616036245579615.png,1769616036245579615,1769616036.2455795,42.3010712634707,-83.69745016915333,239.0604705810547,0.707708207867739,0.7063246497216141,0.011022253360697514,0.01153653514383065,0.03928,-0.021,-0.0175,1.4514,1.2366000000000001,-9.606200000000001,0.8869933490501982,1.9841509022243506,18.239999771118164,14.90999984741211,16.219999313354492,2.740000009536743,14.811047986945841,12.107057346297227,13.170788990837517,2.2249052705439234,10.578449898656126,4.331474479484932,-1.5,40.650001525878906,0.0,372.0,0.0,0.0,0.0,snow covered,0.250002771615982,-8.0164737701416,100.0,476.883514404297
arenacam6_1769616036266040592.png,1769616036266040592,1769616036.2660406,42.3010712634707,-83.69745016915333,239.0604705810547,0.707708207867739,0.7063246497216141,0.011022253360697514,0.01153653514383065,0.03928,-0.021,-0.0175,1.4514,1.2366000000000001,-9.606200000000001,0.8869933490501982,1.9841509022243506,18.239999771118164,14.90999984741211,16.219999313354492,2.740000009536743,14.811047986945841,12.107057346297227,13.170788990837517,2.2249052705439234,10.578449898656126,4.331474479484932,-1.5,40.650001525878906,0.0,372.0,0.0,0.0,0.0,snow covered,0.250002771615982,-8.0164737701416,100.0,476.883514404297
arenacam6_1769616036286872650.png,1769616036286872650,1769616036.2868726,42.3010712634707,-83.69745016915333,239.0604705810547,0.707708207867739,0.7063246497216141,0.011022253360697514,0.01153653514383065,0.03928,-0.021,-0.0175,1.4514,1.2366000000000001,-9.606200000000001,0.8869933490501982,1.9841509022243506,18.239999771118164,14.90999984741211,16.219999313354492,2.740000009536743,14.811047986945841,12.107057346297227,13.170788990837517,2.2249052705439234,10.578449898656126,4.331474479484932,-1.5,40.650001525878906,0.0,372.0,0.0,0.0,0.0,snow covered,0.250002771615982,-8.0164737701416,100.0,476.883514404297
arenacam6_1769616036307418312.png,1769616036307418312,1769616036.3074183,42.3010712634707,-83.69745016915333,239.0604705810547,0.707708207867739,0.7063246497216141,0.011022253360697514,0.01153653514383065,0.03928,-0.021,-0.0175,1.4514,1.2366000000000001,-9.606200000000001,0.8869933490501982,1.9841509022243506,18.239999771118164,14.90999984741211,16.219999313354492,2.740000009536743,14.811047986945841,12.107057346297227,13.170788990837517,2.2249052705439234,10.578449898656126,4.331474479484932,-1.5,40.650001525878906,0.0,372.0,0.0,0.0,0.0,snow covered,0.250002771615982,-8.0164737701416,100.0,476.883514404297
arenacam6_1769616036328089761.png,1769616036328089761,1769616036.32809,42.3010712634707,-83.69745016915333,239.0604705810547,0.707708207867739,0.7063246497216141,0.011022253360697514,0.01153653514383065,0.03928,-0.021,-0.0175,1.4514,1.2366000000000001,-9.606200000000001,0.8869933490501982,1.9841509022243506,18.239999771118164,14.90999984741211,16.219999313354492,2.740000009536743,14.811047986945841,12.107057346297227,13.170788990837517,2.2249052705439234,10.578449898656126,4.331474479484932,-1.5,40.650001525878906,0.0,372.0,0.0,0.0,0.0,snow covered,0.250002771615982,-8.0164737701416,100.0,476.883514404297
arenacam6_1769616036348992930.png,1769616036348992930,1769616036.348993,42.3010712634707,-83.69745016915333,239.0604705810547,0.707708207867739,0.7063246497216141,0.011022253360697514,0.01153653514383065,0.03928,-0.021,-0.0175,1.4514,1.2366000000000001,-9.606200000000001,0.8869933490501982,1.9841509022243506,18.239999771118164,14.90999984741211,16.219999313354492,2.740000009536743,14.811047986945841,12.107057346297227,13.170788990837517,2.2249052705439234,10.578449898656126,4.331474479484932,-1.5,40.650001525878906,0.0,372.0,0.0,0.0,0.0,snow covered,0.250002771615982,-8.0164737701416,100.0,476.883514404297
arenacam6_1769616036390536669.png,1769616036390536669,1769616036.3905368,42.3010712634707,-83.69745016915333,239.0604705810547,0.707708207867739,0.7063246497216141,0.011022253360697514,0.01153653514383065,0.03928,-0.021,-0.0175,1.4514,1.2366000000000001,-9.606200000000001,0.8869933490501982,1.9841509022243506,19.520000457763672,17.520000457763672,16.219999313354492,3.059999942779541,15.850420346108324,14.226401906108324,13.170788990837517,2.48474816673646,11.433089852447656,4.762207823825539,-1.899999976158142,40.900001525878906,0.0,336.0,0.0,0.0,0.0,snow covered,0.250002771615982,-8.0164737701416,100.0,476.883514404297
arenacam6_1769616036411045028.png,1769616036411045028,1769616036.411045,42.3010712634707,-83.69745016915333,239.0604705810547,0.707708207867739,0.7063246497216141,0.011022253360697514,0.01153653514383065,0.03928,-0.021,-0.0175,1.4514,1.2366000000000001,-9.606200000000001,0.8869933490501982,1.9841509022243506,20.03999900817871,19.139999389648438,17.059999465942383,3.740000009536743,16.27266396343197,15.541855975188904,13.852876859540292,3.0369144905439236,12.176077822176271,5.136669246540759,-2.200000047683716,41.25,0.0,324.0,0.0,0.0,0.0,snow covered,0.250002771615982,-8.0164737701416,100.0,476.883514404297
arenacam6_1769616036431844718.png,1769616036431844718,1769616036.4318447,42.3010712634707,-83.69745016915333,239.0604705810547,0.707708207867739,0.7063246497216141,0.011022253360697514,0.01153653514383065,0.03928,-0.021,-0.0175,1.4514,1.2366000000000001,-9.606200000000001,0.8869933490501982,1.9841509022243506,19.8799991607666,19.939998626708984,17.6299991607666,5.409999847412109,16.142742612134743,16.191462731675035,14.315721867134743,4.392969756297226,12.760724241810436,5.431327490013441,-2.6000001430511475,41.17499923706055,0.0,400.0,0.0,0.0,0.0,snow covered,0.250002771615982,-8.0164737701416,100.0,476.883514404297
arenacam6_1769616036452420337.png,1769616036452420337,1769616036.4524202,42.3010712634707,-83.69745016915333,239.0604705810547,0.707708207867739,0.7063246497216141,0.011022253360697514,0.01153653514383065,0.03928,-0.021,-0.0175,1.4514,1.2366000000000001,-9.606200000000001,0.8869933490501982,1.9841509022243506,19.59000015258789,20.489999771118164,18.219999313354492,7.319999694824219,15.907260743702773,16.63806873194584,14.794807430837517,5.943907242594452,13.321011037270146,5.713708630899245,-2.799999952316284,41.54999923706055,0.0,400.0,0.0,0.0,0.0,snow covered,0.250002771615982,-8.0164737701416,100.0,476.883514404297
arenacam6_1769616036473132112.png,1769616036473132112,1769616036.4731321,42.3010712634707,-83.69745016915333,239.0604705810547,0.707708207867739,0.7063246497216141,0.011022253360697514,0.01153653514383065,0.03928,-0.021,-0.0175,1.4514,1.2366000000000001,-9.606200000000001,0.8869933490501982,1.9841509022243506,19.689998626708984,20.85999870300293,18.989999771118164,10.279999732971191,15.988460426675033,16.93851127602642,15.42005490194584,8.347454564770146,14.173620292354359,6.1434185154288885,-3.0,41.85000228881836,0.0,400.0,0.0,0.0,0.0,snow covered,0.250002771615982,-8.0164737701416,100.0,476.883514404297
arenacam6_1769616036493796507.png,1769616036493796507,1769616036.4937966,42.3010712634707,-83.69745016915333,239.0604705810547,0.707708207867739,0.7063246497216141,0.011022253360697514,0.01153653514383065,0.03928,-0.021,-0.0175,1.4514,1.2366000000000001,-9.606200000000001,0.8869933490501982,1.9841509022243506,19.369998931884766,20.600000381469727,20.18000030517578,13.519999504089355,15.728617724080582,16.727390241756936,16.38634630740555,10.978364251715986,14.955179631239762,6.537319673858536,-3.299999952316284,42.17499923706055,0.0,416.0,0.0,0.0,0.0,snow covered,0.250002771615982,-8.0164737701416,100.0,476.883514404297
arenacam6_1769616036535208088.png,1769616036535208088,1769616036.5352082,42.3010712634707,-83.69745016915333,239.0604705810547,-0.7062842073168583,-0.7077836506396175,-0.010040072722917239,-0.010203887581302425,-0.020820000000000005,0.021310000000000003,-0.019810000000000005,0.5219,0.6823,-9.5074,1.0846107300456391,2.4262091264682923,18.60999870300293,19.549999237060547,19.59000015258789,14.789999961853027,15.111490531026423,15.874779631486131,15.907260743702773,12.009616332824306,14.725786809759908,5.0694631180435294,-3.799999952316284,42.75,0.0,244.0,0.0,0.0,0.0,snow covered,0.250002771615982,-8.0164737701416,100.0,476.883514404297
arenacam6_1769616036555819325.png,1769616036555819325,1769616036.5558193,42.3010712634707,-83.69745016915333,239.0604705810547,-0.7060248946987056,-0.7080445792032733,-0.010167194267388737,-0.009917161250596737,0.008870000000000001,0.014780000000000003,-0.030060000000000007,0.9389000000000001,-0.7205,-9.874500000000001,1.1214082251420607,2.5085229151492814,18.549999237060547,19.219999313354492,18.690000534057617,15.149999618530273,15.06277041148613,15.606816650837517,15.17645275545971,12.301939373243066,14.536994797756606,4.795041659761563,-4.099999904632568,42.95000076293945,0.0,268.0,0.0,0.0,0.0,snow covered,0.250002771615982,-8.0164737701416,100.0,476.883514404297
arenacam6_1769616036576615815.png,1769616036576615815,1769616036.576616,42.3010712634707,-83.69745016915333,239.0604705810547,-0.7059597252705007,-0.7081093931551576,-0.010251085191088428,-0.00984219862828321,-0.0014100000000000002,0.022840000000000003,-0.01811,0.8395,-0.5637,-9.935500000000001,1.1297333846329225,2.52714579742077,18.68000030517578,18.899999618530273,17.770000457763672,15.9399995803833,15.16833247740555,15.346973948243065,14.429404211108324,12.943426626067373,14.472034315706077,4.726632128022206,-4.5,43.375,0.0,192.0,0.0,0.0,0.0,snow covered,0.250002771615982,-8.0164737701416,100.0,476.883514404297
arenacam6_1769616036597126034.png,1769616036597126034,1769616036.5971262,42.301073301217,-83.69745015532116,239.0638427734375,-0.7058390761805856,-0.7082324525834367,-0.010212219391413783,-0.009679990665750409,0.025860000000000005,0.0008800000000000001,-0.010130000000000002,1.2409000000000001,1.0518,-10.8955,1.170312376212475,2.617918566844734,18.56999969482422,18.479999542236328,16.75,15.719999313354492,15.079010967594453,15.005930013891678,13.601154435,12.764784380837519,14.112719949330913,4.390817013204645,-5.099999904632568,43.47500228881836,0.0,124.0,0.0,0.0,0.0,snow covered,0.250002771615982,-8.0164737701416,100.0,476.883514404297
arenacam6_1769616036617860729.png,1769616036617860729,1769616036.6178606,42.30107351538463,-83.69745015565611,239.06439208984375,-0.7057872402140575,-0.7082868358903897,-0.010087321251370325,-0.00961122288662487,0.027490000000000004,-0.007720000000000001,-0.015220000000000003,1.2046000000000001,-0.3607,-10.5288,1.1823378321613933,2.6448187902751075,18.420000076293945,18.010000228881836,15.229999542236328,15.380000114440918,14.957209894351388,14.624286238054161,12.36690004889168,12.48870189652708,13.609274519456077,4.145635901218198,-5.400000095367432,43.85000228881836,0.0,68.0,0.0,0.0,0.0,snow covered,0.250002771615982,-8.0164737701416,100.0,476.883514404297
arenacam6_1769616036659409427.png,1769616036659409427,1769616036.6594095,42.30107394794254,-83.6974501636935,239.0658721923828,-0.705687300543191,-0.70839097287484,-0.009783906714824374,-0.009588460298586447,0.017130000000000003,-0.016260000000000004,-0.006210000000000001,2.1905,0.4692,-10.2993,1.228065312451619,2.747108420035525,17.93000030517578,17.81999969482422,13.949999809265137,14.4399995803833,14.559325562405549,14.470004052594453,11.327528464121533,11.725412796067372,13.020567718797228,3.7397356521621554,-6.700000286102295,44.32500076293945,0.0,12.0,0.0,0.0,0.0,snow covered,0.250002771615982,-8.0164737701416,100.0,476.883514404297
arenacam6_1769616036680665007.png,1769616036680665007,1769616036.680665,42.30107440099061,-83.6974501703168,239.06814575195312,-0.7056351621795163,-0.708446276470221,-0.009266466380057464,-0.009850068639072392,0.00529,-0.031310000000000004,0.0003800000000000001,0.23450000000000001,-0.5696,-10.184800000000001,1.2518522775912502,2.8003184338349714,17.529998779296875,17.90999984741211,13.279999732971191,13.15999984741211,14.234520635377809,14.543085006297225,10.783482224770147,10.686041211297226,12.5617822694356,3.4858406521405962,-7.400000095367432,44.60000228881836,0.0,28.0,0.0,0.0,0.0,snow covered,0.250002771615982,-8.0164737701416,100.0,476.883514404297
arenacam6_1769616036700809234.png,1769616036700809234,1769616036.7008092,42.30107462993312,-83.69745017517877,239.06961059570312,-0.7056455712171174,-0.7084375964051601,-0.009009161807762782,-0.009966685751491766,0.01742,-0.016180000000000003,-0.0034300000000000003,1.4527,0.9895,-9.7011,1.2819505425897642,2.867646446740747,17.600000381469727,17.969999313354492,12.9399995803833,12.40999984741211,14.291362581756935,14.591805125837517,10.507398966067372,10.077034296297228,12.366900242489763,3.312561005051892,-7.800000190734863,44.875,0.0,32.0,0.0,0.0,0.0,snow covered,0.250002771615982,-8.0164737701416,100.0,476.883514404297
arenacam6_1769616036721585999.png,1769616036721585999,1769616036.721586,42.30107486736742,-83.69745017986591,239.07069396972656,-0.7056252851704685,-0.7084592059461962,-0.008805962611460405,-0.010048157078091324,0.016890000000000002,-0.03973000000000001,-0.006550000000000001,1.4424000000000001,-0.7187,-9.9686,1.2966571206209565,2.9005441794018427,17.809999465942383,18.0,12.149999618530273,12.039999961853027,14.461883774540292,14.61616596,9.865911713243065,9.776590977824307,12.180138106401916,3.199259639932026,-8.40000057220459,45.04999923706055,0.0,36.0,0.0,0.0,0.0,snow covered,0.250002771615982,-8.0164737701416,100.0,476.883514404297
arenacam6_1769616036742136981.png,1769616036742136981,1769616036.7421372,42.30107510335844,-83.69745017895674,239.07164001464844,-0.7056669572420007,-0.7084176043381539,-0.00863064650228957,-0.010205648512447473,0.0013200000000000002,-0.00075,0.0017500000000000003,0.8442000000000001,0.1454,-9.344100000000001,1.31055290622724,2.9316282180559625,17.90999984741211,17.94999885559082,11.34999942779541,11.779999732971191,14.543085006297225,14.575564569729195,9.216304182364599,9.565468394770146,11.975105538290293,3.084796791262738,-8.90000057220459,45.150001525878906,0.0,44.0,0.0,0.0,0.0,snow covered,0.250002771615982,-8.0164737701416,100.0,476.883514404297
arenacam6_1769616036762912176.png,1769616036762912176,1769616036.7629123,42.3010753415064,-83.69745018557354,239.0729217529297,-0.7056516241636862,-0.7084323783173183,-0.008605510748779799,-0.010261376689924735,-0.004220000000000001,-0.011350000000000002,-0.004430000000000001,1.4005,0.3997,-9.190800000000001,1.3247544235147253,2.9633961601370298,18.239999771118164,18.229999542236328,10.809999465942383,11.319999694824219,14.811047986945841,14.802927708891678,8.77781923454029,9.191944122594451,11.895934763243064,3.0142910769962614,-9.300000190734863,45.20000076293945,0.0,48.0,0.0,0.0,0.0,snow covered,0.250002771615982,-8.0164737701416,100.0,476.883514404297
arenacam6_1769616036783937937.png,1769616036783937937,1769616036.783938,42.3010753415064,-83.69745018557354,239.0729217529297,-0.7056692578022545,-0.7084151652415439,-0.008511309190842586,-0.010315515715129734,0.0034000000000000002,-0.012580000000000001,0.004240000000000001,0.5747,0.1807,-9.6501,1.3414455862220345,3.000733289643518,18.350000381469727,18.270000457763672,10.609999656677246,10.859999656677246,14.900369496756936,14.835408821108322,8.615417545418758,8.81841985041876,11.792403928425696,2.929840738970378,-9.699999809265137,45.25,0.0,52.0,0.0,0.0,0.0,snow covered,0.250002771615982,-8.0164737701416,100.0,476.883514404297
arenacam6_1769616036804448337.png,1769616036804448337,1769616036.8044484,42.301075833516194,-83.69745019289753,239.07424926757812,-0.7056852613693075,-0.7083990529212945,-0.008501210811411416,-0.010335527131456993,-0.004300000000000001,-0.00041000000000000005,0.0009100000000000001,0.625,0.12490000000000001,-9.4855,1.3536576115230192,3.0280508575203027,18.510000228881836,18.260000228881836,10.229999542236328,10.139999389648438,15.030290848054163,14.827288543054163,8.306853948891678,8.233772995188904,11.599551583797226,2.8306990633889817,-10.0,45.22500228881836,0.0,52.0,0.0,0.0,0.0,snow covered,0.250002771615982,-8.0164737701416,100.0,476.883514404297
arenacam6_1769616036845654237.png,1769616036845654237,1769616036.8456542,42.301076335210546,-83.69745020498185,239.07554626464844,-0.7057285004568034,-0.7083559541419964,-0.008650627718333161,-0.010212370667586219,-0.003920000000000001,0.00871,0.0051600000000000005,0.7252000000000001,0.2474,-9.8513,1.3912222649327173,3.1120807333185927,18.190000534057617,18.399999618530273,9.279999732971191,9.210000038146973,14.77044814545971,14.940969338243065,7.535445344770146,7.478604947175694,11.181366943912154,2.592891027601592,-10.40000057220459,45.25,0.0,52.0,0.0,0.0,0.0,snow covered,0.250002771615982,-8.0164737701416,100.0,476.883514404297
arenacam6_1769616036867012173.png,1769616036867012173,1769616036.867012,42.301076335210546,-83.69745020498185,239.07554626464844,-0.7057594633144925,-0.7083250252279412,-0.008726448419618749,-0.010153210125660783,-5.000000000000001e-05,0.010290000000000002,0.0030300000000000006,1.0058,0.1077,-9.7184,1.4091262861797182,3.152130954606859,18.190000534057617,18.350000381469727,8.9399995803833,9.309999465942383,14.77044814545971,14.900369496756936,7.259362086067371,7.559805404540291,11.122496283206077,2.5285641502141525,-10.5,45.10000228881836,0.0,52.0,0.0,0.0,0.0,snow covered,0.250002771615982,-8.0164737701416,100.0,476.883514404297
arenacam6_1769616036886867415.png,1769616036886867415,1769616036.8868675,42.30107684787312,-83.69745021863217,239.07647705078125,-0.7058129401280893,-0.708270401646235,-0.008889996545107165,-0.010104437690996435,-0.00833,0.006240000000000001,0.005230000000000001,0.8405,0.3607,-9.7049,1.438953766533243,3.218853238508873,18.279998779296875,18.329999923706055,8.90999984741211,9.210000038146973,14.843527550377807,14.884128940648614,7.235002026297226,7.478604947175694,11.110315866124836,2.4516379104229267,-10.600000381469727,45.07500076293945,0.0,48.0,0.0,0.0,0.0,snow covered,0.250002771615982,-8.0164737701416,100.0,476.883514404297
arenacam6_1769616036908114426.png,1769616036908114426,1769616036.9081144,42.30107684787312,-83.69745021863217,239.07647705078125,-0.7058209899899806,-0.7082619929865709,-0.00894111558240936,-0.01008641821443443,-0.004850000000000001,0.01007,0.0023600000000000006,0.7914,0.5598000000000001,-10.1546,1.447140223337403,3.237165851192371,18.389999389648438,18.1299991607666,8.84000015258789,8.679999351501465,14.932849060188905,14.721726477134743,7.1781616287027745,7.04823950301321,10.970244167259906,2.3888421760099656,-10.600000381469727,44.875,0.0,40.0,0.0,0.0,0.0,snow covered,0.250002771615982,-8.0164737701416,100.0,476.883514404297
arenacam6_1769616036928134443.png,1769616036928134443,1769616036.9281344,42.30107738228997,-83.69745022818496,239.07701110839844,-0.7058717656766708,-0.7082113836152633,-0.0090350156598664,-0.01000275113552639,0.0003800000000000001,0.0019000000000000002,0.005370000000000001,1.621,0.077,-9.453000000000001,1.4876536258087463,3.3277919017166173,18.59000015258789,18.31999969482422,8.579999923706055,8.0,15.095251523702775,14.876008662594453,6.9670390456486135,6.49607376,10.85859324798646,2.2630024859382387,-10.600000381469727,45.20000076293945,0.0,36.0,0.0,0.0,0.0,snow covered,0.250002771615982,-8.0164737701416,100.0,476.883514404297
arenacam6_1769616036949362541.png,1769616036949362541,1769616036.9493625,42.30107738228997,-83.69745022818496,239.07701110839844,-0.7058899481236587,-0.7081931655351675,-0.009024176187042517,-0.010019265013084627,-0.0006900000000000001,-0.0039000000000000007,0.005070000000000001,1.0746,0.46830000000000005,-9.7735,1.4985445355554412,3.352154213365389,18.31999969482422,18.399999618530273,8.399999618530273,8.039999961853027,14.876008662594453,14.940969338243065,6.820877138243064,6.528554097824307,10.79160230922622,2.219303654407955,-10.600000381469727,45.0,0.0,32.0,0.0,0.0,0.0,snow covered,0.250002771615982,-8.0164737701416,100.0,476.883514404297
arenacam6_1769616036970048503.png,1769616036970048503,1769616036.9700484,42.30107792917293,-83.69745024002688,239.0780487060547,-0.7059260940491113,-0.7081590624067216,-0.009013237610179798,-0.009892098846076447,0.005190000000000001,0.007250000000000001,0.0036100000000000004,1.2391,-0.16060000000000002,-9.8731,1.5231589871915936,3.4072152648083636,18.18000030517578,18.549999237060547,8.079999923706055,8.229999542236328,14.762327867405547,15.06277041148613,6.5610344356486126,6.682835508891679,10.767242055857992,2.160129671602533,-10.600000381469727,45.150001525878906,0.0,32.0,0.0,0.0,0.0,snow covered,0.250002771615982,-8.0164737701416,100.0,476.883514404297
arenacam6_1769616036991027844.png,1769616036991027844,1769616036.991028,42.30107820978444,-83.69745024353115,239.07830810546875,-0.7060138866219998,-0.7080725887090632,-0.008955770163506464,-0.00986890047179711,0.006910000000000001,-0.0010400000000000001,0.011920000000000002,1.1801000000000001,0.3035,-9.828000000000001,1.5501531655615253,3.4675996221711984,18.19999885559082,18.639999389648438,7.769999980926514,8.369999885559082,14.778566874729195,15.135851365188906,6.309311623912153,6.796517078472919,10.755061735575792,2.1015869498917614,-10.600000381469727,44.92499923706055,0.0,36.0,0.0,0.0,0.0,snow covered,0.250002771615982,-8.0164737701416,100.0,476.883514404297
arenacam6_1769616037011163069.png,1769616037011163069,1769616037.0111632,42.30107820978444,-83.69745024353115,239.07830810546875,-0.7060898273556298,-0.7079991388564192,-0.00887223762047762,-0.009780515480883201,0.010360000000000001,0.00248,0.009070000000000002,0.9161,-0.0945,-9.9448,1.5593465923647745,3.488164766324459,18.139999389648438,18.3799991607666,7.849999904632568,8.40999984741211,14.729846755188905,14.924728782134743,6.374272299560767,6.828997416297226,10.714461313295411,2.0716614698752975,-10.600000381469727,44.82500076293945,0.0,76.0,0.0,0.0,0.0,snow covered,0.250002771615982,-8.0164737701416,100.0,476.883514404297
arenacam6_1769616037052533013.png,1769616037052533013,1769616037.052533,42.301079073002036,-83.69745026540703,239.0799560546875,-0.7062252195016703,-0.7078642976217254,-0.008811011186305708,-0.009820467106698118,0.00017,-0.009380000000000001,0.014900000000000002,1.076,0.8341000000000001,-9.849300000000001,1.6208297473255406,3.625698894982395,18.529998779296875,17.81999969482422,8.25,7.87999963760376,15.046529855377807,14.470004052594453,6.699076065,6.398632359330912,10.653560583075793,1.9383467551095472,-10.5,44.650001525878906,0.0,68.0,0.0,0.0,0.0,snow covered,0.250002771615982,-8.0164737701416,100.0,476.883514404297
arenacam6_1769616037073684445.png,1769616037073684445,1769616037.0736845,42.30107966934974,-83.6974502857188,239.0814666748047,-0.7063428618929061,-0.7077508922192799,-0.008641343413286182,-0.009683139974522017,0.012700000000000001,0.004390000000000001,0.011020000000000002,1.2047,-0.3931,-10.0197,1.6491177552037783,3.6889774713255403,18.31999969482422,17.78999900817871,8.380000114440918,7.679999828338623,14.876008662594453,14.445643218431968,6.804637356527081,6.2362306702093795,10.59062997694072,1.8708849699576091,-10.5,45.025001525878906,0.0,64.0,0.0,0.0,0.0,snow covered,0.250002771615982,-8.0164737701416,100.0,476.883514404297
arenacam6_1769616037094438806.png,1769616037094438806,1769616037.094439,42.30107966934974,-83.6974502857188,239.0814666748047,-0.7064109235110771,-0.7076834205551409,-0.008612477293819377,-0.009675156353591162,0.005280000000000001,-0.0032000000000000006,0.01908,1.4134,-0.1753,-9.8617,1.6634148925577508,3.7209593097581353,17.729999542236328,18.229999542236328,7.96999979019165,8.289999961853027,14.396923098891678,14.802927708891678,6.471713313033686,6.731556402824307,10.600780130910337,1.8489373971679885,-10.40000057220459,44.775001525878906,0.0,60.0,0.0,0.0,0.0,snow covered,0.250002771615982,-8.0164737701416,100.0,476.883514404297
arenacam6_1769616037114867987.png,1769616037114867987,1769616037.114868,42.301080278397265,-83.69745030279653,239.08303833007812,-0.7065599310604188,-0.707536930451723,-0.008455226269077588,-0.009647021073280214,0.013260000000000003,-0.006310000000000001,0.012560000000000002,0.8718,0.20140000000000002,-10.0358,1.7001722155232417,3.803183235792561,17.65999984741211,18.510000228881836,8.09000015258789,8.679999351501465,14.340082701297225,15.030290848054163,6.569154713702774,7.04823950301321,10.746941941516845,1.8257754820685743,-10.40000057220459,44.92499923706055,0.0,60.0,0.0,0.0,0.0,snow covered,0.250002771615982,-8.0164737701416,100.0,476.883514404297
arenacam6_1769616037135062781.png,1769616037135062781,1769616037.1350627,42.301080278397265,-83.69745030279653,239.08303833007812,-0.706621128235607,-0.7074765728188191,-0.008420089029920478,-0.009621961562195741,0.008650000000000001,-0.0016600000000000002,0.01708,0.7641,-0.0582,-9.790600000000001,1.7079681508523523,3.8206222753676613,17.6299991607666,18.119998931884766,8.34000015258789,8.25,14.315721867134743,14.713606199080584,6.772157018702774,6.699076065,10.625140287479525,1.7809973144903626,-10.300000190734863,45.04999923706055,0.0,56.0,0.0,0.0,0.0,snow covered,0.250002771615982,-8.0164737701416,100.0,476.883514404297
arenacam6_1769616037156992683.png,1769616037156992683,1769616037.1569927,42.30108091200016,-83.69745031842153,239.0843963623047,-0.7067741958648746,-0.7073217477761146,-0.008482011338788264,-0.009707557167018783,-0.005770000000000001,0.00015000000000000001,0.014780000000000003,1.0879,0.9011,-9.568,1.746046062807091,3.9058002797356948,17.639999389648438,17.799999237060547,8.609999656677246,7.730000019073486,14.323842145188904,14.45376349648613,6.9913991054187585,6.276831286087847,10.511459008295411,1.691243344630699,-10.199999809265137,45.07500076293945,0.0,36.0,0.0,0.0,0.0,snow covered,0.250002771615982,-8.0164737701416,100.0,476.883514404297
arenacam6_1769616037176520455.png,1769616037176520455,1769616037.1765203,42.30108091200016,-83.69745031842153,239.0843963623047,-0.7068187173473993,-0.7072774840444778,-0.008488821482692857,-0.009685106139107112,0.0019400000000000003,0.00455,0.01246,1.3529,0.3729,-9.595500000000001,1.7600453894797177,3.93711593354276,17.670000076293945,17.6299991607666,8.380000114440918,7.799999713897705,14.348202979351388,14.315721867134743,6.804637356527081,6.333671683682299,10.450558471673878,1.6543689970211484,-10.199999809265137,45.29999923706055,0.0,24.0,0.0,0.0,0.0,snow covered,0.250002771615982,-8.0164737701416,100.0,476.883514404297
arenacam6_1769616037198114677.png,1769616037198114677,1769616037.1981146,42.30108156059777,-83.69745033685841,239.0860595703125,-0.7069624779569532,-0.7071318986314178,-0.008542702833005754,-0.009775220058790748,-0.0091,-0.00222,0.012310000000000001,0.9242,0.2975,-9.802800000000001,1.7950204283694655,4.015352997036793,17.779998779296875,17.31999969482422,7.769999980926514,8.319999694824219,14.437522940377809,14.06399944259445,6.309311623912153,6.7559164625944526,10.391687617369715,1.5879885591723721,-10.199999809265137,45.60000228881836,0.0,36.0,0.0,0.0,0.0,snow covered,0.250002771615982,-8.0164737701416,100.0,476.883514404297
arenacam6_1769616037217822443.png,1769616037217822443,1769616037.2178226,42.30108156059777,-83.69745033685841,239.0860595703125,0.7070480210623515,0.7070452475568659,0.008632376476601374,0.009777315348763365,-0.0055000000000000005,0.006080000000000001,0.013440000000000002,1.5376,0.36010000000000003,-9.4299,1.8223272328608129,4.076436680275667,17.65999984741211,17.34000015258789,7.549999713897705,8.679999351501465,14.340082701297225,14.080239998702774,6.130669378682298,7.04823950301321,10.399807895423876,1.551200646816031,-10.199999809265137,45.79999923706055,0.0,56.0,0.0,0.0,0.0,snow covered,0.250002771615982,-8.0164737701416,100.0,476.883514404297
arenacam6_1769616037239344508.png,1769616037239344508,1769616037.2393444,42.30108222463185,-83.69745035486594,239.0875701904297,0.7071309667466535,0.7069614890645415,0.008686376579459002,0.009787528263502127,-0.004850000000000001,0.00042000000000000007,0.011670000000000002,1.2449000000000001,0.1275,-9.7652,1.8498265648352152,4.1379510359424865,17.209999084472656,17.6299991607666,7.649999618530273,8.300000190734863,13.974677932783356,14.315721867134743,6.211870223243065,6.739676680878468,10.310486676009909,1.491688902660378,-10.100000381469727,46.20000076293945,0.0,40.0,0.0,0.0,0.0,snow covered,0.250002771615982,-8.0164737701416,100.0,476.883514404297
arenacam6_1769616037259186053.png,1769616037259186053,1769616037.2591863,42.30108222463185,-83.69745035486594,239.0875701904297,0.7072275122674785,0.7068644534441227,0.008754697916469004,0.009759385917497558,-0.00109,0.010600000000000002,0.016190000000000003,1.0512000000000001,0.5143,-9.786200000000001,1.871416751069005,4.1862469871363,17.100000381469727,17.479999542236328,7.769999980926514,7.690000057220459,13.885357971756937,14.193920793891678,6.309311623912153,6.24435094826354,10.158235334456077,1.426573340194878,-10.100000381469727,46.5,0.0,8.0,0.0,0.0,0.0,snow covered,0.250002771615982,-8.0164737701416,100.0,476.883514404297
arenacam6_1769616037280109105.png,1769616037280109105,1769616037.2801092,42.30108291478398,-83.69745036905394,239.08860778808594,0.7073222674679575,0.7067702134106888,0.008824157017149926,0.009654513573103667,0.0030400000000000006,0.007250000000000001,0.011300000000000003,1.8645,0.1497,-9.4596,1.9063242449862121,4.264332956579458,17.479999542236328,17.440000534057617,8.039999961853027,7.139999866485596,14.193920793891678,14.161441230459708,6.528554097824307,5.797745722385073,10.170415461140191,1.3849956287883696,-10.100000381469727,46.92499923706055,0.0,16.0,0.0,0.0,0.0,snow covered,0.250002771615982,-8.0164737701416,100.0,476.883514404297
arenacam6_1769616037300583849.png,1769616037300583849,1769616037.3005838,42.30108291478398,-83.69745036905394,239.08860778808594,0.7074305253447049,0.7066627182823203,0.008820602106348056,0.00959434097988702,0.006580000000000001,0.006720000000000001,0.016470000000000002,1.0159,0.3688,-10.030000000000001,1.9304129902232576,4.318218034350014,17.329999923706055,17.03999900817871,7.949999809265137,6.159999847412109,14.072119720648613,13.83663630343197,6.455473144121533,5.001976671297226,9.841551459874836,1.279077013154155,-10.0,47.025001525878906,0.0,20.0,0.0,0.0,0.0,snow covered,0.250002771615982,-8.0164737701416,100.0,476.883514404297
arenacam6_1769616037321504252.png,1769616037321504252,1769616037.3215044,42.301083621200064,-83.69745038479466,239.08984375,0.7075346475415125,0.7065616508275435,0.008782599262187314,0.009392659813079234,0.018890000000000004,0.013150000000000002,0.01572,1.4400000000000002,0.2964,-9.6628,1.9574130183993927,4.378615477378338,17.389999389648438,16.979999542236328,7.399999618530273,5.799999713897705,14.120839840188903,13.78791618389168,6.008867918243065,4.7096532436822995,9.656819296501485,1.2054504092429308,-10.0,46.79999923706055,0.0,32.0,0.0,0.0,0.0,snow covered,0.250002771615982,-8.0164737701416,100.0,476.883514404297
arenacam6_1769616037342501724.png,1769616037342501724,1769616037.3425016,42.301083621200064,-83.69745038479466,239.08984375,0.7076564036444188,0.7064428734249725,0.008773091388228712,0.00916044953095193,0.015940000000000003,0.01665,0.017,1.5542,0.2589,-9.443,1.9885141461376024,4.448186834061048,17.44999885559082,17.28999900817871,6.079999923706055,6.059999942779541,14.169559959729195,14.03963860843197,4.937015995648613,4.92077582673646,9.51674759763656,1.1394666979282615,-9.90000057220459,46.79999923706055,0.0,44.0,0.0,0.0,0.0,snow covered,0.250002771615982,-8.0164737701416,100.0,476.883514404297
arenacam6_1769616037363089607.png,1769616037363089607,1769616037.3630896,42.30108434358869,-83.69745039767469,239.09104919433594,0.7077529390338821,0.7063491626040058,0.008738488747516177,0.008959720527518233,0.017730000000000003,0.009800000000000001,0.012980000000000002,1.4667000000000001,0.6507000000000001,-9.99,2.0194253579986614,4.517333360321526,17.329999923706055,17.28999900817871,5.96999979019165,5.989999771118164,14.072119720648613,14.03963860843197,4.847694873033686,4.863935041945839,9.455847061015026,1.0932364974591993,-9.90000057220459,46.875,0.0,60.0,0.0,0.0,0.0,snow covered,0.250002771615982,-8.0164737701416,100.0,476.883514404297
arenacam6_1769616037383620459.png,1769616037383620459,1769616037.3836203,42.30108471945266,-83.69745040028666,239.09149169921875,0.7078470811979026,0.7062595727096588,0.008741678011721035,0.008573719211603131,0.010410000000000003,0.026140000000000004,0.005960000000000001,1.8027000000000002,0.4682,-9.481300000000001,2.0653512429938514,4.620066809502666,16.670000076293945,17.329999923706055,5.960000038146973,6.049999713897705,13.536193759351388,14.072119720648613,4.8395749821756935,4.912655548682299,9.340136002714498,1.0216452245892804,-9.800000190734863,47.04999923706055,0.0,60.0,0.0,0.0,0.0,snow covered,0.250002771615982,-8.0164737701416,100.0,476.883514404297
arenacam6_1769616037404853200.png,1769616037404853200,1769616037.4048533,42.30108471945266,-83.69745040028666,239.09149169921875,0.7079007296793747,0.7062071825655712,0.008770210087820614,0.008429449995258718,0.016440000000000003,0.024230000000000005,0.015200000000000002,2.6021,1.3445,-8.9503,2.091378002534027,4.678287108988466,17.139999389648438,16.989999771118164,6.269999980926514,6.279999732971191,13.917837535188903,13.796036461945839,5.091297793912154,5.099417684770146,9.47614736895426,1.0255591733024656,-9.600000381469727,47.20000076293945,0.0,64.0,0.0,0.0,0.0,snow covered,0.250002771615982,-8.0164737701416,100.0,476.883514404297
arenacam6_1769616037424829406.png,1769616037424829406,1769616037.4248295,42.30108548046595,-83.69745040409647,239.09254455566406,0.7079206860509512,0.7061912602158831,0.008712383366990649,0.008142519998132402,0.0017600000000000003,0.005190000000000001,0.0030100000000000005,2.4802,0.0008,-10.369200000000001,2.150180766527774,4.809825363876639,17.229999542236328,16.5,6.389999866485596,6.329999923706055,13.990918488891678,13.39815213,5.188738807385073,5.140018300648613,9.429456931731341,0.9604572345910197,-9.40000057220459,47.150001525878906,0.0,64.0,0.0,0.0,0.0,snow covered,0.250002771615982,-8.0164737701416,100.0,476.883514404297
arenacam6_1769616037446132916.png,1769616037446132916,1769616037.446133,42.30108548046595,-83.69745040409647,239.09254455566406,0.707964476079196,0.7061472799190149,0.008747628979246422,0.008111637327150867,-0.0006000000000000001,0.009460000000000001,0.01289,1.8501,1.1198000000000001,-10.2713,2.1687084316377874,4.851270639067833,17.0,16.260000228881836,6.46999979019165,6.460000038146973,13.80415674,13.203270103054162,5.253699483033686,5.245579592175694,9.376676479565885,0.9328289797016159,-9.100000381469727,47.625,0.0,52.0,0.0,0.0,0.0,snow covered,0.250002771615982,-8.0164737701416,100.0,476.883514404297
arenacam6_1769616037466303565.png,1769616037466303565,1769616037.4663036,42.3010862751802,-83.69745040250348,239.09344482421875,0.7079411476864701,0.7061753677097978,0.008535327427539057,0.007926514870990959,0.03839000000000001,0.006270000000000001,-0.01048,1.6348,0.9007000000000001,-10.5495,2.2032858251822223,4.92861819378312,17.06999969482422,16.350000381469727,6.549999713897705,6.539999961853027,13.860997137594453,13.276351056756935,5.318660158682299,5.310540267824307,9.441637155214499,0.9156763181867137,-8.699999809265137,47.525001525878906,0.0,44.0,0.0,0.0,0.0,snow covered,0.250002771615982,-8.0164737701416,100.0,476.883514404297
arenacam6_1769616037507792841.png,1769616037507792841,1769616037.507793,42.30108708861038,-83.69745039255689,239.09584045410156,0.7078978120341883,0.7062256413654447,0.008175870923207956,0.007693265224989836,0.023840000000000004,-0.0013900000000000002,-0.008140000000000001,2.3175,0.29910000000000003,-10.3597,2.259881060082809,5.055218338541639,16.239999771118164,15.670000076293945,6.759999752044678,6.699999809265137,13.18702954694584,12.724184539351388,5.489182125857993,5.440461619121533,9.21021445781919,0.8219221883255411,-7.700000286102295,47.45000076293945,0.0,40.0,0.0,0.0,0.0,snow covered,0.250002771615982,-8.0164737701416,100.0,476.883514404297
arenacam6_1769616037528193514.png,1769616037528193514,1769616037.5281935,42.301087499823595,-83.6974503888808,239.09701538085938,0.7078284270507416,0.7063016666183105,0.00771081012256902,0.0075774004990861645,0.030470000000000004,-0.015590000000000003,-0.0017100000000000001,1.2273,-0.0878,-10.195500000000001,2.3074364932702602,5.161596989255976,15.949999809265137,15.229999542236328,6.909999847412109,6.799999713897705,12.951546904121534,12.36690004889168,5.610983586297227,5.521662463682299,9.112773250748186,0.765494917506482,-7.200000286102295,47.625,0.0,36.0,0.0,0.0,0.0,snow covered,0.250002771615982,-8.0164737701416,100.0,476.883514404297
arenacam6_1769616037549344815.png,1769616037549344815,1769616037.5493448,42.301087499823595,-83.6974503888808,239.09701538085938,0.7078246585725595,0.7063072378758439,0.007588580374444157,0.007533384945451367,0.023520000000000003,-0.011120000000000001,-0.0014800000000000002,1.6072000000000002,-0.2376,-10.102,2.323417440930219,5.197345410314445,15.789999961853027,14.889999389648438,6.989999771118164,6.909999847412109,12.821625552824306,12.090816790188905,5.675944261945839,5.610983586297227,9.04984254781407,0.7412432373369128,-6.599999904632568,47.72500228881836,0.0,36.0,0.0,0.0,0.0,snow covered,0.250002771615982,-8.0164737701416,100.0,476.883514404297
arenacam6_1769616037569592057.png,1769616037569592057,1769616037.569592,42.3010883475396,-83.69745038657608,239.09991455078125,0.7077815702214525,0.7063546464887019,0.007287941258357504,0.007432909988066221,0.021480000000000003,-0.00135,-0.0023000000000000004,1.9172,-0.1143,-9.7017,2.3700734796069653,5.3017121694720055,15.899999618530273,14.299999237060547,7.179999828338623,6.989999771118164,12.910946288243066,11.61173122648613,5.83022606020938,5.675944261945839,9.007211959221104,0.6989251153779868,-6.099999904632568,47.525001525878906,0.0,32.0,0.0,0.0,0.0,snow covered,0.250002771615982,-8.0164737701416,100.0,476.883514404297
arenacam6_1769616037590707882.png,1769616037590707882,1769616037.590708,42.3010883475396,-83.69745038657608,239.09991455078125,0.7077800649242193,0.7063575379787117,0.007178389024464374,0.007408033985762032,0.019050000000000004,-0.011990000000000002,-0.0007700000000000001,1.8746,-0.5632,-9.7265,2.3888482056956564,5.343710105248842,15.719999313354492,13.969999313354492,7.179999828338623,7.079999923706055,12.764784380837519,11.343768245837518,5.83022606020938,5.749025215648612,8.921950975633257,0.669617325773286,-6.0,47.70000076293945,0.0,32.0,0.0,0.0,0.0,snow covered,0.250002771615982,-8.0164737701416,100.0,476.883514404297
arenacam6_1769616037611364795.png,1769616037611364795,1769616037.6113648,42.30108921237313,-83.69745039209111,239.10264587402344,0.7078048313263255,0.706335417693148,0.007019867426922997,0.007302049347023119,0.009060000000000002,0.010970000000000002,0.0008000000000000001,1.0507,-0.2914,-8.9016,2.428922466585156,5.433353822402999,15.920000076293945,13.799999237060547,7.329999923706055,7.179999828338623,12.927186844351388,11.20572661648613,5.952027520648613,5.83022606020938,8.978791760423878,0.6525321291247776,-5.700000286102295,47.67499923706055,0.0,28.0,0.0,0.0,0.0,snow covered,0.250002771615982,-8.0164737701416,100.0,476.883514404297
arenacam6_1769616037632270636.png,1769616037632270636,1769616037.6322706,42.30108921237313,-83.69745039209111,239.10264587402344,0.7078100758811186,0.7063305557620566,0.0070460482620554364,0.007238486162040057,0.005350000000000001,0.01284,0.0018600000000000003,1.6800000000000002,-0.552,-9.5266,2.445915926022298,5.471367171556319,15.920000076293945,13.429999351501465,7.369999885559082,7.419999599456787,12.927186844351388,10.905283298013211,5.98450785847292,6.0251080871552185,8.960521521998185,0.6377116068138748,-5.700000286102295,47.85000228881836,0.0,28.0,0.0,0.0,0.0,snow covered,0.250002771615982,-8.0164737701416,100.0,476.883514404297
arenacam6_1769616037673249073.png,1769616037673249073,1769616037.673249,42.30109055769274,-83.69745041563496,239.1050567626953,0.7078808566778481,0.706259223520661,0.007273943862352929,0.007049232704098823,-0.0088,0.01485,0.0008900000000000001,1.7113,-0.8473,-9.9838,2.527096687732026,5.652963664655278,15.969999313354492,12.429999351501465,7.480000019073486,7.569999694824219,12.967786685837519,10.09327407801321,6.073828981087847,6.146909547594452,8.820449823133256,0.5603231059634156,-5.800000190734863,47.54999923706055,0.0,36.0,0.0,0.0,0.0,snow covered,0.250002771615982,-8.0164737701416,100.0,476.883514404297
arenacam6_1769616037714430553.png,1769616037714430553,1769616037.7144306,42.30109148753597,-83.69745043580215,239.10606384277344,0.7080029766110563,0.706129865032869,0.00784958387271783,0.007126208779673647,-0.030330000000000006,0.011940000000000001,0.004020000000000001,1.4474,-0.4369,-9.7812,2.6122522917928097,5.843451641603008,15.179999351501465,12.1899995803833,7.839999675750732,7.949999809265137,12.326299433013212,9.898392051067372,6.366152021506606,6.455473144121533,8.76157916242718,0.49938421669279964,-5.800000190734863,47.79999923706055,0.0,16.0,0.0,0.0,0.0,snow/ice covered,0.24457710981369,-8.10775470733643,100.0,484.432006835938
arenacam6_1769616037735280334.png,1769616037735280334,1769616037.7352803,42.30109195779154,-83.69745045206784,239.10702514648438,0.708026002360211,0.7061032926177334,0.008102035784710835,0.00718868224068188,-0.04445,0.026830000000000003,0.007140000000000001,2.123,0.0855,-9.6019,2.633353734134925,5.890654302035779,14.960000038146973,12.130000114440918,8.149999618530273,7.949999809265137,12.147657962175694,9.84967193152708,6.617874833243065,6.455473144121533,8.767669467766844,0.48840332808815196,-5.900000095367432,47.54999923706055,0.0,8.0,0.0,0.0,0.0,snow/ice covered,0.24457710981369,-8.10775470733643,100.0,484.432006835938
arenacam6_1769616037755903735.png,1769616037755903735,1769616037.7559037,42.30109244199735,-83.69745046534833,239.1077423095703,0.7080603150856939,0.7060601449654366,0.008548396951356627,0.007522419936208965,-0.039720000000000005,0.015380000000000001,0.00036,2.0499,-0.5358,-10.9936,2.691872384784041,6.021557012418813,14.399999618530273,12.09999942779541,8.979999542236328,8.289999961853027,11.692932458243066,9.825311097364597,7.291842423891678,6.731556402824307,8.885410595580911,0.4756001773720166,-6.0,47.625,0.0,0.0,0.0,0.0,0.0,snow/ice covered,0.24457710981369,-8.10775470733643,100.0,484.432006835938
arenacam6_1769616037776619287.png,1769616037776619287,1769616037.7766192,42.30109292656727,-83.69745048190006,239.1085662841797,0.708080349804699,0.7060364957479986,0.008658519625844888,0.007727543609073833,-0.044950000000000004,-0.01322,0.005130000000000001,1.4255,0.35900000000000004,-10.824,2.7061752872445433,6.053551747048809,13.949999809265137,11.989999771118164,10.529999732971191,8.179999351501465,11.327528464121533,9.73599036194584,8.550456869770146,6.64223489301321,9.064052647212682,0.4973115000844808,-6.0,47.60000228881836,0.0,0.0,0.0,0.0,0.0,snow/ice covered,0.24457710981369,-8.10775470733643,100.0,484.432006835938
arenacam6_1769616037797237781.png,1769616037797237781,1769616037.7972379,42.30109341763592,-83.69745049928932,239.11029052734375,0.7080751175860955,0.7060354515436781,0.008885056036710883,0.008038955042546826,-0.022150000000000003,-0.0177,-0.00524,1.8166,0.8706,-10.2369,2.766733475488562,6.189016780659385,13.519999504089355,11.84000015258789,11.989999771118164,8.130000114440918,10.978364251715986,9.614189288702775,9.73599036194584,6.601635051527081,9.232544738472921,0.49176275742611175,-6.099999904632568,47.95000076293945,0.0,0.0,0.0,0.0,0.0,snow/ice covered,0.24457710981369,-8.10775470733643,100.0,484.432006835938
arenacam6_1769616037817941897.png,1769616037817941897,1769616037.817942,42.30109392257988,-83.69745051002997,239.1121826171875,0.7080556095957198,0.7060539206925219,0.008880527255275874,0.00813947359599572,-0.013550000000000001,-0.014790000000000001,-0.00562,2.1346000000000003,0.5903,-11.219800000000001,2.7879470239911273,6.236470215846713,13.130000114440918,11.769999504089355,12.75,8.619999885559082,10.661681151527082,9.557348116715985,10.353117554999999,6.9995193834729195,9.392916551678997,0.5061270601135615,-6.099999904632568,47.650001525878906,0.0,48.0,0.0,0.0,0.0,snow/ice covered,0.24457710981369,-8.10775470733643,100.0,484.432006835938
arenacam6_1769616037838872183.png,1769616037838872183,1769616037.838872,42.30109442820679,-83.69745052006296,239.11410522460938,0.7079548623590571,0.7061548954555623,0.008559498186181349,0.008480063508787404,0.007140000000000001,-0.038560000000000004,-0.015210000000000003,1.7835,0.8944000000000001,-10.282300000000001,2.84511525534197,6.364352119284667,12.149999618530273,11.84000015258789,12.869999885559082,9.170000076293945,9.865911713243065,9.614189288702775,10.45055856847292,7.446124609351387,9.344196044942537,0.46820852614810937,-6.200000286102295,47.54999923706055,0.0,176.0,0.0,0.0,0.0,snow/ice covered,0.24457710981369,-8.10775470733643,100.0,484.432006835938
arenacam6_1769616037859750142.png,1769616037859750142,1769616037.85975,42.301094939212184,-83.6974505306666,239.1167449951172,0.7078934057033973,0.706217448232086,0.008421219399030032,0.008539615801660511,0.011160000000000002,-0.027870000000000002,-0.01796,1.6286,0.5024000000000001,-9.853200000000001,2.861389958589689,6.400757653967619,11.619999885559082,12.179999351501465,14.049999237060547,10.489999771118164,9.435547043472921,9.890271773013211,11.40872892148613,8.51797653194584,9.813131067479526,0.5331202332581189,-6.200000286102295,47.57500076293945,0.0,200.0,0.0,0.0,0.0,snow/ice covered,0.24457710981369,-8.10775470733643,100.0,484.432006835938
arenacam6_1769616037880321803.png,1769616037880321803,1769616037.8803217,42.301095463001666,-83.69745053706869,239.1188201904297,0.7076713470106566,0.7064371201461318,0.0082520372594134,0.0089310570948642,-0.021780000000000004,-0.019550000000000005,-0.02389,1.377,0.19640000000000002,-8.3632,2.9074197696884223,6.50372357960682,11.15999984741211,12.269999504089355,15.34999942779541,12.75,9.062022771297226,9.963352726715986,12.464341062364598,10.353117554999999,10.460708528844451,0.6084183776883163,-6.200000286102295,47.650001525878906,0.0,204.0,0.0,0.0,0.0,snow/ice covered,0.24457710981369,-8.10775470733643,100.0,484.432006835938
arenacam6_1769616037901549447.png,1769616037901549447,1769616037.9015496,42.30109598714451,-83.69745054094413,239.12081909179688,0.7075747427358419,0.7065314214290791,0.00829766543038622,0.009082000006480035,-0.028110000000000003,-0.014360000000000001,-0.027930000000000007,1.4475,0.2933,-7.8871,2.922137222653412,6.536645638842324,10.639999389648438,12.309999465942383,15.519999504089355,13.75999927520752,8.639777605188904,9.99583306454029,12.602382691715986,11.173246278661823,10.602809910026751,0.6220567085696522,-6.200000286102295,47.72500228881836,0.0,184.0,0.0,0.0,0.0,snow/ice covered,0.24457710981369,-8.10775470733643,100.0,484.432006835938
arenacam6_1769616037942398974.png,1769616037942398974,1769616037.942399,42.301097053971986,-83.69745055633716,239.12229919433594,0.7071753458499137,0.7069148285298003,0.008995848779012043,0.00967109773928763,-0.052270000000000004,0.026250000000000006,-0.029740000000000003,0.9495,0.4635,-8.0596,2.9738660076904475,6.65235982724307,9.059999465942383,12.819999694824219,16.770000457763672,17.25,7.356803099540292,10.409957952594452,13.617394991108322,14.007159045000002,11.347828772060767,0.7058350820995254,-6.5,47.57500076293945,0.0,40.0,0.0,0.0,0.0,snow/ice covered,0.24457710981369,-8.10775470733643,100.0,484.432006835938
arenacam6_1769616037963555149.png,1769616037963555149,1769616037.963555,42.30109813775939,-83.69745056768278,239.1218719482422,-0.7068558747861944,-0.7072233768002719,-0.009648589849660102,-0.009837291363864567,-0.018080000000000002,0.022300000000000004,-0.034870000000000005,1.2964,1.3718000000000001,-8.5663,3.0228148431100816,6.761855435146667,8.949999809265137,13.389999389648438,17.100000381469727,18.079999923706055,7.267482364121533,10.872802960188904,13.885357971756937,14.681126635648614,11.676692482928996,0.726847400823754,-6.599999904632568,47.70000076293945,0.0,20.0,0.0,0.0,0.0,snow/ice covered,0.24457710981369,-8.10775470733643,100.0,484.432006835938
arenacam6_1769616037983348813.png,1769616037983348813,1769616037.9833488,42.30109868916194,-83.69745056953921,239.12063598632812,-0.7065118135740072,-0.7075678847639871,-0.010133490426717441,-0.009276750657201804,0.0077800000000000005,0.06278000000000002,-0.027630000000000005,1.2899,0.0247,-9.4221,3.0463781703978503,6.8145651844897674,9.869999885559082,13.569999694824219,17.709999084472656,17.709999084472656,8.014530908472919,11.018964867594454,14.380682542783356,14.380682542783356,11.948715215408521,0.7534083088095322,-7.300000190734863,47.60000228881836,0.0,44.0,0.0,0.0,0.0,snow/ice covered,0.24457710981369,-8.10775470733643,100.0,484.432006835938
arenacam6_1769616038004542161.png,1769616038004542161,1769616038.004542,42.30109924462499,-83.69745056621775,239.11949157714844,-0.7064309982472494,-0.707650707456377,-0.010245703455201736,-0.008985906331144313,0.025240000000000005,0.057330000000000006,-0.022300000000000004,1.973,0.8528,-9.7151,3.065943647902205,6.858331983738359,11.779999732971191,13.799999237060547,18.94999885559082,18.059999465942383,9.565468394770146,11.20572661648613,15.387573789729194,14.66488607954029,12.70591372013144,0.8526244792841983,-7.700000286102295,47.375,0.0,4.0,0.0,0.0,0.0,snow/ice covered,0.24457710981369,-8.10775470733643,100.0,484.432006835938
arenacam6_1769616038024858186.png,1769616038024858186,1769616038.024858,42.301099803380716,-83.69745057275951,239.11891174316406,-0.7061729401951522,-0.7079230099555175,-0.010074975246417709,-0.007955211212689368,0.05949000000000001,0.03567000000000001,-0.022300000000000004,1.7710000000000001,-0.734,-10.7512,3.1324823686175725,7.007175109655393,13.039999961853027,13.84000015258789,19.020000457763672,18.43000030517578,10.588600197824306,11.238207728702776,15.444415736108322,14.965330172405547,13.059138458760238,0.863680906270726,-8.100000381469727,47.42499923706055,0.0,4.0,0.0,0.0,0.0,snow/ice covered,0.24457710981369,-8.10775470733643,100.0,484.432006835938
arenacam6_1769616038045977449.png,1769616038045977449,1769616038.0459774,42.301100373783015,-83.69745057576189,239.1185302734375,-0.7061530981383519,-0.7079477199840806,-0.009975841623566743,-0.007636120929532877,0.05881000000000001,0.03151,-0.006490000000000001,0.9750000000000001,-0.1517,-10.5334,3.1420079376167656,7.028483235972448,14.420000076293945,13.479999542236328,19.10999870300293,18.53999900817871,11.709173014351387,10.945883913891679,15.517495141026421,15.05465013343197,13.306800550675364,0.8932677369947883,-8.5,47.375,0.0,4.0,0.0,0.0,0.0,snow/ice covered,0.24457710981369,-8.10775470733643,100.0,484.432006835938
arenacam6_1769616038066174407.png,1769616038066174407,1769616038.0661745,42.30110094934096,-83.69745057894555,239.11831665039062,-0.7060413876219872,-0.7080737608344188,-0.009722776852865406,-0.0065250128651602,0.06258000000000001,0.03151,-0.016290000000000002,2.7588,-0.2043,-11.2535,3.1996418905577197,7.157406930664186,14.829999923706055,13.079999923706055,18.799999237060547,18.78999900817871,12.042096670648615,10.621080535648614,15.26577271648613,15.25765243843197,13.296650590303832,0.8577469073803162,-8.699999809265137,46.900001525878906,0.0,4.0,0.0,0.0,0.0,snow/ice covered,0.24457710981369,-8.10775470733643,100.0,484.432006835938
arenacam6_1769616038087679724.png,1769616038087679724,1769616038.0876799,42.30110094934096,-83.69745057894555,239.11831665039062,-0.7060209295944918,-0.7080987858984065,-0.00951799030259632,-0.006321727954597174,0.05782000000000001,-4e-05,-0.006350000000000001,2.6301,-0.2864,-11.3209,3.2255274929322,7.215311470039756,15.269999504089355,13.269999504089355,18.85999870300293,18.90999984741211,12.399380386715984,10.775361946715984,15.314492836026421,15.355094226297227,13.461082348938904,0.8656273405290338,-8.90000057220459,47.150001525878906,0.0,8.0,0.0,0.0,0.0,snow/ice covered,0.24457710981369,-8.10775470733643,100.0,484.432006835938
arenacam6_1769616038107789391.png,1769616038107789391,1769616038.1077893,42.30110212024651,-83.6974505967777,239.12014770507812,-0.7059785516590918,-0.7081506610705572,-0.008979160324550175,-0.006024989836481836,0.02767,-0.01276,-0.00916,1.5867,-0.23070000000000002,-10.7163,3.276618389976218,7.329598741273402,15.149999618530273,13.380000114440918,18.65999984741211,19.139999389648438,12.301939373243066,10.86468345652708,15.152091921297227,15.541855975188904,13.46514268156407,0.8370913820617573,-9.0,46.775001525878906,0.0,16.0,0.0,0.0,0.0,snow/ice covered,0.24457710981369,-8.10775470733643,100.0,484.432006835938
arenacam6_1769616038129386447.png,1769616038129386447,1769616038.1293864,42.30110212024651,-83.6974505967777,239.12014770507812,-0.7059612379474303,-0.708169882775277,-0.008826224342916168,-0.006020416067893254,0.022350000000000005,-0.02085,-0.005320000000000001,1.5169000000000001,0.2056,-10.9169,3.291452530631412,7.362781823870631,14.889999389648438,13.25999927520752,18.639999389648438,19.18000030517578,12.090816790188905,10.767241668661823,15.135851365188906,15.57433708740555,13.392061727861297,0.8188861286699188,-9.0,46.82500076293945,0.0,0.0,0.0,0.0,0.0,snow/ice covered,0.24457710981369,-8.10775470733643,100.0,484.432006835938
arenacam6_1769616038149028964.png,1769616038149028964,1769616038.1490288,42.301103314359786,-83.69745061977885,239.12368774414062,-0.7058822414058151,-0.7082516008103246,-0.008316284904815688,-0.006385187773069301,-0.004380000000000001,-0.05716,-0.008700000000000001,2.0644,-0.7228,-11.0601,3.358233224559844,7.512166229346898,14.289999961853027,13.029999732971191,18.94999885559082,18.60999870300293,11.603611722824308,10.580479919770147,15.387573789729194,15.111490531026423,13.170788990837519,0.753261121856535,-9.0,46.79999923706055,0.0,28.0,0.0,0.0,0.0,snow/ice covered,0.24457710981369,-8.10775470733643,100.0,484.432006835938
arenacam6_1769616038190386734.png,1769616038190386734,1769616038.1903868,42.301103926676575,-83.69745063781754,239.1261444091797,-0.705841790908409,-0.708284648338458,-0.008145698415867651,-0.007339668425362236,-0.04954,-0.052770000000000004,-0.00103,0.9958,0.3733,-9.8129,3.3981282751012034,7.601409063704886,13.119999885559082,14.519999504089355,18.56999969482422,18.989999771118164,10.65356087347292,11.790373471715984,15.079010967594453,15.42005490194584,13.235750053682299,0.7412232314769369,-9.300000190734863,47.17499923706055,0.0,40.0,0.0,0.0,0.0,snow/ice covered,0.24457710981369,-8.10775470733643,100.0,484.432006835938
arenacam6_1769616038231723013.png,1769616038231723013,1769616038.231723,42.30110515798076,-83.69745067511838,239.1314697265625,-0.7058257651636174,-0.7082851314523122,-0.008256441843289771,-0.008601916232054491,-0.06638000000000001,-0.029530000000000004,0.006970000000000001,1.1213,-0.14800000000000002,-9.3298,3.4644993655456577,7.749877210763704,13.279999732971191,15.25999927520752,18.8799991607666,18.770000457763672,10.783482224770147,12.391260108661823,15.330733392134745,15.241413431108322,13.43672228916876,0.7337980878595948,-9.800000190734863,46.75,0.0,40.0,0.0,0.0,0.0,snow/ice covered,0.24457710981369,-8.10775470733643,100.0,484.432006835938
arenacam6_1769616038252949040.png,1769616038252949040,1769616038.252949,42.30110641781143,-83.69745072081116,239.13629150390625,-0.7058539791281098,-0.7082446974870128,-0.008511408430850017,-0.009336196070507011,-0.03543000000000001,-0.019030000000000002,5.000000000000001e-05,1.6288,-0.22360000000000002,-9.4037,3.5098015164420717,7.8512154041899285,13.949999809265137,15.90999984741211,18.889999389648438,18.3799991607666,11.327528464121533,12.919066566297225,15.338853670188904,14.924728782134743,13.627544370685602,0.7357241737900914,-10.0,46.5,0.0,24.0,0.0,0.0,0.0,snow/ice covered,0.24457710981369,-8.10775470733643,100.0,484.432006835938
arenacam6_1769616038273416892.png,1769616038273416892,1769616038.273417,42.30110705109351,-83.69745074804334,239.13856506347656,-0.7059209916692365,-0.7081704398623108,-0.0087535160504319,-0.009672516875015826,-0.0412,-0.0066900000000000015,0.012100000000000001,1.2953000000000001,0.20550000000000002,-9.273,3.536508715519305,7.910957806093755,14.809999465942383,16.529998779296875,18.84000015258789,18.53999900817871,12.025856114540291,13.422511415377807,15.298253828702775,15.05465013343197,13.95031787301321,0.7634170494838664,-10.199999809265137,46.10000228881836,0.0,24.0,0.0,0.0,0.0,snow/ice covered,0.24457710981369,-8.10775470733643,100.0,484.432006835938
arenacam6_1769616038314700588.png,1769616038314700588,1769616038.3147006,42.30110834158182,-83.69745079528428,239.14207458496094,-0.7060812927120278,-0.7080061883867084,-0.009013032141557742,-0.009757588833913524,0.0012100000000000001,0.0008400000000000001,0.014500000000000002,1.603,0.4874,-9.6766,3.6014686052528617,8.056269181834336,17.68000030517578,17.369998931884766,18.43000030517578,18.829999923706055,14.356323257405549,14.104599284080582,14.965330172405547,15.290133550648614,14.679096566135073,0.8220712633627245,-10.40000057220459,45.5,0.0,4.0,0.0,0.0,0.0,snow/ice covered,0.24457710981369,-8.10775470733643,100.0,484.432006835938
arenacam6_1769616038356138048.png,1769616038356138048,1769616038.356138,42.30110965340933,-83.69745084032607,239.14532470703125,-0.7062991420401534,-0.7077942630490267,-0.00898778254775627,-0.009382052712654269,0.021290000000000003,0.009140000000000002,0.01565,2.1126,1.0504,-9.956900000000001,3.665042484746694,8.19848013582927,19.850000381469727,18.389999389648438,18.85999870300293,18.43000030517578,16.118383326756934,14.932849060188905,15.314492836026421,14.965330172405547,15.33276384884445,0.870195889337671,-10.199999809265137,45.025001525878906,0.0,0.0,0.0,0.0,0.0,snow/ice covered,0.24457710981369,-8.10775470733643,100.0,484.432006835938
arenacam6_1769616038397158810.png,1769616038397158810,1769616038.3971589,42.30111098263391,-83.69745088122235,239.14865112304688,-0.7064986117979956,-0.7076061242309117,-0.0085189469558178,-0.008983986931031895,0.032720000000000006,0.007290000000000001,0.014650000000000003,0.9986,0.8290000000000001,-9.8397,3.7216624856277125,8.325135680600056,20.25,20.049999237060547,18.190000534057617,18.479999542236328,16.443186705,16.28078424148613,14.77044814545971,15.005930013891678,15.62508727645938,0.8768567715803476,-10.0,44.525001525878906,0.0,0.0,0.0,0.0,0.0,snow/ice covered,0.24457710981369,-8.10775470733643,100.0,484.432006835938
arenacam6_1769616038418327843.png,1769616038418327843,1769616038.4183278,42.30111234175177,-83.69745091035195,239.15223693847656,-0.7065940317778628,-0.7075155170956453,-0.008172667978799033,-0.00893727155761448,0.01725,-0.01923,0.011350000000000002,1.2366000000000001,1.3898000000000001,-10.125200000000001,3.7765818607216937,8.447987027522785,19.93000030517578,20.689998626708984,18.260000228881836,18.510000228881836,16.183344002405548,16.800469646675033,14.827288543054163,15.030290848054163,15.710348260047226,0.8596558220158623,-10.0,44.125,0.0,20.0,0.0,0.0,0.0,snow/ice covered,0.24457710981369,-8.10775470733643,100.0,484.432006835938
arenacam6_1769616038438647396.png,1769616038438647396,1769616038.4386473,42.30111234175177,-83.69745091035195,239.15223693847656,-0.7066338417980196,-0.7074790742071589,-0.007896758239533808,-0.00892268984437164,0.012290000000000002,-0.026410000000000006,0.00068,1.5819,-0.7791,-9.7209,3.807846602540848,8.517924379087725,20.0,20.93000030517578,17.969999313354492,18.010000228881836,16.2401844,16.995353222405548,14.591805125837517,14.624286238054161,15.612907246574306,0.8329473885569358,-9.90000057220459,43.97500228881836,0.0,16.0,0.0,0.0,0.0,snow/ice covered,0.24457710981369,-8.10775470733643,100.0,484.432006835938
arenacam6_1769616038459553946.png,1769616038459553946,1769616038.459554,42.301113722861,-83.69745094451923,239.1560516357422,-0.7066871779260766,-0.7074242058386241,-0.007873510303776081,-0.00906826245573437,-0.008520000000000002,-0.0025000000000000005,0.007910000000000002,1.2003000000000001,0.795,-9.7127,3.829008541958103,8.565262367847758,20.399999618530273,20.68000030517578,17.899999618530273,17.559999465942383,16.564987778243065,16.79235091740555,14.534964728243066,14.258881469540292,15.537796223357994,0.8140479014027289,-9.90000057220459,43.57500076293945,0.0,20.0,0.0,0.0,0.0,snow/ice covered,0.24457710981369,-8.10775470733643,100.0,484.432006835938
arenacam6_1769616038480164287.png,1769616038480164287,1769616038.4801643,42.301113722861,-83.69745094451923,239.1560516357422,-0.7066911186778576,-0.707419615082364,-0.007777343990869427,-0.009201298767332293,-0.0022400000000000007,-0.023060000000000004,0.00019000000000000004,1.9533,0.3529,-9.5653,3.870277939106301,8.65757953310445,20.81999969482422,20.459999084472656,17.94999885559082,17.520000457763672,16.90603171259445,16.613707897783357,14.575564569729195,14.226401906108324,15.580426521553832,0.799628459892066,-10.0,43.17499923706055,0.0,20.0,0.0,0.0,0.0,snow/ice covered,0.24457710981369,-8.10775470733643,100.0,484.432006835938
arenacam6_1769616038500830080.png,1769616038500830080,1769616038.5008302,42.30111512136902,-83.69745098090006,239.15956115722656,-0.7067076290974464,-0.7074017332932936,-0.007764437908727589,-0.009318165756812652,-0.012730000000000002,-3e-05,0.0011200000000000003,1.0642,-0.3402,-9.097000000000001,3.8927824954882824,8.707920875457559,21.239999771118164,20.40999984741211,17.34000015258789,17.489999771118164,17.247075646945838,16.573108056297226,14.080239998702774,14.202041071945839,15.525616193472917,0.7829303246461943,-10.0,43.125,0.0,20.0,0.0,0.0,0.0,snow/ice covered,0.24457710981369,-8.10775470733643,100.0,484.432006835938
arenacam6_1769616038521449364.png,1769616038521449364,1769616038.5214496,42.301115834152384,-83.69745099163198,239.16110229492188,-0.7067378141601647,-0.7073695083652505,-0.007866229391459771,-0.009389521094143462,0.01137,0.010220000000000002,0.0036800000000000005,1.5377,0.9536,-10.0207,3.939070881922177,8.811465218606996,21.619998931884766,20.939998626708984,17.06999969482422,17.020000457763672,17.55563846908058,17.003471951675035,13.860997137594453,13.820397296108322,15.560126213614598,0.7658954359550316,-9.90000057220459,42.525001525878906,0.0,0.0,0.0,0.0,0.0,snow/ice covered,0.24457710981369,-8.10775470733643,100.0,484.432006835938
arenacam6_1769616038542387084.png,1769616038542387084,1769616038.5423872,42.301116547984826,-83.69745101051406,239.16270446777344,-0.7067232004475522,-0.7073849898332547,-0.007840603031403215,-0.009344466377414538,0.010080000000000002,0.0027600000000000003,-0.004280000000000001,1.7627000000000002,-0.6018,-10.2814,3.9569736897106114,8.851512725461255,21.920000076293945,21.75,17.049999237060547,16.869998931884766,17.799242164351387,17.661200535000003,13.844756581486129,13.698594674080582,15.750948488729525,0.7794640280437194,-9.800000190734863,42.10000228881836,0.0,0.0,0.0,0.0,0.0,snow/ice covered,0.24457710981369,-8.10775470733643,100.0,484.432006835938
arenacam6_1769616038562588712.png,1769616038562588712,1769616038.5625887,42.30111726506934,-83.69745102688006,239.16441345214844,-0.706821391712593,-0.7072889759000546,-0.007861552009004444,-0.00916628538366363,0.016890000000000002,0.011020000000000002,0.012530000000000001,1.5644,0.5322,-9.626800000000001,4.000773271129499,8.949489761120422,22.1299991607666,22.40999984741211,16.68000030517578,16.959999084472656,17.96976335713474,18.197126496297226,13.544314037405549,13.771675627783356,15.87071987965522,0.7733658904894151,-9.600000381469727,42.04999923706055,0.0,0.0,0.0,0.0,0.0,snow/ice covered,0.24457710981369,-8.10775470733643,100.0,484.432006835938
arenacam6_1769616038583355669.png,1769616038583355669,1769616038.5833557,42.30111726506934,-83.69745102688006,239.16441345214844,-0.7068377478613136,-0.7072741015034385,-0.007864152943645104,-0.009049786700731947,0.015780000000000002,0.01711,0.0034000000000000002,1.7198,-0.0354,-9.7048,4.01838963335048,8.988896506427022,22.229999542236328,23.06999969482422,16.770000457763672,16.969999313354492,18.050964588891677,18.733052457594454,13.617394991108322,13.779795905837517,16.04530198585799,0.7850135413602403,-9.5,42.04999923706055,0.0,0.0,0.0,0.0,0.0,snow/ice covered,0.24457710981369,-8.10775470733643,100.0,484.432006835938
arenacam6_1769616038604539406.png,1769616038604539406,1769616038.6045394,42.301118725551596,-83.69745105620777,239.1680145263672,-0.7068897725209742,-0.7072224681627793,-0.007992516853855675,-0.008907845156524015,-0.00461,0.021840000000000005,0.008700000000000001,1.9209,-0.6234000000000001,-10.3084,4.0534183177035485,9.067253571603777,22.600000381469727,23.219999313354492,16.729999542236328,16.619998931884766,18.351408681756936,18.854853530837516,13.58491387889168,13.495592369080581,16.07169211514168,0.7724983632832261,-9.40000057220459,41.72500228881836,0.0,0.0,0.0,0.0,0.0,snow/ice covered,0.24457710981369,-8.10775470733643,100.0,484.432006835938
arenacam6_1769616038628081174.png,1769616038628081174,1769616038.628081,42.301118725551596,-83.69745105620777,239.1680145263672,-0.7069946927840586,-0.7071154546261731,-0.008076742054469552,-0.009000246762215317,-0.01157,-5.000000000000001e-05,0.016550000000000002,1.5502,0.6847000000000001,-11.2195,4.088757124038807,9.146304361047369,23.459999084472656,23.25,16.899999618530273,16.600000381469727,19.049735557783357,18.879214365000003,13.722955508243064,13.479353361756935,16.28281469819584,0.7802616286794166,-9.300000190734863,41.72500228881836,0.0,0.0,0.0,0.0,0.0,snow/ice covered,0.24457710981369,-8.10775470733643,100.0,484.432006835938
arenacam6_1769616038645574462.png,1769616038645574462,1769616038.6455743,42.30112020968071,-83.69745109706389,239.1726837158203,0.7071163346495338,0.7069912730527306,0.008175567981604301,0.00910984013394044,-0.02085,-0.009760000000000001,0.011580000000000002,1.8693000000000002,-0.62,-9.7707,4.143810232201333,9.269454860820451,23.8799991607666,23.309999465942383,16.889999389648438,16.979999542236328,19.390779492134744,18.92793448454029,13.714835230188905,13.78791618389168,16.455366347688905,0.7752248211749121,-9.199999809265137,41.45000076293945,0.0,0.0,0.0,0.0,0.0,snow/ice covered,0.24457710981369,-8.10775470733643,100.0,484.432006835938
arenacam6_1769616038666492067.png,1769616038666492067,1769616038.6664922,42.30112020968071,-83.69745109706389,239.1726837158203,0.7071769605820656,0.7069284209186391,0.008228480214041252,0.009232888646487126,-0.024800000000000003,-0.0101,0.017270000000000004,1.3238,0.10840000000000001,-9.6007,4.157081816657955,9.299142598954846,23.889999389648438,23.81999969482422,16.579999923706055,17.28999900817871,19.398899770188905,19.342059372594452,13.463112805648613,14.03963860843197,16.560927639215983,0.7809090959716336,-9.199999809265137,41.85000228881836,0.0,0.0,0.0,0.0,0.0,snow/ice covered,0.24457710981369,-8.10775470733643,100.0,484.432006835938
arenacam6_1769616038686762707.png,1769616038686762707,1769616038.6867628,42.30112171041473,-83.69745113579484,239.17745971679688,0.7073489311190091,0.7067533214659402,0.008321245459977327,0.00938025136400112,-0.00487,-0.005730000000000001,0.017780000000000004,1.8900000000000001,0.2942,-9.3392,4.212836127803626,9.423861647729042,24.079999923706055,24.28999900817871,16.75,17.389999389648438,19.553181955648615,19.72370314843197,13.601154435,14.120839840188903,16.74971984481737,0.777373275514259,-9.199999809265137,41.72500228881836,0.0,0.0,0.0,0.0,0.0,snow/ice covered,0.24457710981369,-8.10775470733643,100.0,484.432006835938
arenacam6_1769616038708046165.png,1769616038708046165,1769616038.7080462,42.30112247497959,-83.6974511572509,239.17958068847656,0.7074903254623693,0.7066101614346763,0.008311487145946941,0.00950990619479332,-0.012060000000000003,-0.006350000000000001,0.019390000000000004,1.191,-0.5018,-9.744900000000001,4.24055649593683,9.485870448020933,24.029998779296875,24.28999900817871,17.219999313354492,17.260000228881836,19.51258056537781,19.72370314843197,13.982798210837517,14.01527932305416,16.808590311925364,0.7719607709203107,-9.199999809265137,41.70000076293945,0.0,0.0,0.0,0.0,0.0,snow/ice covered,0.24457710981369,-8.10775470733643,100.0,484.432006835938
arenacam6_1769616038728160489.png,1769616038728160489,1769616038.7281606,42.30112324149455,-83.69745117496828,239.1815643310547,0.7076588389655464,0.7064388951452238,0.008401733458621061,0.00961592090341314,-0.010390000000000002,-0.00041000000000000005,0.025010000000000004,1.8621,0.6669,-9.2189,4.274817904516714,9.562511163329617,24.399999618530273,23.969999313354492,17.670000076293945,17.020000457763672,19.813024658243066,19.463860445837515,14.348202979351388,13.820397296108322,16.86137134488507,0.7632786050535735,-9.199999809265137,41.625,0.0,4.0,0.0,0.0,0.0,snow/ice covered,0.24457710981369,-8.10775470733643,100.0,484.432006835938
arenacam6_1769616038749205412.png,1769616038749205412,1769616038.7492056,42.30112324149455,-83.69745117496828,239.1815643310547,0.7077489190087924,0.7063490866968046,0.008364802062561079,0.009615895742467514,0.0053100000000000005,-0.005470000000000001,0.025370000000000004,1.6322,1.1666,-8.9137,4.291316428885002,9.599417372430018,24.44999885559082,23.869998931884766,17.65999984741211,17.010000228881836,19.853624499729197,19.382659214080583,14.340082701297225,13.812277018054163,16.847160858290295,0.7550191021671939,-9.100000381469727,41.900001525878906,0.0,0.0,0.0,0.0,0.0,snow/ice covered,0.24457710981369,-8.10775470733643,100.0,484.432006835938
arenacam6_1769616038769937252.png,1769616038769937252,1769616038.769937,42.301124794612534,-83.69745122247728,239.18519592285156,0.7080102200985067,0.7060895019844919,0.008223094713235833,0.009566824796827623,-0.00075,-0.0017000000000000001,0.03178,0.9406,0.0585,-9.9428,4.333796870051328,9.694443570492618,24.299999237060547,23.889999389648438,17.600000381469727,17.799999237060547,19.73182342648613,19.398899770188905,14.291362581756935,14.45376349648613,16.968962318729524,0.7503802250578528,-9.100000381469727,42.04999923706055,0.0,0.0,0.0,0.0,0.0,snow/ice covered,0.24457710981369,-8.10775470733643,100.0,484.432006835938
arenacam6_1769616038790409410.png,1769616038790409410,1769616038.7904096,42.301124794612534,-83.69745122247728,239.18519592285156,0.7081351809435048,0.7059646451492408,0.00824164231538511,0.009516335500678529,0.004660000000000001,0.009340000000000003,0.035460000000000005,1.5861,1.1533,-9.8618,4.349889197066419,9.730441140485757,24.170000076293945,23.90999984741211,18.19999885559082,18.350000381469727,19.626262909351386,19.415140326297227,14.778566874729195,14.900369496756936,17.180084901783687,0.7656018523458262,-9.0,41.97500228881836,0.0,0.0,0.0,0.0,0.0,snow/ice covered,0.24457710981369,-8.10775470733643,100.0,484.432006835938
arenacam6_1769616038831648619.png,1769616038831648619,1769616038.8316486,42.30112636774063,-83.69745126038124,239.1885986328125,0.7084679626885697,0.7056416863448317,0.007669436488810931,0.009172572173246312,0.03513000000000001,-0.0036000000000000008,0.025590000000000005,1.0434,0.014100000000000001,-9.7383,4.41830828767908,9.883490541040842,23.479999542236328,23.93000030517578,18.28999900817871,17.989999771118164,19.065976113891676,19.431380882405552,14.85164782843197,14.60804568194584,16.98926262666876,0.7189536992140028,-9.0,41.875,0.0,0.0,0.0,0.0,0.0,snow/ice covered,0.24457710981369,-8.10775470733643,100.0,484.432006835938
arenacam6_1769616038853171228.png,1769616038853171228,1769616038.853171,42.30112796917651,-83.69745128859016,239.19190979003906,0.7086674168344644,0.705449449170941,0.007286154427215622,0.0088588337407505,0.045570000000000006,0.0018700000000000004,0.019600000000000003,1.8213000000000001,0.8098000000000001,-9.3177,4.471217149439454,10.001844490267093,23.399999618530273,23.5,19.020000457763672,18.149999618530273,19.001015438243066,19.08221667,15.444415736108322,14.737967033243065,17.066403719398615,0.7063256418359757,-9.0,42.150001525878906,0.0,0.0,0.0,0.0,0.0,snow/ice covered,0.24457710981369,-8.10775470733643,100.0,484.432006835938
arenacam6_1769616038873123147.png,1769616038873123147,1769616038.8731232,42.301128776528344,-83.69745130908572,239.1934356689453,0.7087943015653871,0.7053279398064858,0.006965191086827197,0.00863837426241679,0.030530000000000005,-0.007740000000000001,0.01602,1.3143,-0.18660000000000002,-8.783800000000001,4.50607290876114,10.079814732524145,23.78999900817871,23.19999885559082,18.969999313354492,17.739999771118164,19.31769853843197,18.838612974729198,15.403814345837517,14.405043376945839,16.991292308986132,0.6856750604910418,-9.0,41.82500076293945,0.0,0.0,0.0,0.0,0.0,snow/ice covered,0.24457710981369,-8.10775470733643,100.0,484.432006835938
arenacam6_1769616038894749305.png,1769616038894749305,1769616038.8947492,42.30112959181877,-83.6974513255393,239.1942138671875,0.7089093680932599,0.7052162216704697,0.006899134495882185,0.008366030459512173,0.021810000000000003,0.021820000000000003,0.017390000000000003,1.0566,-0.42450000000000004,-8.7424,4.523270062628068,10.11828373389523,23.809999465942383,23.119998931884766,19.139999389648438,17.28999900817871,19.33393909454029,18.77365229908058,15.541855975188904,14.03963860843197,16.922271494310436,0.672444847303751,-9.100000381469727,41.900001525878906,0.0,0.0,0.0,0.0,0.0,snow/ice covered,0.24457710981369,-8.10775470733643,100.0,484.432006835938
arenacam6_1769616038914474818.png,1769616038914474818,1769616038.9144747,42.301130410766106,-83.69745134187842,239.19512939453125,0.7090493763787307,0.7050763497878615,0.007061089067419139,0.008152536288789498,0.00027000000000000006,0.030380000000000004,0.02177,1.4782000000000002,0.5514,-8.998800000000001,4.555052755500914,10.189379710890215,23.90999984741211,23.439998626708984,19.010000228881836,17.420000076293945,19.415140326297227,19.033495001675035,15.436295458054161,14.145200674351388,17.007532865094454,0.6691431026873135,-9.100000381469727,42.10000228881836,0.0,0.0,0.0,0.0,0.0,snow/ice covered,0.24457710981369,-8.10775470733643,100.0,484.432006835938
arenacam6_1769616038935735344.png,1769616038935735344,1769616038.9357352,42.30113123430922,-83.6974513655592,239.19566345214844,0.7091534638900495,0.7049728838813101,0.007263002628018468,0.007864250608843212,0.005350000000000001,0.029070000000000002,0.00846,2.14,-0.6385000000000001,-9.299800000000001,4.594439198147951,10.277484819905078,23.799999237060547,24.079999923706055,18.350000381469727,17.600000381469727,19.32581881648613,19.553181955648615,14.900369496756936,14.291362581756935,17.017683212662156,0.6558217804129366,-9.100000381469727,41.875,0.0,0.0,0.0,0.0,0.0,snow/ice covered,0.24457710981369,-8.10775470733643,100.0,484.432006835938
arenacam6_1769616038956022733.png,1769616038956022733,1769616038.9560227,42.30113206610789,-83.69745138739552,239.1956329345703,0.7093182791461341,0.7048031580863444,0.007683103869632546,0.007813906552483601,-0.034370000000000005,0.04293,0.029990000000000003,1.1529,-0.3916,-10.288,4.622476562375734,10.340202721440775,23.5,24.239999771118164,17.559999465942383,18.119998931884766,19.08221667,19.68310330694584,14.258881469540292,14.713606199080584,16.93445191139168,0.6377291981207966,-9.100000381469727,41.92499923706055,0.0,0.0,0.0,0.0,0.0,snow/ice covered,0.24457710981369,-8.10775470733643,100.0,484.432006835938
arenacam6_1769616038976876749.png,1769616038976876749,1769616038.9768767,42.30113374155847,-83.69745143453957,239.19644165039062,0.7095226450891263,0.7045837207834021,0.008620324055125257,0.00806762207413111,-0.06452000000000001,0.01999,0.020110000000000003,1.679,0.919,-10.9262,4.677704337300155,10.46374394028021,23.799999237060547,24.28999900817871,17.529998779296875,18.60999870300293,19.32581881648613,19.72370314843197,14.234520635377809,15.111490531026423,17.09888328283058,0.6341075795068326,-9.100000381469727,42.20000076293945,0.0,0.0,0.0,0.0,0.0,snow/ice covered,0.24457710981369,-8.10775470733643,100.0,484.432006835938
arenacam6_1769616038997144955.png,1769616038997144955,1769616038.997145,42.30113374155847,-83.69745143453957,239.19644165039062,0.7096745731994178,0.7044210139462806,0.009223507269433114,0.008243917683281041,-0.05566000000000001,0.020620000000000003,0.018730000000000004,2.3645,-0.3342,-10.490400000000001,4.6966224168891575,10.506062549236033,24.25,24.10999870300293,18.440000534057617,18.09000015258789,19.691223585,19.57754124102642,14.97345045045971,14.689246913702775,17.232865547547227,0.6402782171519003,-9.100000381469727,42.10000228881836,0.0,0.0,0.0,0.0,0.0,snow/ice covered,0.24457710981369,-8.10775470733643,100.0,484.432006835938
arenacam6_1769616039018153996.png,1769616039018153996,1769616039.018154,42.30113544519543,-83.69745148046873,239.19879150390625,0.7097989820496025,0.7042826896303117,0.009769202857815674,0.008709813084383544,-0.07144,0.008050000000000002,0.01973,1.153,0.458,-11.3856,4.749742996644136,10.624890098913133,24.0,24.059999465942383,18.350000381469727,17.28999900817871,19.48822128,19.53694139954029,14.900369496756936,14.03963860843197,16.9912926961823,0.5991970305575598,-9.199999809265137,42.0,0.0,0.0,0.0,0.0,0.0,snow/ice covered,0.24457710981369,-8.10775470733643,100.0,484.432006835938
arenacam6_1769616039038720662.png,1769616039038720662,1769616039.0387208,42.30113544519543,-83.69745148046873,239.19879150390625,0.7099481544955039,0.7041217089609975,0.010304057309550087,0.008947809856830805,-0.05208,0.01805,0.019520000000000003,2.5860000000000003,0.3649,-10.575800000000001,4.78819137354887,10.71089681114641,24.579999923706055,23.799999237060547,18.279998779296875,17.81999969482422,19.959186565648615,19.32581881648613,14.843527550377807,14.470004052594453,17.14963424627675,0.6011389661069089,-9.199999809265137,41.97500228881836,0.0,0.0,0.0,0.0,0.0,snow/ice covered,0.24457710981369,-8.10775470733643,100.0,484.432006835938
arenacam6_1769616039059735965.png,1769616039059735965,1769616039.059736,42.30113718060877,-83.69745152943872,239.2030792236328,0.7100978597417611,0.7039646605299182,0.010503287695025365,0.009190607311948363,-0.019390000000000004,-0.0018600000000000003,0.021730000000000003,1.7748000000000002,1.2116,-10.316,4.830568433929286,10.805691752593777,24.799999237060547,23.920000076293945,18.149999618530273,18.850000381469727,20.13782803648613,19.423260604351388,14.737967033243065,15.306374106756934,17.401357445209378,0.6103881031987045,-9.199999809265137,42.0,0.0,0.0,0.0,0.0,0.0,snow/ice covered,0.24457710981369,-8.10775470733643,100.0,484.432006835938
arenacam6_1769616039079966778.png,1769616039079966778,1769616039.0799668,42.30113805284971,-83.6974515492576,239.20526123046875,0.7103279235441006,0.7037303159620343,0.010522222206047463,0.00933628777128672,0.0009700000000000002,0.00237,0.025310000000000003,0.8597,1.9041000000000001,-9.835700000000001,4.871680110337118,10.897656106017513,24.25,24.03999900817871,18.119998931884766,19.09000015258789,19.691223585,19.52070084343197,14.713606199080584,15.501256133702775,17.356696690303835,0.5926999825879753,-9.100000381469727,42.025001525878906,0.0,0.0,0.0,0.0,0.0,snow/ice covered,0.24457710981369,-8.10775470733643,100.0,484.432006835938
arenacam6_1769616039100936512.png,1769616039100936512,1769616039.1009364,42.30113893520189,-83.69745157363938,239.20797729492188,0.7103936160259112,0.7036669826780703,0.01045741433046424,0.009183152176228507,0.031000000000000003,0.012090000000000002,0.018400000000000003,1.963,1.1064,-9.804400000000001,4.891051654517761,10.940989088056961,23.899999618530273,24.28999900817871,18.649999618530273,18.079999923706055,19.407020048243066,19.72370314843197,15.143971643243065,14.681126635648614,17.238955368891677,0.5756304325090218,-9.100000381469727,42.10000228881836,0.0,8.0,0.0,0.0,0.0,snow/ice covered,0.24457710981369,-8.10775470733643,100.0,484.432006835938
arenacam6_1769616039121268214.png,1769616039121268214,1769616039.1212683,42.301139826095536,-83.69745158911542,239.21041870117188,0.7106397329540867,0.7034272524610317,0.010009725018877771,0.009004212742624683,0.028200000000000003,-0.017120000000000003,0.031230000000000004,1.2297,0.6312,-10.1316,4.950405563212437,11.073760220572428,23.920000076293945,24.369998931884766,19.0,17.6299991607666,19.423260604351388,19.78866382408058,15.428175180000002,14.315721867134743,17.23895536889168,0.5567390864094905,-9.100000381469727,41.70000076293945,0.0,8.0,0.0,0.0,0.0,snow/ice covered,0.24457710981369,-8.10775470733643,100.0,484.432006835938
arenacam6_1769616039142398486.png,1769616039142398486,1769616039.1423984,42.30114071690831,-83.69745160375322,239.2126922607422,0.710707424979446,0.7033620646751897,0.00986938130927511,0.008908275226521531,0.03336,-0.006680000000000001,0.018730000000000004,1.1706,0.3866,-9.7919,4.961985425326725,11.099663677330366,24.0,24.03999900817871,18.559999465942383,18.229999542236328,19.48822128,19.52070084343197,15.070890689540292,14.802927708891678,17.220685130465984,0.5514600830326973,-9.100000381469727,41.900001525878906,0.0,4.0,0.0,0.0,0.0,snow/ice covered,0.24457710981369,-8.10775470733643,100.0,484.432006835938
arenacam6_1769616039162683862.png,1769616039162683862,1769616039.162684,42.301141616902186,-83.6974516247768,239.2154541015625,0.7109151697959529,0.7031614329435063,0.009492852395315764,0.00857358316149309,0.032970000000000006,-0.0035700000000000007,0.027250000000000003,2.4671000000000003,-0.1635,-9.578100000000001,5.019527275941402,11.228381344644362,23.979999542236328,23.6299991607666,18.229999542236328,19.260000228881836,19.47198072389168,19.187777187134742,14.802927708891678,15.639297763054161,17.275495845743066,0.5385562099725992,-9.0,41.900001525878906,0.0,0.0,0.0,0.0,0.0,snow/ice covered,0.24457710981369,-8.10775470733643,100.0,484.432006835938
arenacam6_1769616039183528889.png,1769616039183528889,1769616039.183529,42.30114252495977,-83.69745163876372,239.21755981445312,0.7109958536038254,0.7030818978800385,0.009352308825196618,0.008560102289615752,0.02135,-0.01856,0.021190000000000004,2.0874,0.3618,-9.8521,5.0401888765347485,11.27460010547564,24.25,23.68000030517578,19.43000030517578,19.389999389648438,19.691223585,19.22837857740555,15.77733939240555,15.744858280188904,17.610449958750003,0.5619578338922445,-9.0,42.22500228881836,0.0,0.0,0.0,0.0,0.0,snow/ice covered,0.24457710981369,-8.10775470733643,100.0,484.432006835938
arenacam6_1769616039204574688.png,1769616039204574688,1769616039.2045748,42.30114343435564,-83.69745165451835,239.21978759765625,0.7111853422519124,0.7028976716009121,0.00900003038037792,0.008322960843278633,0.024890000000000006,-0.0033000000000000004,0.018170000000000006,2.0522,0.0463,-10.299100000000001,5.079937049799936,11.363514384179469,24.119998931884766,24.219999313354492,19.5,17.969999313354492,19.58566151908058,19.666862750837517,15.83417979,14.591805125837517,17.419627296438904,0.5329436569984798,-8.90000057220459,42.32500076293945,0.0,8.0,0.0,0.0,0.0,snow/ice covered,0.24457710981369,-8.10775470733643,100.0,484.432006835938
arenacam6_1769616039225073490.png,1769616039225073490,1769616039.2250733,42.30114435231312,-83.6974516710385,239.22267150878906,0.7112403504514218,0.7028433259634063,0.008910738193740329,0.00830793495873124,0.014720000000000002,-0.010840000000000002,0.015290000000000003,2.5318,0.2988,-10.1707,5.105112991279352,11.419831454712435,23.899999618530273,24.279998779296875,19.239999771118164,17.959999084472656,19.407020048243066,19.71558287037781,15.62305720694584,14.583684847783356,17.332336243337515,0.5177401095692409,-8.800000190734863,42.125,0.0,20.0,0.0,0.0,0.0,snow/ice covered,0.24457710981369,-8.10775470733643,100.0,484.432006835938
arenacam6_1769616039266256536.png,1769616039266256536,1769616039.2662566,42.30114620827748,-83.69745169643494,239.2271728515625,0.7114226498924741,0.7026613042697022,0.008645846587616118,0.008375800782881112,-0.006300000000000001,-0.006360000000000001,0.012420000000000002,1.3314000000000001,0.1068,-8.8039,5.16922194322327,11.563239333673863,25.489999771118164,24.40999984741211,18.899999618530273,20.079999923706055,20.69811483194584,19.821144936297227,15.346973948243065,16.305145075648614,18.042844698033687,0.5603624708770193,-8.5,42.07500076293945,0.0,24.0,0.0,0.0,0.0,snow/ice covered,0.24457710981369,-8.10775470733643,100.0,484.432006835938
arenacam6_1769616039307541120.png,1769616039307541120,1769616039.307541,42.30114714385309,-83.6974517130985,239.2295684814453,0.7115943871696067,0.702483138313626,0.008866782740518312,0.00849992338691092,-0.012340000000000002,0.010530000000000001,0.013830000000000002,1.5796000000000001,-0.40490000000000004,-9.634,5.230322986458381,11.699918701328212,25.739999771118164,24.90999984741211,20.600000381469727,18.770000457763672,20.90111713694584,20.227149546297223,16.727390241756936,15.241413431108322,18.27426758902708,0.5619140658603489,-8.199999809265137,42.29999923706055,0.0,28.0,0.0,0.0,0.0,snow/ice covered,0.24457710981369,-8.10775470733643,100.0,484.432006835938
arenacam6_1769616039349312794.png,1769616039349312794,1769616039.3493128,42.301149034608535,-83.69745173434983,239.23291015625,0.7117192738436291,0.7023503639858809,0.009091810090466754,0.008773849649786492,-0.005930000000000001,-0.01139,0.00803,1.6895,0.274,-9.7806,5.3112444488129125,11.880935157327556,24.959999084472656,25.529998779296875,21.149999618530273,18.479999542236328,20.267749387783354,20.73059439537781,17.173994693243067,15.005930013891678,18.294567122573977,0.5398255171261345,-8.100000381469727,42.17499923706055,0.0,24.0,0.0,0.0,0.0,snow/ice covered,0.24457710981369,-8.10775470733643,100.0,484.432006835938
arenacam6_1769616039370283423.png,1769616039370283423,1769616039.3702836,42.30115095123367,-83.69745175581086,239.23681640625,0.7117448974262633,0.7023232781452242,0.009176684763715443,0.008775102265582422,0.0014100000000000002,0.007720000000000001,0.0006500000000000001,1.8933,0.5217,-9.5777,5.3507884156154235,11.969392638426767,24.59000015258789,25.43000030517578,21.31999969482422,18.90999984741211,19.967306843702776,20.64939471240555,17.31203632259445,15.355094226297227,18.32095802625,0.5306506002177627,-8.100000381469727,42.150001525878906,0.0,52.0,0.0,0.0,0.0,snow/ice covered,0.24457710981369,-8.10775470733643,100.0,484.432006835938
arenacam6_1769616039390329284.png,1769616039390329284,1769616039.3903294,42.30115095123367,-83.69745175581086,239.23681640625,0.7117554422608243,0.7023129876786497,0.009174278703924631,0.008745876757068874,0.00461,0.0037600000000000008,0.0029900000000000005,2.4907,0.7356,-9.6111,5.375554821193188,12.02479360171989,24.619998931884766,25.229999542236328,20.850000381469727,18.69999885559082,19.99166612908058,20.486992248891678,16.930392546756934,15.184571484729195,18.148405602364598,0.509248824010489,-8.100000381469727,42.125,0.0,36.0,0.0,0.0,0.0,snow/ice covered,0.24457710981369,-8.10775470733643,100.0,484.432006835938
arenacam6_1769616039411750165.png,1769616039411750165,1769616039.41175,42.301152887388646,-83.69745176919459,239.24046325683594,0.7117394744447304,0.702332376832322,0.009023855621552102,0.008644246637017105,0.01871,0.013940000000000003,-0.0034000000000000002,0.2177,1.0469,-8.965900000000001,5.4093786358631375,12.100455445707688,25.68000030517578,24.779998779296875,20.489999771118164,18.899999618530273,20.852397017405547,20.12158748037781,16.63806873194584,15.346973948243065,18.239756794493065,0.507361179612717,-8.0,42.025001525878906,0.0,44.0,0.0,0.0,0.0,snow/ice covered,0.24457710981369,-8.10775470733643,100.0,484.432006835938
arenacam6_1769616039431685141.png,1769616039431685141,1769616039.4316852,42.301152887388646,-83.69745176919459,239.24046325683594,0.711725208451177,0.702349339806325,0.009061048776317233,0.008398209560439858,0.029300000000000007,0.03982000000000001,-0.005360000000000001,1.5223,0.43760000000000004,-8.9895,5.424441534606872,12.134150246423498,26.34000015258789,24.34000015258789,20.350000381469727,19.19999885559082,21.388322978702774,19.764304538702774,16.524387936756934,15.590576094729194,18.316897887222922,0.5095328074268545,-8.0,42.07500076293945,0.0,44.0,0.0,0.0,0.0,snow/ice covered,0.24457710981369,-8.10775470733643,100.0,484.432006835938
arenacam6_1769616039452999199.png,1769616039452999199,1769616039.452999,42.301154847056125,-83.69745176600561,239.24258422851562,0.7116876476209536,0.7023971032213843,0.008832101963805189,0.007809967020568996,0.043300000000000005,0.013800000000000002,-0.00158,1.3858000000000001,0.498,-10.0878,5.4831205363236775,12.265411652523888,26.799999237060547,24.439998626708984,20.420000076293945,19.170000076293945,21.76184647648613,19.845504221675036,16.581228334351387,15.566216809351387,18.438698960465985,0.5033086114701909,-8.0,41.92499923706055,0.0,44.0,0.0,0.0,0.0,snow/ice covered,0.24457710981369,-8.10775470733643,100.0,484.432006835938
arenacam6_1769616039473078401.png,1769616039473078401,1769616039.4730785,42.30115583606269,-83.6974517687579,239.24420166015625,0.7116223200727487,0.7024696335684947,0.008752658386475345,0.007312896798988191,0.03721000000000001,0.030890000000000004,-0.010050000000000002,1.3509,0.3617,-9.9933,5.509593891248535,12.324630959089498,27.489999771118164,24.889999389648438,20.059999465942383,18.889999389648438,22.32213327194584,20.210908990188905,16.288904519540292,15.338853670188904,18.540200112965984,0.5043209143144738,-7.900000095367432,41.92499923706055,0.0,40.0,0.0,0.0,0.0,snow/ice covered,0.24457710981369,-8.10775470733643,100.0,484.432006835938
arenacam6_1769616039494498430.png,1769616039494498430,1769616039.4944983,42.30115683448318,-83.69745176204732,239.24539184570312,0.7115835865590481,0.7025164839154273,0.00867717492017522,0.006640467022095361,0.0592,0.03815,-0.006200000000000001,2.4835000000000003,0.7794000000000001,-9.8794,5.550476226353017,12.41608228977812,28.8799991607666,25.31999969482422,21.25,18.770000457763672,23.450825592134745,20.560073202594452,17.255195925000002,15.241413431108322,19.12687703770938,0.5404921287817259,-7.900000095367432,42.04999923706055,0.0,28.0,0.0,0.0,0.0,snow/ice covered,0.24457710981369,-8.10775470733643,100.0,484.432006835938
arenacam6_1769616039514387230.png,1769616039514387230,1769616039.5143871,42.30115783285067,-83.69745176009481,239.2469482421875,0.7114517537405627,0.702658275188884,0.008458541391619884,0.006016933237675862,0.02985,0.030130000000000004,-0.010230000000000003,1.693,0.09730000000000001,-10.698400000000001,5.603800704052992,12.5353659469243,29.010000228881836,25.439998626708984,22.350000381469727,17.420000076293945,23.55638765805416,20.657513441675032,18.148406376756938,14.145200674351388,19.12687703770938,0.5258331602518861,-7.700000286102295,41.900001525878906,0.0,24.0,0.0,0.0,0.0,snow/ice covered,0.24457710981369,-8.10775470733643,100.0,484.432006835938
arenacam6_1769616039535204093.png,1769616039535204093,1769616039.5352042,42.30115884286078,-83.6974517607915,239.2491912841797,0.7113737748984832,0.7027384553326804,0.008447274863320932,0.005887217568925105,0.020130000000000002,0.016790000000000003,-0.022170000000000002,2.6418,-0.49420000000000003,-10.1669,5.629863428520379,12.593666697794376,28.68000030517578,26.059999465942383,23.479999542236328,16.309999465942383,23.28842467740555,21.160959839540293,19.065976113891676,13.24386994454029,19.189807643844453,0.523766517276919,-7.700000286102295,42.17499923706055,0.0,16.0,0.0,0.0,0.0,snow/ice covered,0.24457710981369,-8.10775470733643,100.0,484.432006835938
arenacam6_1769616039556234461.png,1769616039556234461,1769616039.5562346,42.301159861044496,-83.69745175719012,239.25132751464844,0.7112395143318481,0.7028744617034819,0.008554413364242178,0.005715448366591846,-0.0009700000000000002,0.022510000000000002,-0.015790000000000002,2.0172,-0.053700000000000005,-9.867600000000001,5.679926556105364,12.705654910414333,29.01999855041504,26.899999618530273,24.309999465942383,16.469999313354492,23.56450638732365,21.843047708243066,19.73994370454029,13.373791295837517,19.63032227398613,0.5450067243598687,-7.599999904632568,41.92499923706055,0.0,48.0,0.0,0.0,0.0,snow/ice covered,0.24457710981369,-8.10775470733643,100.0,484.432006835938
arenacam6_1769616039577306194.png,1769616039577306194,1769616039.577306,42.301160882201785,-83.69745175550558,239.25357055664062,0.7111470927784185,0.7029665379502475,0.00864436446807606,0.00575620690994324,-0.018670000000000003,0.007190000000000001,-0.027130000000000005,2.6646,-0.6409,-10.6183,5.706191063602384,12.764407037814719,28.920000076293945,27.099998474121094,24.3799991607666,16.369998931884766,23.48330670435139,22.00544862297226,19.796784102134744,13.292590064080583,19.644532373384745,0.5390086131841116,-7.700000286102295,42.125,0.0,60.0,0.0,0.0,0.0,snow/ice covered,0.24457710981369,-8.10775470733643,100.0,484.432006835938
arenacam6_1769616039597285946.png,1769616039597285946,1769616039.597286,42.301161910912704,-83.69745175745099,239.25672912597656,0.710971217112191,0.7031380772193456,0.008803086169115959,0.006267254278437273,-0.03132,-0.01682,-0.01983,1.7323000000000002,0.5687,-11.0808,5.75937890243279,12.883385042008005,28.849998474121094,26.939998626708984,25.56999969482422,16.649999618530273,23.42646475797226,21.875527271675033,20.763075507594454,13.519953203243064,19.896255185121202,0.5443344369703144,-7.700000286102295,42.07500076293945,0.0,76.0,0.0,0.0,0.0,snow/ice covered,0.24457710981369,-8.10775470733643,100.0,484.432006835938
arenacam6_1769616039618321021.png,1769616039618321021,1769616039.618321,42.30116295007899,-83.69745175462174,239.2600555419922,0.7108626442357989,0.7032457473688578,0.008834842217260379,0.006454874181641369,-0.031090000000000007,-0.0216,-0.030850000000000002,1.7619,0.5308,-10.494100000000001,5.77662241671319,12.921957748842404,29.389999389648438,26.939998626708984,25.350000381469727,16.579999923706055,23.864950480188906,21.875527271675033,20.584434036756935,13.463112805648613,19.947006148567368,0.5436520174626243,-7.700000286102295,42.275001525878906,0.0,68.0,0.0,0.0,0.0,snow/ice covered,0.24457710981369,-8.10775470733643,100.0,484.432006835938
arenacam6_1769616039638970253.png,1769616039638970253,1769616039.6389704,42.301163991335926,-83.69745175195169,239.26319885253906,0.7106256786482775,0.7034835088878935,0.008663470720676601,0.006858705674131151,0.0134,-0.03887,-0.024540000000000003,1.6636000000000002,0.6980000000000001,-10.464400000000001,5.83382745335923,13.049921983517397,29.729999542236328,26.8799991607666,25.260000228881836,17.029998779296875,24.14103373889168,21.82680715213474,20.511353083054164,13.828516025377809,20.0769274998646,0.5384710747867004,-7.900000095367432,42.45000076293945,0.0,128.0,0.0,0.0,0.0,snow/ice covered,0.24457710981369,-8.10775470733643,100.0,484.432006835938
arenacam6_1769616039660252299.png,1769616039660252299,1769616039.6602523,42.301165039427,-83.6974517529957,239.26727294921875,0.710505365111148,0.7036057745460567,0.008514909688351061,0.006966813239712901,0.005600000000000001,-0.03599,-0.034780000000000005,1.0932,-0.6443,-10.622,5.844510741976154,13.073819859156139,29.969999313354492,26.149999618530273,26.209999084472656,16.770000457763672,24.33591576583752,21.234040793243068,21.282760912783356,13.617394991108322,20.117528115743067,0.5387643651563645,-8.0,42.32500076293945,0.0,128.0,0.0,0.0,0.0,snow/ice covered,0.24457710981369,-8.10775470733643,100.0,484.432006835938
arenacam6_1769616039680405830.png,1769616039680405830,1769616039.6804059,42.30116609598441,-83.69745174792254,239.27084350585938,0.7102558289002547,0.7038578044350868,0.008292070509103243,0.007217355173688694,0.004660000000000001,-0.02014,-0.024930000000000004,2.7795,-0.053000000000000005,-9.1549,5.900576547174906,13.199235701437436,30.42999839782715,25.529998779296875,26.489999771118164,16.8799991607666,24.709439263620872,20.73059439537781,21.510124051945837,13.706714952134744,20.164218165769817,0.5276807401487553,-8.100000381469727,42.29999923706055,0.0,128.0,0.0,0.0,0.0,snow/ice covered,0.24457710981369,-8.10775470733643,100.0,484.432006835938
