image_filename,timestamp_ns,timestamp_sec,latitude,longitude,altitude,orientation_x,orientation_y,orientation_z,orientation_w,angular_velocity_x,angular_velocity_y,angular_velocity_z,linear_acceleration_x,linear_acceleration_y,linear_acceleration_z,vehicle_speed_mps,vehicle_speed_mph,wheel_speed_fl_rads,wheel_speed_fr_rads,wheel_speed_rl_rads,wheel_speed_rr_rads,wheel_speed_fl_mph,wheel_speed_fr_mph,wheel_speed_rl_mph,wheel_speed_rr_mph,avg_wheel_speed_mph,wheel_slip,steering_angle_deg,throttle_pedal,brake_pedal,brake_torque_actual,abs_active,esc_active,trac_active,marwis_road_condition,marwis_friction,marwis_surface_temp_c,marwis_ice_percent,marwis_water_film_height
frame_00000.png,1769615218427998926,1769615218.427999,42.29943047997312,-83.69754745753725,234.2988739013672,0.7301819843896442,0.68315135951188,0.006059720673016527,0.010088084815082303,0.00064,0.00046000000000000007,-0.0005000000000000001,-0.0521,0.22260000000000002,-9.8019,0.002449396610038523,0.005479153252859574,0.0,0.0,0.0,0.0,0.0,0.0,0.0,0.0,0.0,0.0,3.799999952316284,0.0,404.0,680.0,0.0,0.0,0.0,snow covered,0.25834733247757,-8.3919563293457,100.0,454.298522949219
frame_00001.png,1769615218448630847,1769615218.4486308,42.299430479359536,-83.69754745712844,234.2989501953125,0.7301832422324854,0.6831499091542977,0.006058734913522174,0.01009584650129668,0.00020000000000000004,-8e-05,0.0009500000000000001,-0.0506,0.225,-9.8078,0.0023429519879065346,0.005241043019827644,0.0,0.0,0.0,0.0,0.0,0.0,0.0,0.0,0.0,0.0,3.799999952316284,0.0,404.0,680.0,0.0,0.0,0.0,snow covered,0.25834733247757,-8.3919563293457,100.0,454.298522949219
frame_00002.png,1769615218467595177,1769615218.4675953,42.299430478774454,-83.69754745670703,234.2990264892578,0.7301852901888903,0.683147673868825,0.00606365142747756,0.010096029454481561,-0.0009500000000000001,-0.0008400000000000001,0.0006700000000000001,-0.0502,0.2281,-9.7905,0.002350139774150591,0.005257121666388424,0.0,0.0,0.0,0.0,0.0,0.0,0.0,0.0,0.0,0.0,3.799999952316284,0.0,404.0,680.0,0.0,0.0,0.0,snow covered,0.25834733247757,-8.3919563293457,100.0,454.298522949219
frame_00003.png,1769615218488476648,1769615218.4884768,42.299430479144746,-83.69754745571689,234.299072265625,0.7301838037530791,0.6831490934226381,0.006068335979220016,0.01010466184272339,-0.00019000000000000004,-0.00025000000000000006,-0.00072,-0.044700000000000004,0.23440000000000003,-9.8001,0.0023567669088546722,0.005271946169093371,0.0,0.0,0.0,0.0,0.0,0.0,0.0,0.0,0.0,0.0,3.799999952316284,0.0,404.0,680.0,0.0,0.0,0.0,snow covered,0.25834733247757,-8.3919563293457,100.0,454.298522949219
frame_00004.png,1769615218509020783,1769615218.5090206,42.29943047861151,-83.6975474552612,234.2991485595703,0.7301861793994213,0.6831465222727061,0.006070032018482727,0.010105801901750663,-0.0005000000000000001,-0.0003800000000000001,0.00055,-0.038700000000000005,0.2194,-9.8058,0.002349153485625848,0.005254915398135884,0.0,0.0,0.0,0.0,0.0,0.0,0.0,0.0,0.0,0.0,3.799999952316284,0.0,404.0,680.0,0.0,0.0,0.0,snow covered,0.25834733247757,-8.3919563293457,100.0,454.298522949219
frame_00005.png,1769615218529468321,1769615218.5294683,42.29943047808743,-83.69754745476841,234.29922485351562,0.7301888911266982,0.6831435701750515,0.006073477939507627,0.010107357189976652,-0.0016200000000000001,-0.0008200000000000001,-0.00026000000000000003,-0.0396,0.23170000000000002,-9.8004,0.0025544135233495227,0.0057140697869214815,0.0,0.0,0.0,0.0,0.0,0.0,0.0,0.0,0.0,0.0,3.799999952316284,0.0,404.0,680.0,0.0,0.0,0.0,snow covered,0.25834733247757,-8.3919563293457,100.0,454.298522949219
frame_00006.png,1769615218550208633,1769615218.5502086,42.299430478512036,-83.69754745379461,234.29928588867188,0.7301953981820355,0.6831365558023045,0.006081909242100917,0.010106284199165344,0.0012900000000000001,2e-05,-0.00014000000000000004,-0.038200000000000005,0.2214,-9.8101,0.0025478699516582382,0.005699432209662379,0.0,0.0,0.0,0.0,0.0,0.0,0.0,0.0,0.0,0.0,3.799999952316284,0.0,404.0,680.0,0.0,0.0,0.0,snow covered,0.25834733247757,-8.3919563293457,100.0,454.298522949219
frame_00007.png,1769615218570906805,1769615218.5709069,42.299430477558936,-83.69754745319375,234.29928588867188,0.7301961989476868,0.6831354326579334,0.006085250979545162,0.010122322368131183,-0.0015500000000000002,-0.00117,0.0005600000000000002,-0.0475,0.23,-9.783900000000001,0.0026481054224713136,0.00592365294374298,0.0,0.0,0.0,0.0,0.0,0.0,0.0,0.0,0.0,0.0,3.799999952316284,0.0,404.0,680.0,0.0,0.0,0.0,snow covered,0.25834733247757,-8.3919563293457,100.0,454.298522949219
frame_00008.png,1769615218591593487,1769615218.5915935,42.29943047662709,-83.69754745262068,234.29928588867188,0.7301965689544202,0.683135028063683,0.006089556680803953,0.010120346785315903,-0.0005000000000000001,5.000000000000001e-05,0.00021000000000000004,-0.055,0.2245,-9.8092,0.0024480855809268765,0.005476220559398568,0.0,0.0,0.0,0.0,0.0,0.0,0.0,0.0,0.0,0.0,3.799999952316284,0.0,404.0,680.0,0.0,0.0,0.0,snow covered,0.25834733247757,-8.3919563293457,100.0,454.298522949219
frame_00009.png,1769615218612327090,1769615218.612327,42.29943047705422,-83.6975474516117,234.29934692382812,0.7301928774673327,0.6831390837025287,0.006085171938703683,0.010115567039111277,0.0012000000000000001,0.00079,-0.0006700000000000001,-0.041600000000000005,0.2389,-9.795300000000001,0.0026614042126327946,0.0059534015394068045,0.0,0.0,0.0,0.0,0.0,0.0,0.0,0.0,0.0,0.0,3.799999952316284,0.0,404.0,680.0,0.0,0.0,0.0,snow covered,0.25834733247757,-8.3919563293457,100.0,454.298522949219
frame_00010.png,1769615218632924761,1769615218.6329246,42.29943047617023,-83.69754745095972,234.29934692382812,0.7301938532984743,0.6831380093046779,0.006082918972051057,0.010119038746207695,-0.00032,-0.0009300000000000002,0.00055,-0.0425,0.22540000000000002,-9.7954,0.0026613953998392424,0.005953381825716395,0.0,0.0,0.0,0.0,0.0,0.0,0.0,0.0,0.0,0.0,3.799999952316284,0.0,404.0,680.0,0.0,0.0,0.0,snow covered,0.25834733247757,-8.3919563293457,100.0,454.298522949219
frame_00011.png,1769615218653635222,1769615218.6536353,42.29943047526037,-83.69754745030275,234.29934692382812,0.730193283704218,0.683138726083726,0.006084259906373794,0.010110941565802079,0.00058,0.0016400000000000002,-0.0008900000000000001,-0.0656,0.22690000000000002,-9.802900000000001,0.002256149452969771,0.005046870957326199,0.0,0.0,0.0,0.0,0.0,0.0,0.0,0.0,0.0,0.0,3.799999952316284,0.0,404.0,680.0,0.0,0.0,0.0,snow covered,0.25834733247757,-8.3919563293457,100.0,454.298522949219
frame_00012.png,1769615218674356462,1769615218.6743565,42.29943047563763,-83.69754744928738,234.29940795898438,0.7301888982452139,0.6831434865454138,0.0060826883950159515,0.010106956609474799,0.0005200000000000001,0.0009500000000000001,-0.0016200000000000001,-0.0516,0.23870000000000002,-9.8057,0.002262268533420398,0.005060558973149425,0.0,0.0,0.0,0.0,0.0,0.0,0.0,0.0,0.0,0.0,3.799999952316284,0.0,404.0,680.0,0.0,0.0,0.0,snow covered,0.25834733247757,-8.3919563293457,100.0,454.298522949219
frame_00013.png,1769615218694976215,1769615218.6949763,42.29943047472594,-83.69754744865163,234.29940795898438,0.7301975121960085,0.6831343726870592,0.006080971976426227,0.010101673922674203,0.00064,-0.00032,0.0011800000000000003,-0.0551,0.21880000000000002,-9.7966,0.0020500051654593213,0.004585738554822575,0.0,0.0,0.0,0.0,0.0,0.0,0.0,0.0,0.0,0.0,3.799999952316284,0.0,404.0,680.0,0.0,0.0,0.0,snow covered,0.25834733247757,-8.3919563293457,100.0,454.298522949219
frame_00014.png,1769615218716197254,1769615218.7161975,42.29943047382115,-83.69754744794568,234.29942321777344,0.7301934518547392,0.6831387204806438,0.00608466020046855,0.01009892859536834,7.000000000000002e-05,0.00022000000000000003,-0.0005200000000000001,-0.060500000000000005,0.2223,-9.805,0.0018565930490245216,0.004153087255084914,0.0,0.0,0.0,0.0,0.0,0.0,0.0,0.0,0.0,0.0,3.799999952316284,0.0,404.0,680.0,0.0,0.0,0.0,snow covered,0.25834733247757,-8.3919563293457,100.0,454.298522949219
frame_00015.png,1769615218737023792,1769615218.7370238,42.29943047412058,-83.6975474469506,234.29946899414062,0.7301924187557339,0.6831398609805033,0.0060797050047529545,0.010099461284878552,0.00039000000000000005,-0.0004900000000000001,0.00024,-0.048100000000000004,0.22260000000000002,-9.799800000000001,0.0018560682246969852,0.004151913254553674,0.0,0.0,0.0,0.0,0.0,0.0,0.0,0.0,0.0,0.0,3.799999952316284,0.0,404.0,680.0,0.0,0.0,0.0,snow covered,0.25834733247757,-8.3919563293457,100.0,454.298522949219
frame_00016.png,1769615218758740324,1769615218.7587402,42.29943047322077,-83.697547446304,234.2994842529297,0.7301938859117751,0.6831383105493418,0.006089472303274095,0.010092371570633283,-0.0019600000000000004,0.0017500000000000003,0.00024,-0.038200000000000005,0.22440000000000002,-9.811300000000001,0.0017497152131444541,0.003914007948891356,0.0,0.0,0.0,0.0,0.0,0.0,0.0,0.0,0.0,0.0,3.799999952316284,0.0,404.0,680.0,0.0,0.0,0.0,snow covered,0.25834733247757,-8.3919563293457,100.0,454.298522949219
frame_00017.png,1769615218777731506,1769615218.7777317,42.29943047234339,-83.69754744565833,234.29949951171875,0.7301921473554374,0.6831401049174076,0.006092960325393573,0.010094594016674853,-9e-05,6e-05,-0.00037000000000000005,-0.0417,0.22060000000000002,-9.7959,0.0018428216888417496,0.004122281548637663,0.0,0.0,0.0,0.0,0.0,0.0,0.0,0.0,0.0,0.0,3.799999952316284,0.0,404.0,680.0,0.0,0.0,0.0,snow covered,0.25834733247757,-8.3919563293457,100.0,454.298522949219
frame_00018.png,1769615218798446403,1769615218.7984464,42.299430472630064,-83.69754744469722,234.29954528808594,0.7301969772136849,0.6831349469369209,0.006097954210883298,0.010091268301324065,0.0004500000000000001,0.00037000000000000005,0.0010000000000000002,-0.0437,0.2305,-9.7939,0.0019431723042722371,0.0043467598543187385,0.0,0.0,0.0,0.0,0.0,0.0,0.0,0.0,0.0,0.0,3.799999952316284,0.0,404.0,680.0,0.0,0.0,0.0,snow covered,0.25834733247757,-8.3919563293457,100.0,454.298522949219
frame_00019.png,1769615218819155903,1769615218.819156,42.29943047182433,-83.69754744406863,234.299560546875,0.7302031899060129,0.6831283826366549,0.006096956479714033,0.01008669465166831,0.00039000000000000005,-0.00024,0.0004300000000000001,-0.0422,0.2242,-9.8049,0.001942765659538471,0.004345850214447988,0.0,0.0,0.0,0.0,0.0,0.0,0.0,0.0,0.0,0.0,3.799999952316284,0.0,404.0,680.0,0.0,0.0,0.0,snow covered,0.25834733247757,-8.3919563293457,100.0,454.298522949219
frame_00020.png,1769615218839818748,1769615218.8398187,42.29943047111024,-83.69754744371005,234.2994842529297,0.7301956594619439,0.6831363799698865,0.006100918878531534,0.010087817078693951,-0.00039000000000000005,-2e-05,-0.0009800000000000002,-0.0429,0.2293,-9.8034,0.0019365231843426086,0.004331886171983355,0.0,0.0,0.0,0.0,0.0,0.0,0.0,0.0,0.0,0.0,3.799999952316284,0.0,404.0,680.0,0.0,0.0,0.0,snow covered,0.25834733247757,-8.3919563293457,100.0,454.298522949219
frame_00021.png,1769615218860625609,1769615218.8606257,42.299430471410844,-83.69754744279412,234.29954528808594,0.7301923132968381,0.6831400414958235,0.006099720764005973,0.010082792961174671,0.00116,0.00035000000000000005,-0.00027000000000000006,-0.035,0.232,-9.806600000000001,0.002036276469975302,0.004555028286746552,0.0,0.0,0.0,0.0,0.0,0.0,0.0,0.0,0.0,0.0,3.799999952316284,0.0,404.0,680.0,0.0,0.0,0.0,snow covered,0.25834733247757,-8.3919563293457,100.0,454.298522949219
frame_00022.png,1769615218881264250,1769615218.8812642,42.29943047075636,-83.6975474424213,234.2994842529297,0.7301967300929547,0.683135180060982,0.006112328458425922,0.010084669822181341,-0.0010400000000000001,0.00055,0.0004000000000000001,-0.0471,0.221,-9.7913,0.001937559413961006,0.004334204155465933,0.0,0.0,0.0,0.0,0.0,0.0,0.0,0.0,0.0,0.0,3.799999952316284,0.0,404.0,680.0,0.0,0.0,0.0,snow covered,0.25834733247757,-8.3919563293457,100.0,454.298522949219
frame_00023.png,1769615218901985916,1769615218.901986,42.29943047011234,-83.6975474420471,234.29942321777344,0.730199160321282,0.6831326166109564,0.006113094056540378,0.01008188818717287,-0.00055,0.00019000000000000004,-0.00021000000000000004,-0.0505,0.23040000000000002,-9.7939,0.0018383050086144565,0.004112178005970022,0.0,0.0,0.0,0.0,0.0,0.0,0.0,0.0,0.0,0.0,3.799999952316284,0.0,404.0,680.0,0.0,0.0,0.0,snow covered,0.25834733247757,-8.3919563293457,100.0,454.298522949219
frame_00024.png,1769615218922528144,1769615218.9225283,42.29943047041092,-83.6975474411192,234.29946899414062,0.7302039652861175,0.6831274560432143,0.0061183825125054065,0.010080341055091596,-6e-05,0.00055,0.0008200000000000001,-0.0407,0.225,-9.7901,0.0018464906707060214,0.004130488840929128,0.0,0.0,0.0,0.0,0.0,0.0,0.0,0.0,0.0,0.0,3.799999952316284,0.0,404.0,680.0,0.0,0.0,0.0,snow covered,0.25834733247757,-8.3919563293457,100.0,454.298522949219
frame_00025.png,1769615218943212248,1769615218.9432123,42.299430469782685,-83.69754744070728,234.2993927001953,0.730200233057703,0.6831314810027995,0.006117436810510817,0.01007850545803566,-5.000000000000001e-05,-0.0007600000000000002,-0.0010400000000000001,-0.0465,0.2175,-9.8085,0.0018393086579952891,0.004114423109415982,0.0,0.0,0.0,0.0,0.0,0.0,0.0,0.0,0.0,0.0,3.799999952316284,0.0,404.0,680.0,0.0,0.0,0.0,snow covered,0.25834733247757,-8.3919563293457,100.0,454.298522949219
frame_00026.png,1769615218964019352,1769615218.9640195,42.29943046917084,-83.6975474402836,234.29933166503906,0.7302033457311472,0.6831281679893003,0.00612031242284439,0.010075800636546116,-0.00016,-0.0003800000000000001,0.00037000000000000005,-0.0517,0.2257,-9.7979,0.0017400646639964535,0.003892420249480227,0.0,0.0,0.0,0.0,0.0,0.0,0.0,0.0,0.0,0.0,3.799999952316284,0.0,404.0,680.0,0.0,0.0,0.0,snow covered,0.25834733247757,-8.3919563293457,100.0,454.298522949219
frame_00027.png,1769615218984805638,1769615218.9848056,42.299430469453256,-83.69754743938644,234.29937744140625,0.7302068741778929,0.6831244970599762,0.006122299697184903,0.010067763720078043,0.0009200000000000001,-5.000000000000001e-05,0.00055,-0.044500000000000005,0.22870000000000001,-9.7969,0.001733950408271936,0.0038787430262798247,0.0,0.0,0.0,0.0,0.0,0.0,0.0,0.0,0.0,0.0,3.799999952316284,0.0,404.0,680.0,0.0,0.0,0.0,snow covered,0.25834733247757,-8.3919563293457,100.0,454.298522949219
frame_00028.png,1769615219005533554,1769615219.0055335,42.29943046825519,-83.69754743856278,234.29925537109375,0.7302102854025133,0.6831208623061231,0.00612047086508798,0.010068088741601307,-0.00018,-0.00010000000000000002,0.0007800000000000001,-0.057300000000000004,0.2258,-9.7972,0.0016346855992522044,0.0036566936043912262,0.0,0.0,0.0,0.0,0.0,0.0,0.0,0.0,0.0,0.0,3.799999952316284,0.0,404.0,680.0,0.0,0.0,0.0,snow covered,0.25834733247757,-8.3919563293457,100.0,454.298522949219
frame_00029.png,1769615219026271022,1769615219.0262709,42.299430468469666,-83.69754743766265,234.29928588867188,0.7302035145524012,0.6831282010859536,0.006116472776572976,0.010063646315483109,0.0007300000000000002,0.00017,-0.00058,-0.0659,0.229,-9.7871,0.0012369513899754896,0.002766986042291772,0.0,0.0,0.0,0.0,0.0,0.0,0.0,0.0,0.0,0.0,3.799999952316284,0.0,404.0,680.0,0.0,0.0,0.0,snow covered,0.25834733247757,-8.3919563293457,100.0,454.298522949219
frame_00030.png,1769615219047041585,1769615219.0470417,42.299430467823484,-83.69754743720796,234.29920959472656,0.730201810901894,0.683130003867363,0.006118983110153752,0.010063360148026699,-0.00099,-0.00101,-0.0009100000000000001,-0.0482,0.22820000000000001,-9.776200000000001,0.0012388644806905146,0.00277126551143584,0.0,0.0,0.0,0.0,0.0,0.0,0.0,0.0,0.0,0.0,3.799999952316284,0.0,404.0,680.0,0.0,0.0,0.0,snow covered,0.25834733247757,-8.3919563293457,100.0,454.298522949219
frame_00031.png,1769615219067336894,1769615219.067337,42.29943046760401,-83.69754743786467,234.2991180419922,0.730204190713619,0.6831274097888637,0.006123164439583984,0.010064229561790846,-0.0007700000000000001,0.0006000000000000001,0.0014200000000000003,-0.039400000000000004,0.2363,-9.7959,0.001253176762424076,0.0028032812269369128,0.0,0.0,0.0,0.0,0.0,0.0,0.0,0.0,0.0,0.0,3.799999952316284,0.0,404.0,680.0,0.0,0.0,0.0,snow covered,0.25834733247757,-8.3919563293457,100.0,454.298522949219
frame_00032.png,1769615219088239549,1769615219.0882397,42.299430467785754,-83.69754743692643,234.2991485595703,0.7302042564116618,0.6831273106389971,0.00613392961128832,0.010059636422206088,-0.0008400000000000001,-3e-05,-0.00024,-0.043300000000000005,0.2238,-9.7981,0.0012541538912524777,0.002805467005498318,0.0,0.0,0.0,0.0,0.0,0.0,0.0,0.0,0.0,0.0,3.799999952316284,0.0,404.0,676.0,0.0,0.0,0.0,snow covered,0.25834733247757,-8.3919563293457,100.0,454.298522949219
frame_00033.png,1769615219108926674,1769615219.1089268,42.2994304675778,-83.69754743752506,234.29905700683594,0.7302077258483326,0.6831236481103496,0.006135068924580305,0.010055815884553974,-0.00044000000000000007,-0.00027000000000000006,0.0005900000000000001,-0.0472,0.2285,-9.822700000000001,0.0011529866139305136,0.0025791618761657233,0.0,0.0,0.0,0.0,0.0,0.0,0.0,0.0,0.0,0.0,3.799999952316284,0.0,404.0,680.0,0.0,0.0,0.0,snow covered,0.25834733247757,-8.3919563293457,100.0,454.298522949219
frame_00034.png,1769615219129489272,1769615219.1294892,42.29943046740462,-83.697547438075,234.29896545410156,0.7302052804553927,0.6831261959423515,0.0061360345756226314,0.010059716302169846,-0.00096,-0.00018,-0.0008200000000000001,-0.0414,0.231,-9.816600000000001,0.001151999176031755,0.0025769530368324745,0.0,0.0,0.0,0.0,0.0,0.0,0.0,0.0,0.0,0.0,3.799999952316284,0.0,404.0,680.0,0.0,0.0,0.0,snow covered,0.25834733247757,-8.3919563293457,100.0,454.298522949219
frame_00035.png,1769615219150229846,1769615219.1502297,42.29943046763118,-83.69754743716213,234.2989959716797,0.7302013534249576,0.6831301464935349,0.00614346300891979,0.01007195464344789,-0.0010000000000000002,-0.00151,0.00019000000000000004,-0.031,0.2225,-9.817400000000001,0.0017358562401290172,0.003883006257794204,0.0,0.0,0.0,0.0,0.0,0.0,0.0,0.0,0.0,0.0,3.799999952316284,0.0,404.0,680.0,0.0,0.0,0.0,snow covered,0.25834733247757,-8.3919563293457,100.0,454.298522949219
frame_00036.png,1769615219172700990,1769615219.172701,42.29943046760728,-83.6975474377827,234.29893493652344,0.7301991192222296,0.6831324209535068,0.006134565512496333,0.010085079833789567,-0.0014500000000000003,-0.00269,6e-05,-0.0393,0.2114,-9.792900000000001,0.0020151431881538116,0.0045077544033087875,0.0,0.0,0.0,0.0,0.0,0.0,0.0,0.0,0.0,0.0,3.799999952316284,0.0,348.0,680.0,0.0,0.0,0.0,snow covered,0.25834733247757,-8.3919563293457,100.0,454.298522949219
frame_00037.png,1769615219192133435,1769615219.1921334,42.299430467483624,-83.69754743835858,234.29885864257812,0.7302099461160113,0.6831207572937126,0.0061323900207347,0.010092538845602567,-6e-05,0.00022000000000000003,0.00198,-0.0835,0.24070000000000003,-9.7802,0.0014118396346478924,0.003158200552329257,0.0,0.0,0.0,0.0,0.0,0.0,0.0,0.0,0.0,0.0,3.799999952316284,0.0,0.0,676.0,0.0,0.0,0.0,snow covered,0.25834733247757,-8.3919563293457,100.0,454.298522949219
frame_00038.png,1769615219212472427,1769615219.2124724,42.299430467766996,-83.69754743761888,234.2988739013672,0.7302085572239635,0.6831222798903933,0.006125637797270534,0.010094069339242454,0.0007700000000000001,-0.0032500000000000007,-0.00055,-0.0604,0.21860000000000002,-9.765600000000001,0.0014997211385429062,0.0033547862036521687,0.0,0.0,0.0,0.0,0.0,0.0,0.0,0.0,0.0,0.0,3.799999952316284,0.0,0.0,676.0,0.0,0.0,0.0,snow covered,0.25834733247757,-8.3919563293457,100.0,454.298522949219
frame_00039.png,1769615219233096270,1769615219.2330961,42.29943046740488,-83.6975474382409,234.29879760742188,0.7302135413219467,0.683117158437019,0.006126403608696209,0.010079637782055456,0.00068,-0.00048,0.0010700000000000002,-0.0862,0.252,-9.775400000000001,-2.567159139304942e-06,5.742580965076797e-06,0.0,0.0,0.0,0.0,0.0,0.0,0.0,0.0,0.0,0.0,3.799999952316284,0.0,0.0,648.0,0.0,0.0,0.0,snow covered,0.25834733247757,-8.3919563293457,100.0,454.298522949219
frame_00040.png,1769615219254064579,1769615219.2540646,42.29943046722259,-83.6975474388727,234.2987060546875,0.7302087452894525,0.6831225432665102,0.006136102086599551,0.010056213754746817,0.0014700000000000002,0.004000000000000001,-0.00143,-0.066,0.217,-9.7273,-0.0007105219145683934,0.0015893948915746221,0.0,0.0,0.0,0.0,0.0,0.0,0.0,0.0,0.0,0.0,3.799999952316284,0.0,0.0,568.0,0.0,0.0,0.0,snow covered,0.25834733247757,-8.3919563293457,100.0,454.298522949219
frame_00041.png,1769615219274491106,1769615219.274491,42.299430466975046,-83.69754743821294,234.29872131347656,0.7302166654847255,0.6831140076192482,0.006150991796898958,0.010051832800657773,-0.00068,0.004700000000000001,0.0008400000000000001,-0.1134,0.2044,-9.7665,-0.0015220018397266168,0.0034046267953580585,0.0,0.0,0.0,0.0,0.0,0.0,0.0,0.0,0.0,0.0,3.799999952316284,0.0,0.0,476.0,0.0,0.0,0.0,snow covered,0.25834733247757,-8.3919563293457,100.0,454.298522949219
frame_00042.png,1769615219295089285,1769615219.2950895,42.29943046629234,-83.69754743889246,234.29861450195312,0.7302167926410034,0.6831139839159768,0.006153418259825413,0.010042717124758464,0.00068,0.004380000000000001,0.00026000000000000003,-0.0568,0.2248,-9.7665,-0.001926354924135784,0.004309140383996301,0.0,0.0,0.0,0.0,0.0,0.0,0.0,0.0,0.0,0.0,3.799999952316284,0.0,0.0,432.0,0.0,0.0,0.0,snow covered,0.25834733247757,-8.3919563293457,100.0,454.298522949219
frame_00043.png,1769615219315995662,1769615219.3159957,42.299430466134055,-83.69754744048028,234.29856872558594,0.7302168780366569,0.6831136143736477,0.006154213775861965,0.010061140122791227,-0.0008500000000000001,0.0011800000000000003,7.000000000000002e-05,-0.1279,0.224,-9.7871,-0.0024580651967756406,0.005498544361275302,0.0,0.0,0.0,0.0,0.0,0.0,0.0,0.0,0.0,0.0,3.799999952316284,0.0,0.0,348.0,0.0,0.0,0.0,snow covered,0.25834733247757,-8.3919563293457,100.0,454.298522949219
frame_00044.png,1769615219336896824,1769615219.3368967,42.29943046575803,-83.69754743993697,234.29855346679688,0.7302284882648126,0.6831011227460426,0.0061625229385537375,0.010061527747534499,-0.00144,0.00068,0.0026100000000000003,-0.0546,0.2576,-9.799800000000001,-0.002545865020710951,0.005694947299429156,0.0,0.0,0.0,0.0,0.0,0.0,0.0,0.0,0.0,0.0,3.799999952316284,0.0,0.0,256.0,0.0,0.0,0.0,snow covered,0.25834733247757,-8.3919563293457,100.0,454.298522949219
frame_00045.png,1769615219358811576,1769615219.3588116,42.299430465561166,-83.69754744143042,234.2985076904297,0.7302301432653284,0.6830993411572214,0.006157774628929,0.010065276393987155,-0.00034,-0.00218,-0.0011200000000000003,-0.041,0.21430000000000002,-9.8157,-0.0021400765580656227,0.004787222855799314,0.0,0.0,0.0,0.0,0.0,0.0,0.0,0.0,0.0,0.0,3.799999952316284,0.0,0.0,256.0,0.0,0.0,0.0,snow covered,0.25834733247757,-8.3919563293457,100.0,454.298522949219
frame_00046.png,1769615219377862101,1769615219.3778622,42.29943046517323,-83.69754744291461,234.2984619140625,0.7302373900559926,0.6830912850295973,0.00616056034405532,0.010084541490465641,-0.00177,-0.0029600000000000004,0.0009200000000000001,-0.065,0.2462,-9.8359,-0.00254722427453598,0.005697987868680516,0.0,0.0,0.0,0.0,0.0,0.0,0.0,0.0,0.0,0.0,3.799999952316284,0.0,0.0,184.0,0.0,0.0,0.0,snow covered,0.25834733247757,-8.3919563293457,100.0,454.298522949219
frame_00047.png,1769615219398651624,1769615219.3986516,42.299430464631975,-83.69754744220769,234.2984619140625,0.7302429858008798,0.6830855231371329,0.006151599556245537,0.01007509761666189,0.0016400000000000002,-9e-05,4e-05,-0.0385,0.2702,-9.8236,-0.003073892817174691,0.006876113798450754,0.0,0.0,0.0,0.0,0.0,0.0,0.0,0.0,0.0,0.0,3.799999952316284,7.325000286102295,0.0,148.0,0.0,0.0,0.0,snow covered,0.25834733247757,-8.3919563293457,100.0,454.298522949219
frame_00048.png,1769615219419219833,1769615219.4192197,42.29943046419409,-83.6975474434476,234.2984161376953,0.7302460035415362,0.6830823296749917,0.0061415190505980845,0.010079034733133622,0.0008500000000000001,-0.0012300000000000002,0.00032,-0.0813,0.193,-9.8107,-0.0034065557455605754,0.007620260809474274,0.0,0.0,0.0,0.0,0.0,0.0,0.0,0.0,0.0,0.0,3.799999952316284,13.02500057220459,0.0,96.0,0.0,0.0,0.0,snow covered,0.25834733247757,-8.3919563293457,100.0,454.298522949219
frame_00049.png,1769615219439952466,1769615219.4399524,42.299430463552255,-83.69754744431266,234.2983856201172,0.7302442914420657,0.6830841716276644,0.006139765740708307,0.010079313700474001,0.0011,0.0012500000000000002,9e-05,-0.097,0.3171,-9.7559,-0.004844127995039501,0.010836023677223661,0.0,0.0,0.0,0.0,0.0,0.0,0.0,0.0,0.0,0.0,3.799999952316284,14.449999809265137,0.0,0.0,0.0,0.0,0.0,snow covered,0.25834733247757,-8.3919563293457,100.0,454.298522949219
frame_00050.png,1769615219460556419,1769615219.4605565,42.2994304627582,-83.69754744354698,234.29840087890625,0.7302470276447439,0.6830811359413039,0.006112747028632743,0.010103200528469332,0.0006600000000000001,-0.0032200000000000006,1e-05,-0.17950000000000002,0.20550000000000002,-9.8438,-0.0057544796515369345,0.012872425711709032,0.0,0.0,0.0,0.0,0.0,0.0,0.0,0.0,0.0,0.0,3.799999952316284,14.77500057220459,0.0,0.0,0.0,0.0,0.0,snow covered,0.25834733247757,-8.3919563293457,100.0,454.298522949219
frame_00051.png,1769615219481342016,1769615219.4813418,42.299430461515485,-83.69754744447232,234.29837036132812,0.730240885796756,0.6830877369582037,0.00610966967913919,0.01010268600427776,4e-05,-0.0009700000000000002,-0.0014200000000000003,-0.164,0.3074,-9.7917,-0.00888832376810078,0.019882646969815357,0.0,0.0,0.0,0.0,0.0,0.0,0.0,0.0,0.0,0.0,3.799999952316284,14.949999809265137,0.0,0.0,0.0,0.0,0.0,snow covered,0.25834733247757,-8.3919563293457,100.0,454.298522949219
frame_00052.png,1769615219502399876,1769615219.5024,42.29943046056795,-83.69754744508386,234.29830932617188,0.7302330696726081,0.6830962782455956,0.006093968028695721,0.0100996117351547,0.0011500000000000002,-0.0008900000000000001,-0.00036,-0.182,0.17350000000000002,-9.7873,-0.011028467973507379,0.024670021148657597,0.0,0.0,0.0,0.0,0.0,0.0,0.0,0.0,0.0,0.0,3.799999952316284,16.17500114440918,0.0,0.0,0.0,0.0,0.0,snow covered,0.25834733247757,-8.3919563293457,100.0,454.298522949219
frame_00053.png,1769615219522761406,1769615219.5227616,42.29943045844154,-83.6975474442236,234.29832458496094,0.7302326606254543,0.6830966970412135,0.006088154494961577,0.01010436648682413,0.0008200000000000001,0.00024,-7.000000000000002e-05,-0.2202,0.2526,-9.804,-0.014641895558979288,0.032753041851703135,0.0,0.0,0.0,0.0,0.0,0.0,0.0,0.0,0.0,0.0,3.799999952316284,18.649999618530273,0.0,0.0,0.0,0.0,0.0,snow covered,0.25834733247757,-8.3919563293457,100.0,454.298522949219
frame_00054.png,1769615219544911454,1769615219.5449114,42.299430455807695,-83.69754744513493,234.29827880859375,0.7302311694361827,0.6830984896854212,0.006091525374990363,0.010088899442827171,0.0023500000000000005,0.0018700000000000004,-0.00023000000000000003,-0.09430000000000001,0.1789,-9.732700000000001,-0.01597314308429782,0.03573096269098917,0.0,0.0,0.0,0.0,0.0,0.0,0.0,0.0,0.0,0.0,3.799999952316284,21.67500114440918,0.0,0.0,0.0,0.0,0.0,snow covered,0.25834733247757,-8.3919563293457,100.0,454.298522949219
frame_00055.png,1769615219564378489,1769615219.5643783,42.299430453306826,-83.69754744624466,234.29823303222656,0.7302316612756419,0.6830980391449132,0.006100719462898344,0.010078244342442614,-0.00039000000000000005,0.0029700000000000004,0.00023000000000000003,-0.1348,0.1961,-9.764700000000001,-0.017625708497166045,0.039427652365650614,0.0,0.0,0.0,0.0,0.0,0.0,0.0,0.0,0.0,0.0,3.799999952316284,23.67500114440918,0.0,0.0,0.0,0.0,0.0,snow covered,0.25834733247757,-8.3919563293457,100.0,454.298522949219
frame_00056.png,1769615219585057518,1769615219.5850575,42.29943045026885,-83.6975474457321,234.29820251464844,0.7302314880567456,0.6830985427787619,0.006124934993295765,0.01004190595907543,0.0004000000000000001,0.004530000000000001,-1e-05,0.1114,0.1758,-9.617,-0.015863191486256298,0.03548500756326616,0.0,0.0,0.0,0.0,0.0,0.0,0.0,0.0,0.0,0.0,3.799999952316284,24.649999618530273,0.0,0.0,0.0,0.0,0.0,snow covered,0.25834733247757,-8.3919563293457,100.0,454.298522949219
frame_00057.png,1769615219605504492,1769615219.6055045,42.29943044791603,-83.69754744798614,234.2979736328125,0.7302317342603971,0.6830984310826229,0.0061762116786460925,0.010000107040052159,0.0008500000000000001,0.006530000000000001,-0.00017,0.31170000000000003,0.2107,-9.5825,-0.009265250289567189,0.02072580898274443,0.0,0.0,0.0,0.0,0.0,0.0,0.0,0.0,0.0,0.0,3.799999952316284,24.725000381469727,0.0,0.0,0.0,0.0,0.0,snow covered,0.25834733247757,-8.3919563293457,100.0,454.298522949219
frame_00058.png,1769615219626263631,1769615219.6262636,42.29943044523941,-83.69754744981716,234.2975311279297,0.7302287775250621,0.6831018515948817,0.006239728925328634,0.009942766457884441,-0.00020000000000000004,0.00872,0.00037000000000000005,0.3573,0.1898,-9.6081,-0.0010885455113368316,0.0024350109961298124,0.0,0.0,0.0,0.0,0.0,0.0,0.0,0.0,0.0,0.0,3.799999952316284,24.700000762939453,0.0,0.0,0.0,0.0,0.0,snow covered,0.25834733247757,-8.3919563293457,100.0,454.298522949219
frame_00059.png,1769615219646754710,1769615219.6467547,42.29943044761518,-83.69754745180923,234.29714965820312,0.730232884084021,0.6830976941369806,0.006331661981463843,0.009868400256645515,-0.00021000000000000004,0.011580000000000002,0.0016400000000000002,0.44020000000000004,0.24400000000000002,-9.712100000000001,0.007645933403739428,0.017103494268160876,0.0,0.0,0.0,0.0,0.0,0.0,0.0,0.0,0.0,0.0,3.799999952316284,24.625,0.0,0.0,0.0,0.0,0.0,snow covered,0.25834733247757,-8.3919563293457,100.0,454.298522949219
frame_00060.png,1769615219667983890,1769615219.6679838,42.29943045019011,-83.69754745381093,234.29676818847656,0.7302411597142517,0.6830890841404696,0.0064297441570124935,0.009788267333598765,-0.0028400000000000005,0.01156,0.0017800000000000001,0.5409,0.1887,-9.7773,0.019211617911185513,0.04297523657024732,0.0,0.0,0.0,0.0,0.0,0.0,0.0,0.0,0.0,0.0,3.799999952316284,24.774999618530273,0.0,0.0,0.0,0.0,0.0,snow covered,0.25834733247757,-8.3919563293457,100.0,454.298522949219
frame_00061.png,1769615219688267345,1769615219.6882672,42.29943045587053,-83.69754745330293,234.29644775390625,0.7302334724496933,0.6830976359560789,0.006526536953510284,0.00970050414535112,-0.00026000000000000003,0.013840000000000002,-0.00205,0.63,0.2419,-9.774600000000001,0.03163441794572504,0.07076429487951016,0.0,0.0,0.0,0.0,0.0,0.0,0.0,0.0,0.0,0.0,3.799999952316284,25.225000381469727,0.0,0.0,0.0,0.0,0.0,snow covered,0.25834733247757,-8.3919563293457,100.0,454.298522949219
frame_00062.png,1769615219708888120,1769615219.708888,42.29943046605642,-83.69754745474016,234.29605102539062,0.7302321813804534,0.6830990604171334,0.006641421053677309,0.009619067520402558,-0.00223,0.014450000000000003,0.00022000000000000003,0.8429000000000001,0.1893,-9.803600000000001,0.04842733414543679,0.10832904084329338,0.0,0.0,0.0,0.0,0.0,0.0,0.0,0.0,0.0,0.0,3.799999952316284,25.375,0.0,0.0,0.0,0.0,0.0,snow covered,0.25834733247757,-8.3919563293457,100.0,454.298522949219
frame_00063.png,1769615219729602852,1769615219.7296028,42.299430476527554,-83.69754745599154,234.29566955566406,0.7302346002286698,0.6830964806891586,0.006753330917938907,0.009540399387509774,-0.0018400000000000003,0.014630000000000002,0.00010000000000000002,0.8405,0.2441,-9.866100000000001,0.06546228004116644,0.14643519271528688,0.0,0.0,0.0,0.0,0.0,0.0,0.0,0.0,0.0,0.0,3.799999952316284,25.399999618530273,0.0,0.0,0.0,0.0,0.0,snow covered,0.25834733247757,-8.3919563293457,100.0,454.298522949219
frame_00064.png,1769615219750638408,1769615219.7506382,42.299430491922735,-83.69754745481676,234.2953643798828,0.7302260949307448,0.6831058853542695,0.006940928442155259,0.009382067411584314,-0.0015,0.01584,-0.0012600000000000003,1.2176,0.20550000000000002,-9.775400000000001,0.09888912647553169,0.22120904257817586,0.0,0.0,0.0,0.0,0.0,0.0,0.0,0.0,0.0,0.0,3.799999952316284,25.450000762939453,0.0,0.0,0.0,0.0,0.0,snow covered,0.25834733247757,-8.3919563293457,100.0,454.298522949219
frame_00065.png,1769615219771106655,1769615219.7711065,42.29943051455442,-83.69754745509599,234.2949676513672,0.7302309331457268,0.683100858523184,0.007072950440469817,0.009272256148125648,-0.00051,0.0166,0.0011200000000000003,1.4022000000000001,0.23750000000000002,-9.802,0.12595124041770084,0.2817453677399717,0.0,0.0,0.0,0.0,0.0,0.0,0.0,0.0,0.0,0.0,3.799999952316284,25.399999618530273,0.0,0.0,0.0,0.0,0.0,snow covered,0.25834733247757,-8.3919563293457,100.0,454.298522949219
frame_00066.png,1769615219791592517,1769615219.7915924,42.29943053834777,-83.69754745543906,234.2945556640625,0.7302255386655206,0.6831068176632151,0.007199893167814141,0.009159687825307416,6e-05,0.015380000000000001,-0.00116,1.7726000000000002,0.1935,-9.707,0.15997318275676298,0.3578504114359134,0.0,0.0,0.0,0.0,0.0,0.0,0.0,0.0,0.0,0.0,3.799999952316284,25.075000762939453,0.0,0.0,0.0,0.0,0.0,snow covered,0.25834733247757,-8.3919563293457,100.0,454.298522949219
frame_00067.png,1769615219812591142,1769615219.812591,42.29943056926902,-83.697547453127,234.29420471191406,0.7302226178636079,0.6831098015357375,0.007296240367061172,0.00909352971790811,-0.00222,0.009190000000000002,0.00109,1.5136,0.24130000000000001,-9.831100000000001,0.19390848926119492,0.43376165596793737,0.0,0.0,0.0,0.0,0.0,0.0,0.0,0.0,0.0,0.0,3.799999952316284,25.399999618530273,0.0,0.0,0.0,0.0,0.0,snow covered,0.25834733247757,-8.3919563293457,100.0,454.298522949219
frame_00068.png,1769615219832986275,1769615219.8329864,42.299430608322815,-83.69754745211564,234.2938232421875,0.7302196228015118,0.68311322652806,0.007451065897352242,0.008950074582648257,0.0010600000000000002,0.026480000000000004,-0.00192,1.3512,0.382,-9.9374,0.21833528909451974,0.488402941587095,0.0,0.0,0.0,0.0,0.0,0.0,0.0,0.0,0.0,0.0,3.799999952316284,24.950000762939453,0.0,0.0,0.0,0.0,0.0,snow covered,0.25834733247757,-8.3919563293457,100.0,454.298522949219
frame_00069.png,1769615219853818514,1769615219.8538187,42.29943065101858,-83.69754745186533,234.29335021972656,0.7302027223559838,0.6831315422689932,0.007610321164783085,0.00879563714948837,-0.0005700000000000001,0.022080000000000002,-0.0024100000000000002,2.1951,0.11410000000000001,-9.688500000000001,0.2607691725638554,0.5833249928749907,0.0,0.0,0.0,0.0,0.0,0.0,0.0,0.0,0.0,0.0,3.799999952316284,24.975000381469727,0.0,0.0,0.0,0.0,0.0,snow covered,0.25834733247757,-8.3919563293457,100.0,454.298522949219
frame_00070.png,1769615219874416652,1769615219.8744166,42.29943070004602,-83.69754744755238,234.29306030273438,0.7301990261112509,0.683135327895535,0.007727993367715215,0.008705410142512231,0.0,0.016180000000000003,-0.00021000000000000004,1.7901,0.2849,-10.026200000000001,0.2990049257965338,0.6688560787112984,0.0,0.0,0.0,0.0,0.0,0.0,0.0,0.0,0.0,0.0,3.799999952316284,25.225000381469727,0.0,0.0,0.0,0.0,0.0,snow covered,0.25834733247757,-8.3919563293457,100.0,454.298522949219
frame_00071.png,1769615219895113965,1769615219.895114,42.29943075988396,-83.69754744491792,234.29281616210938,0.7301865786280711,0.6831487332945567,0.00786483479319559,0.008573970092677062,0.00033000000000000005,0.017610000000000004,-0.0011300000000000001,1.8056,0.199,-10.096400000000001,0.3338676480179132,0.7468418965571908,0.0,0.0,0.0,0.0,0.0,0.0,0.0,0.0,0.0,0.0,3.799999952316284,25.30000114440918,0.0,0.0,0.0,0.0,0.0,snow covered,0.25834733247757,-8.3919563293457,100.0,454.298522949219
frame_00072.png,1769615219915863316,1769615219.9158633,42.2994308215227,-83.69754744237267,234.29249572753906,0.7301757964220463,0.6831603145481534,0.00799948243524965,0.008443886940639946,0.0007300000000000002,0.017200000000000003,-0.00136,2.1403000000000003,0.1413,-9.8931,0.37432829355158137,0.8373499329772744,0.0,0.0,0.0,0.0,0.0,0.0,0.0,0.0,0.0,0.0,3.799999952316284,24.975000381469727,0.0,0.0,0.0,0.0,0.0,snow covered,0.25834733247757,-8.3919563293457,100.0,454.298522949219
frame_00073.png,1769615219936501775,1769615219.9365017,42.29943089164206,-83.6975474368302,234.2924346923828,0.730171541911366,0.6831646418318462,0.00809721294836825,0.008368194310154646,-0.0009200000000000001,0.009510000000000001,0.0004000000000000001,2.019,0.25,-10.0851,0.41675463928573514,0.9322551228038324,0.0,0.6899999976158142,0.0,0.0,0.0,0.5602863598640192,0.0,0.0,0.1400715899660048,0.0,3.799999952316284,25.100000381469727,0.0,0.0,0.0,0.0,0.0,snow covered,0.25834733247757,-8.3919563293457,100.0,454.298522949219
frame_00074.png,1769615219957147422,1769615219.9571474,42.29943097319638,-83.69754743312187,234.2924346923828,0.73016609850376,0.6831706095903802,0.008178880761245228,0.008276031488524073,0.0009300000000000002,0.0134,-0.00031,1.8944,0.12490000000000001,-10.0326,0.4544542605380793,1.0165869135680512,0.0,0.6899999976158142,0.7299999594688416,0.75,0.0,0.5602863598640192,0.5927666976883257,0.609006915,0.4405149931380863,0.5666725714656784,3.799999952316284,25.149999618530273,0.0,0.0,0.0,0.0,0.0,snow covered,0.25834733247757,-8.3919563293457,100.0,454.298522949219
frame_00075.png,1769615219977821403,1769615219.9778214,42.29943105638799,-83.69754742951932,234.2924346923828,0.730165626513914,0.6831710675628574,0.008262547530302117,0.008196377912122807,0.00041000000000000005,0.011810000000000003,0.0020800000000000003,2.1542,0.08950000000000001,-9.999,0.495866792074409,1.1092242618629284,0.0,0.6899999976158142,0.7299999594688416,0.75,0.0,0.5602863598640192,0.5927666976883257,0.609006915,0.4405149931380863,0.6028621007637835,3.799999952316284,25.17500114440918,0.0,0.0,0.0,0.0,0.0,snow covered,0.25834733247757,-8.3919563293457,100.0,454.298522949219
frame_00076.png,1769615219998489468,1769615219.9984894,42.29943114844827,-83.69754742304565,234.2926025390625,0.7301744121720686,0.6831615794331806,0.008322570405476782,0.008143648898497566,0.00068,0.008560000000000002,0.0018800000000000004,2.1683,0.229,-9.997200000000001,0.5388359208814254,1.2053436248564957,1.0799999237060547,1.1200000047683716,0.7299999594688416,0.75,0.876969895648613,0.9094503302719618,0.5927666976883257,0.609006915,0.7470484596522251,0.38021951230615564,3.799999952316284,25.100000381469727,0.0,0.0,0.0,0.0,0.0,snow covered,0.25834733247757,-8.3919563293457,100.0,454.298522949219
frame_00077.png,1769615220019327012,1769615220.019327,42.299431252654635,-83.69754741834096,234.2928466796875,0.730178805610864,0.6831571290073867,0.008358396484401362,0.008086169135395956,0.00218,0.006300000000000001,0.0018200000000000002,2.04,0.1423,-10.0249,0.5801304027234631,1.2977169030682236,1.0799999237060547,1.1200000047683716,1.1999999284744263,1.209999918937683,0.876969895648613,0.9094503302719618,0.9744110059205746,0.9825310903766513,0.9358405805544502,0.27885613700351786,3.799999952316284,25.524999618530273,0.0,0.0,0.0,0.0,0.0,snow covered,0.25834733247757,-8.3919563293457,100.0,454.298522949219
frame_00078.png,1769615220040014683,1769615220.0400145,42.299431357555996,-83.69754741330328,234.29310607910156,0.7301890759409394,0.6831463986945325,0.008400043395972452,0.00802188245696382,0.00177,0.006790000000000001,0.0015700000000000002,1.9823000000000002,0.2867,-9.981,0.6191244257156234,1.3849441928603068,1.399999976158142,1.4199999570846558,1.1999999284744263,1.209999918937683,1.1368128886401918,1.1530530575523448,0.9744110059205746,0.9825310903766513,1.0617020106224406,0.23339726171224154,3.799999952316284,25.17500114440918,0.0,0.0,0.0,0.0,0.0,snow covered,0.25834733247757,-8.3919563293457,100.0,454.298522949219
frame_00079.png,1769615220060612266,1769615220.0606124,42.29943147241196,-83.69754740554656,234.2935028076172,0.7301934214864035,0.6831425318093596,0.008447771605801641,0.007904657233174574,0.0035300000000000006,0.00619,-0.0006300000000000001,2.386,0.12860000000000002,-9.9684,0.6886135152556628,1.5403871168160026,1.399999976158142,1.4199999570846558,1.5,1.5099999904632568,1.1368128886401918,1.1530530575523448,1.21801383,1.2261339144560766,1.1835034226621532,0.23168441897354475,3.799999952316284,25.200000762939453,0.0,0.0,0.0,0.0,0.0,snow covered,0.25834733247757,-8.3919563293457,100.0,454.298522949219
frame_00080.png,1769615220081326757,1769615220.081327,42.29943159985462,-83.69754739855605,234.29391479492188,0.7302008696937307,0.6831352789702005,0.008443944908421326,0.007847312865512856,0.0051,0.00434,0.0009100000000000001,2.1365000000000003,0.2277,-9.999600000000001,0.7311696366497827,1.6355826070073651,1.6699999570846558,1.6999999284744263,1.5,1.5099999904632568,1.3560553625523448,1.3804156159205747,1.21801383,1.2261339144560766,1.295154680732249,0.2081386319569631,3.799999952316284,25.450000762939453,0.0,0.0,0.0,0.0,0.0,snow covered,0.25834733247757,-8.3919563293457,100.0,454.298522949219
frame_00081.png,1769615220102040848,1769615220.1020408,42.299431727931974,-83.6975473914535,234.29437255859375,0.7301941737284863,0.6831431401639071,0.008458266449220183,0.007770227065108784,0.004210000000000001,0.0012700000000000003,-0.00058,2.3179000000000003,0.2594,-9.9048,0.7761579780888395,1.7362188275060486,1.6699999570846558,1.6999999284744263,1.7699999809265137,1.7699999809265137,1.3560553625523448,1.3804156159205747,1.437256303912153,1.437256303912153,1.4027458965743063,0.19206849139561044,3.799999952316284,25.75,0.0,0.0,0.0,0.0,0.0,snow covered,0.25834733247757,-8.3919563293457,100.0,454.298522949219
frame_00082.png,1769615220122613301,1769615220.1226132,42.2994318667556,-83.69754738158292,234.294921875,0.7301897720372466,0.683148692778078,0.008452467158305636,0.007701698951203023,0.00487,0.00444,-0.00020000000000000004,2.3056,0.269,-10.0534,0.823263054506505,1.8415900571477815,1.909999966621399,1.9799998998641968,2.0199999809265137,2.0,1.5509375830962684,1.6077781742888044,1.6402586089121531,1.62401844,1.6057482015743063,0.1280642533109363,3.799999952316284,26.149999618530273,0.0,0.0,0.0,0.0,0.0,snow covered,0.25834733247757,-8.3919563293457,100.0,454.298522949219
frame_00083.png,1769615220143350489,1769615220.1433506,42.29943201853023,-83.69754737227261,234.2954864501953,0.7301783546592633,0.6831617676416634,0.00845859410781614,0.0076172045744082595,0.0032600000000000003,0.008790000000000001,-0.0012500000000000002,2.5987,0.0357,-9.991,0.8710816631070193,1.9485574154706158,2.119999885559082,1.9799998998641968,2.0199999809265137,2.0,1.7214594534729195,1.6077781742888044,1.6402586089121531,1.62401844,1.6483786691684692,0.15405178411417114,3.799999952316284,26.575000762939453,0.0,0.0,0.0,0.0,0.0,snow covered,0.25834733247757,-8.3919563293457,100.0,454.298522949219
frame_00084.png,1769615220164094341,1769615220.1640944,42.299432172070624,-83.69754736324744,234.2960662841797,0.7301685800528179,0.6831734408895765,0.008430202877873199,0.007538305259518125,0.009460000000000001,0.006720000000000001,0.00039000000000000005,2.5677000000000003,0.31980000000000003,-9.8399,0.9194788277003012,2.0568189688359118,2.119999885559082,2.180000066757202,2.240000009536743,2.2100000381469727,1.7214594534729195,1.7701801538074635,1.8189006605439235,1.7945404071756936,1.77627016875,0.13639936442471293,3.799999952316284,26.5,0.0,0.0,0.0,0.0,0.0,snow covered,0.25834733247757,-8.3919563293457,100.0,454.298522949219
frame_00085.png,1769615220184783602,1769615220.1847837,42.299432336652906,-83.69754735133479,234.2966766357422,0.7301494593163521,0.6831950991368612,0.008391276013222976,0.0074706132468014335,0.00858,-0.00022000000000000003,-0.00205,2.4133,0.3821,-9.609,0.9693169195656095,2.168303790053095,2.3299999237060547,2.369999885559082,2.419999837875366,2.440000057220459,1.8919814206486132,1.9244617584729196,1.9650621807533026,1.9813025432635405,1.9407019757845938,0.1049676781051643,3.799999952316284,27.17500114440918,0.0,0.0,0.0,0.0,0.0,snow covered,0.25834733247757,-8.3919563293457,100.0,454.298522949219
frame_00086.png,1769615220205741598,1769615220.2057416,42.29943269453695,-83.69754732660975,234.29766845703125,0.7301344264319769,0.6832131459180576,0.008349247903056073,0.0073353011562024345,0.013710000000000003,0.003920000000000001,-0.00234,2.338,0.3552,-9.5573,1.015979622140647,2.272685455951299,2.509999990463257,2.569999933242798,2.419999837875366,2.440000057220459,2.0381431344560768,2.0868636411925365,1.9650621807533026,1.9813025432635405,2.017842874916364,0.11213279882950763,3.799999952316284,27.700000762939453,0.0,0.0,0.0,0.0,0.0,snow covered,0.25834733247757,-8.3919563293457,100.0,454.298522949219
frame_00087.png,1769615220226350423,1769615220.2263503,42.29943288518272,-83.69754731093018,234.2981414794922,0.7301078492050407,0.6832435903162533,0.008308370268703527,0.0071899794452670645,0.010970000000000002,0.0020900000000000003,-0.005600000000000001,2.6053,0.053700000000000005,-9.679300000000001,1.0681539707538092,2.389396343338026,2.700000047683716,2.740000009536743,2.809999942779541,2.8499999046325684,2.192424932719617,2.2249052705439234,2.28174586173646,2.3142261995607667,2.253325566140192,0.056947763219450276,3.799999952316284,27.975000381469727,0.0,0.0,0.0,0.0,0.0,snow covered,0.25834733247757,-8.3919563293457,100.0,454.298522949219
frame_00088.png,1769615220246968319,1769615220.2469683,42.29943309081171,-83.69754729614593,234.29861450195312,0.7300803937475088,0.6832756428188098,0.008162780616983532,0.007098141209067231,0.018730000000000004,0.0031000000000000003,-0.007600000000000001,1.5263,1.0624,-9.188500000000001,1.1084581542724155,2.479554383618137,2.869999885559082,2.919999837875366,2.9700000286102295,3.0,2.3304663684729197,2.3710667907533027,2.41166740663177,2.43602766,2.3873070564644983,0.037203187703039035,3.799999952316284,28.325000762939453,0.0,0.0,0.0,0.0,0.0,snow covered,0.25834733247757,-8.3919563293457,100.0,454.298522949219
frame_00089.png,1769615220268099962,1769615220.2680998,42.299433296237254,-83.69754728027371,234.29888916015625,0.7300689327578436,0.6832900082474834,0.008122195814549208,0.006938874990042258,0.010360000000000001,-0.016950000000000003,-0.0005000000000000001,1.9444000000000001,0.39530000000000004,-8.951600000000001,1.1642887245764602,2.604444019554067,3.0399999618530273,3.0799999237060547,2.9700000286102295,3.0,2.4685079978243065,2.500988335648613,2.41166740663177,2.43602766,2.4542978500261725,0.05764998917258445,3.799999952316284,28.700000762939453,0.0,0.0,0.0,0.0,0.0,snow covered,0.25834733247757,-8.3919563293457,100.0,454.298522949219
frame_00090.png,1769615220288289204,1769615220.2882893,42.299433513467,-83.69754726169319,234.2991943359375,0.7300500684599348,0.6833116846121576,0.008142718979027457,0.00676279097474021,0.011320000000000002,-0.0032700000000000003,-0.0035000000000000005,2.7454,0.4223,-9.4997,1.215734908356259,2.71952604589845,3.2300000190734863,3.2300000190734863,3.0999999046325684,3.1399998664855957,2.622789796087847,2.622789796087847,2.5172285045607663,2.549708842385073,2.5781292347803832,0.0519931814336985,3.799999952316284,28.55000114440918,0.0,0.0,0.0,0.0,0.0,snow covered,0.25834733247757,-8.3919563293457,100.0,454.298522949219
frame_00091.png,1769615220309167294,1769615220.3091674,42.29943374492672,-83.69754724354476,234.29966735839844,0.7300315563395338,0.6833331371492193,0.008151401589988989,0.006580659116182284,0.011490000000000002,0.007020000000000001,-0.00487,2.6516,-0.189,-9.9848,1.2662866358579086,2.8326072272159903,3.3399999141693115,3.369999885559082,3.2799999713897705,3.299999952316284,2.7121107251046896,2.7364709784729198,2.66339021836823,2.6796303872803833,2.6979005773065556,0.04755571073008603,3.799999952316284,28.55000114440918,0.0,0.0,0.0,0.0,0.0,snow covered,0.25834733247757,-8.3919563293457,100.0,454.298522949219
frame_00092.png,1769615220329870268,1769615220.3298702,42.29943397669429,-83.69754722352324,234.30003356933594,0.7300326870119813,0.6833335789922931,0.008146312701579391,0.006413525163135078,0.017880000000000004,0.021040000000000003,-0.0011800000000000003,2.1348000000000003,0.7259,-9.7726,1.3101150466754148,2.9306487525101024,3.4700000286102295,3.569999933242798,3.419999837875366,3.419999837875366,2.81767201663177,2.8988728611925363,2.777071400753303,2.777071400753303,2.817671919832728,0.03855011030598929,3.799999952316284,28.475000381469727,0.0,0.0,0.0,0.0,0.0,snow covered,0.25834733247757,-8.3919563293457,100.0,454.298522949219
frame_00093.png,1769615220350526835,1769615220.3505268,42.299434219803075,-83.69754720143709,234.3004913330078,0.7300173982914919,0.6833540236721396,0.008055930446053905,0.006080995598238261,0.019410000000000004,0.008780000000000001,0.0021200000000000004,2.5909,0.4146,-9.5378,1.3844781607294971,3.0969945768622416,3.629999876022339,3.6999998092651367,3.569999933242798,3.5799999237060547,2.947593367928996,3.0044339591215325,2.8988728611925363,2.906992945648613,2.9394732834729194,0.05086263132850457,3.799999952316284,28.975000381469727,0.0,0.0,0.0,0.0,0.0,snow covered,0.25834733247757,-8.3919563293457,100.0,454.298522949219
frame_00094.png,1769615220371179247,1769615220.3711793,42.29943447635125,-83.6975471793765,234.3010711669922,0.7300061762555555,0.6833697008098913,0.007934092646669742,0.0058210667077616615,0.028020000000000003,0.0037700000000000003,-0.0017600000000000003,2.0255,0.42300000000000004,-10.0607,1.430361191165586,3.1996321629659463,3.7699999809265137,3.799999952316284,3.859999895095825,3.819999933242798,3.0612747439121537,3.0856349972803834,3.1343555040168427,3.101875166192537,3.095785102850479,0.03245593706596721,3.799999952316284,29.024999618530273,0.0,0.0,0.0,0.0,0.0,snow covered,0.25834733247757,-8.3919563293457,100.0,454.298522949219
frame_00095.png,1769615220391962492,1769615220.3919623,42.299434734603174,-83.69754715772044,234.30165100097656,0.7300078586373465,0.6833714232916641,0.007850520188071041,0.005513029005752069,0.028670000000000005,0.008260000000000002,-0.0009500000000000001,2.294,0.1895,-9.707600000000001,1.4782967347497338,3.3068610978310695,3.8899998664855957,3.929999828338623,3.9700000286102295,4.019999980926514,3.158715757385073,3.1911960952093796,3.2236766266317702,3.2642770489121533,3.209466382034594,0.029452315327170964,3.799999952316284,29.05000114440918,0.0,0.0,0.0,0.0,0.0,snow covered,0.25834733247757,-8.3919563293457,100.0,454.298522949219
frame_00096.png,1769615220412377520,1769615220.4123776,42.29943500396744,-83.69754713256194,234.3024139404297,0.7300102854196828,0.6833725739500203,0.007719164334683984,0.005227126970998967,0.03424000000000001,0.0033600000000000006,0.00029,2.5025,0.40230000000000005,-10.3543,1.5295883488721165,3.4215973611259924,4.019999980926514,4.039999961853027,4.069999694824219,4.110000133514404,3.2642770489121533,3.2805172178243063,3.3048772775944517,3.3373580026149274,3.2967573867364597,0.0364858752253801,3.700000047683716,28.950000762939453,0.0,0.0,0.0,0.0,0.0,snow covered,0.25834733247757,-8.3919563293457,100.0,454.298522949219
frame_00097.png,1769615220433020132,1769615220.43302,42.29943528782279,-83.69754710964237,234.3033905029297,0.7300022180179325,0.6833846122597813,0.007625043949482755,0.00490837246096182,0.02009,0.012340000000000002,-0.0017100000000000001,3.24,-0.5471,-10.773800000000001,1.581945477341818,3.5387171160850066,4.199999809265137,4.190000057220459,4.210000038146973,4.179999828338623,3.410438569121532,3.4023186782635406,3.4185588471756936,3.3941984002093792,3.4063786236925364,0.03739730756972188,3.700000047683716,28.850000381469727,0.0,0.0,0.0,0.0,0.0,snow covered,0.25834733247757,-8.3919563293457,100.0,454.298522949219
frame_00098.png,1769615220453687638,1769615220.4536877,42.299435571267054,-83.69754708167407,234.30418395996094,0.730012041907876,0.6833775671039317,0.007470853358634375,0.004658948239508242,0.03527,0.013730000000000001,0.0018900000000000002,2.4928,0.4682,-10.3497,1.6271330948713525,3.6397991052415235,4.389999866485596,4.309999942779541,4.319999694824219,4.309999942779541,3.564720367385073,3.4997596917364597,3.507879582594452,3.4997596917364597,3.518029833363111,0.033454943077231326,3.700000047683716,28.975000381469727,0.0,0.0,0.0,0.0,0.0,snow covered,0.25834733247757,-8.3919563293457,100.0,454.298522949219
frame_00099.png,1769615220474394641,1769615220.4743946,42.29943586724147,-83.6975470570245,234.30520629882812,0.7299846842293464,0.6834092348932326,0.007344747323644115,0.004498126274321367,0.01352,-0.0022700000000000003,-0.0023500000000000005,2.2571000000000003,-0.4807,-9.9448,1.6784449887791002,3.7545807331995205,4.489999771118164,4.5,4.539999961853027,4.579999923706055,3.645921211945839,3.65404149,3.6865218278243064,3.719002165648613,3.6763716738546894,0.020830304340848208,3.700000047683716,29.0,0.0,0.0,0.0,0.0,0.0,snow covered,0.25834733247757,-8.3919563293457,100.0,454.298522949219
frame_00100.png,1769615220495054057,1769615220.495054,42.29943617741888,-83.69754703069127,234.3063507080078,0.7299987421194799,0.6833961805204067,0.007234019388522995,0.0043778896266468675,0.02034,-0.007290000000000001,0.0012300000000000002,2.576,0.7916000000000001,-10.007800000000001,1.7286827386207564,3.866959565330315,4.610000133514404,4.610000133514404,4.650000095367432,4.659999847412109,3.7433626126149275,3.7433626126149275,3.775842950439234,3.7839628412972264,3.7616327542415786,0.027237629281944516,3.700000047683716,28.950000762939453,0.0,0.0,0.0,0.0,0.0,snow covered,0.25834733247757,-8.3919563293457,100.0,454.298522949219
frame_00101.png,1769615220515818888,1769615220.515819,42.29943648924339,-83.69754700922606,234.30752563476562,0.7299478880919793,0.6834519886742669,0.007169207218658605,0.004249978247621963,0.00524,-0.0006600000000000001,-0.006680000000000001,3.0567,-0.6443,-9.83,1.7828832031449875,3.9882027524431485,4.809999942779541,4.699999809265137,4.75,4.75,3.90576430173646,3.8164431791215323,3.8570437950000005,3.8570437950000005,3.8590737677144986,0.032377738230471416,3.6000001430511475,28.950000762939453,0.0,0.0,0.0,0.0,0.0,snow covered,0.25834733247757,-8.3919563293457,100.0,454.298522949219
frame_00102.png,1769615220536462026,1769615220.536462,42.299436811365176,-83.69754698288958,234.30868530273438,0.7299700860960994,0.6834292052781493,0.007113985414283416,0.004193565220168163,0.0074600000000000005,0.006540000000000001,0.0012300000000000002,2.343,0.008,-9.639700000000001,1.8259720366922405,4.084589887758341,5.019999980926514,5.0,4.960000038146973,4.960000038146973,4.0762862689121535,4.0600461,4.027565762175694,4.027565762175694,4.0478659733158855,0.008990844968920438,3.4000000953674316,29.125,0.0,0.0,0.0,0.0,0.0,snow covered,0.25834733247757,-8.3919563293457,100.0,454.298522949219
frame_00103.png,1769615220557259909,1769615220.55726,42.29943714904463,-83.69754695916707,234.3098907470703,0.7299419555671851,0.6834598551409689,0.007043063686173192,0.004214637274089605,0.006170000000000001,-0.013620000000000002,-0.0019600000000000004,1.9565000000000001,0.14830000000000002,-9.2245,1.88032982160968,4.206184991151558,5.099999904632568,5.059999942779541,5.150000095367432,5.199999809265137,4.141246944560766,4.10876660673646,4.181847560439234,4.222447789121532,4.163577225214498,0.010129788876783282,3.1000001430511475,29.25,0.0,0.0,0.0,0.0,0.0,snow covered,0.25834733247757,-8.3919563293457,100.0,454.298522949219
frame_00104.png,1769615220577886592,1769615220.5778868,42.2994374868763,-83.69754693740121,234.31129455566406,0.7299452313009549,0.6834558958256022,0.007036354173276173,0.004299707218803034,-0.00841,-0.018530000000000005,0.0025000000000000005,2.2055000000000002,0.197,-9.8073,1.9295235097294352,4.316228319854163,5.239999771118164,5.179999828338623,5.279999732971191,5.299999713897705,4.254928126945839,4.206207620209379,4.287408464770145,4.3036486336822986,4.263048211401916,0.012320967407499023,2.700000047683716,29.649999618530273,0.0,0.0,0.0,0.0,0.0,snow covered,0.25834733247757,-8.3919563293457,100.0,454.298522949219
frame_00105.png,1769615220619411178,1769615220.6194112,42.29943820242283,-83.6975468979424,234.31390380859375,0.7299062542305703,0.6834941893202541,0.007249532356865921,0.004471854330525996,-0.010690000000000002,0.011860000000000002,-0.0027300000000000007,2.3491,-0.40490000000000004,-9.7334,2.027249748367991,4.534836052114294,5.509999752044678,5.559999942779541,5.619999885559082,5.690000057220459,4.474170600857992,4.5147712167364595,4.56349172347292,4.620332508263541,4.5431915123327276,0.0018425054671024593,2.1000001430511475,30.524999618530273,0.0,0.0,0.0,0.0,0.0,snow covered,0.25834733247757,-8.3919563293457,100.0,454.298522949219
frame_00106.png,1769615220640033594,1769615220.6400335,42.299438569556415,-83.69754688234279,234.31532287597656,0.7298801349509048,0.6835186076604626,0.007352112949914343,0.00482162017619534,-0.028900000000000006,-0.018080000000000002,-0.00016,1.3522,0.9954000000000001,-9.1828,2.074587702258128,4.640728214689297,5.599999904632568,5.670000076293945,5.75,5.819999694824219,4.547251554560767,4.604092339351387,4.669053015,4.725893412594452,4.636572580376652,0.0008954703056065976,1.7000000476837158,31.475000381469727,0.0,0.0,0.0,0.0,0.0,snow covered,0.25834733247757,-8.3919563293457,100.0,454.298522949219
frame_00107.png,1769615220660744007,1769615220.660744,42.29943894945586,-83.6975468670958,234.31655883789062,0.7298621633920092,0.6835326295995277,0.0076042119336455685,0.005151959079756423,-0.026470000000000004,-0.006440000000000001,0.0010700000000000002,1.7605000000000002,1.3901000000000001,-9.1858,2.151865407364946,4.813593804350943,5.779999732971191,5.789999961853027,5.920000076293945,6.069999694824219,4.693413074770145,4.701533352824307,4.807094644351388,4.928895717594452,4.782734197385073,0.006410928761370848,1.399999976158142,31.92500114440918,0.0,0.0,0.0,0.0,0.0,snow covered,0.25834733247757,-8.3919563293457,100.0,454.298522949219
frame_00108.png,1769615220681433452,1769615220.6814334,42.29943934083069,-83.69754685080403,234.31765747070312,0.7298362227426946,0.6835581434004809,0.007704549096277116,0.005290792642553371,-0.028440000000000003,-0.010560000000000002,-0.0041800000000000006,2.7957,-0.8712000000000001,-10.2387,2.2051733772250905,4.932840534449895,5.909999847412109,5.889999866485596,6.119999885559082,6.259999752044678,4.798974366297227,4.782734197385073,4.96949633347292,5.083177515857992,4.908595603253303,0.0049150040483307645,1.0,32.54999923706055,0.0,0.0,0.0,0.0,0.0,snow covered,0.25834733247757,-8.3919563293457,100.0,454.298522949219
frame_00109.png,1769615220702051521,1769615220.7020516,42.29943973437268,-83.69754683785816,234.3189239501953,0.7298493168568436,0.6835413610119822,0.007864845235727013,0.005415411240507147,-0.013380000000000003,0.014310000000000002,0.00131,3.0953,-0.27540000000000003,-9.4985,2.252007185688118,5.0376049539531795,5.980000019073486,6.029999732971191,6.150000095367432,6.609999656677246,4.855815151087847,4.896415379770145,4.993856780439234,5.367380665418758,5.028366994178996,0.0018337999622090378,0.699999988079071,32.72500228881836,0.0,0.0,0.0,0.0,0.0,snow covered,0.25834733247757,-8.3919563293457,100.0,454.298522949219
frame_00110.png,1769615220722635435,1769615220.7226355,42.29944013938716,-83.69754682157527,234.31988525390625,0.7298636857823132,0.6835244980368174,0.00793430111037702,0.005505236204135545,-0.004240000000000001,0.01974,0.004410000000000001,2.1177,0.4192,-8.5747,2.2955882837602783,5.135093255474717,6.210000038146973,6.199999809265137,6.389999866485596,6.75,5.0425772871756935,5.034457009121533,5.188738807385073,5.4810622350000004,5.186708834670575,0.010051536871473199,0.4000000059604645,33.275001525878906,0.0,0.0,0.0,0.0,0.0,snow covered,0.25834733247757,-8.3919563293457,100.0,454.298522949219
frame_00111.png,1769615220743345732,1769615220.7433457,42.29944055829853,-83.69754680789,234.3206329345703,0.7298779739846947,0.6835064217595859,0.008043680137998048,0.005693304422055932,-0.025120000000000003,-0.011420000000000001,0.008740000000000001,1.5802,0.7972,-9.4313,2.344676276929967,5.244900150915721,6.319999694824219,6.389999866485596,6.569999694824219,6.839999675750732,5.131898022594452,5.188738807385073,5.334900327594452,5.554142801506606,5.302419989770145,0.010966812941974062,0.4000000059604645,34.10000228881836,0.0,0.0,0.0,0.0,0.0,snow covered,0.25834733247757,-8.3919563293457,100.0,454.298522949219
frame_00112.png,1769615220764390171,1769615220.7643902,42.29944097514635,-83.69754678821359,234.3214569091797,0.7299017088503131,0.6834800013187206,0.008149613790071557,0.005671596761685964,-0.008990000000000001,-0.010260000000000002,0.0016600000000000002,3.2604,-0.7159,-10.3292,2.4004056312475597,5.369563372762917,6.5,6.46999979019165,6.679999828338623,7.0,5.2780599299999995,5.253699483033686,5.424221450209379,5.6840645400000005,5.410011350810767,0.007532824410458088,0.4000000059604645,33.775001525878906,0.0,0.0,0.0,0.0,0.0,snow covered,0.25834733247757,-8.3919563293457,100.0,454.298522949219
frame_00113.png,1769615220784757588,1769615220.7847576,42.29944140401697,-83.6975467701815,234.3219757080078,0.7299541467151921,0.6834232690667343,0.008256095665548328,0.005604986689998832,0.00025000000000000006,0.031290000000000005,0.0085,2.3358000000000003,-0.0908,-9.7947,2.432832523770965,5.442100385724223,6.659999847412109,6.569999694824219,7.449999809265137,7.619999885559082,5.407981281297226,5.334900327594452,6.049468534121532,6.187510163472919,5.744965076621532,0.055652169094819834,0.5,34.025001525878906,0.0,0.0,0.0,0.0,0.0,snow covered,0.25834733247757,-8.3919563293457,100.0,454.298522949219
frame_00114.png,1769615220805548832,1769615220.805549,42.29944184609784,-83.6975467534666,234.32249450683594,0.7299770919194009,0.6833964783020438,0.008357873713438824,0.005731026456810775,-0.011860000000000002,0.0029300000000000003,0.006360000000000001,1.1054000000000002,2.0020000000000002,-9.3451,2.4689126236087424,5.522809404255341,6.739999771118164,6.730000019073486,9.319999694824219,7.589999675750732,5.4729419569458395,5.464822066087847,7.567925682594453,6.163149716506606,6.167209855533686,0.11667982798425616,0.5,34.650001525878906,0.0,0.0,0.0,0.0,0.0,snow covered,0.25834733247757,-8.3919563293457,100.0,454.298522949219
frame_00115.png,1769615220826332547,1769615220.8263326,42.299442737560575,-83.6975467041068,234.32342529296875,0.7300121349884688,0.6833602906736524,0.008363929859693236,0.005571407120364567,0.01106,-0.00014000000000000004,-0.00029,2.3101000000000003,-0.2712,-10.0137,2.5119093627527227,5.618990529916076,6.889999866485596,6.920000076293945,11.15999984741211,8.429999351501465,5.5947434173850725,5.619103864351388,9.062022771297226,6.845237198013211,6.780276812761724,0.20667169247978667,0.5,35.20000076293945,0.0,0.0,0.0,0.0,0.0,snow covered,0.25834733247757,-8.3919563293457,100.0,454.298522949219
frame_00116.png,1769615220847123883,1769615220.8471239,42.29944319817091,-83.69754667851862,234.32400512695312,0.730086965218071,0.6832813598433513,0.008310359072861113,0.005526702576403388,0.011730000000000003,-0.00506,0.017560000000000003,1.3298,0.463,-9.85,2.5428608726681965,5.688227200506396,7.019999980926514,6.929999828338623,12.75,10.319999694824219,5.700304708912154,5.627223755209379,10.353117554999999,8.379934902594453,7.515145230428996,0.32117529161984926,0.5,36.0,0.0,0.0,0.0,0.0,0.0,snow covered,0.25834733247757,-8.3919563293457,100.0,454.298522949219
frame_00117.png,1769615220867655546,1769615220.8676555,42.29944366097037,-83.69754665728085,234.3247833251953,0.730172414853985,0.6831936079584521,0.008170806816461753,0.00528928605586424,0.024320000000000005,-0.0019300000000000003,0.009910000000000002,1.9425000000000001,-1.0918,-10.0896,2.576240256062658,5.762894878396803,7.139999866485596,7.069999694824219,13.489999771118164,13.279999732971191,5.797745722385073,5.740904937594452,10.954004191945838,10.783482224770147,8.319034269173876,0.44355127843112313,0.5,36.650001525878906,0.0,0.0,0.0,0.0,0.0,snow covered,0.25834733247757,-8.3919563293457,100.0,454.298522949219
frame_00118.png,1769615220888289063,1769615220.888289,42.29944412984467,-83.6975466342444,234.32537841796875,0.7303350840894417,0.6830220341072764,0.008107184913762656,0.00508324943327915,0.023150000000000004,0.020470000000000002,0.029820000000000006,1.3694000000000002,0.505,-10.356300000000001,2.5977476977769167,5.8110057350650965,7.279999732971191,7.21999979019165,13.84999942779541,14.899999618530273,5.911426904770146,5.862706398033686,11.246327232364598,12.098937068243064,8.779849400852875,0.5109001438207186,0.5,37.22500228881836,0.0,0.0,0.0,0.0,0.0,snow covered,0.25834733247757,-8.3919563293457,100.0,454.298522949219
frame_00119.png,1769615220909175813,1769615220.9091759,42.29944460904411,-83.69754661149166,234.3263702392578,0.7304972198670082,0.6828527017294463,0.00790901069172833,0.004842216150239658,0.03159000000000001,0.00048,0.020050000000000005,2.1232,0.055900000000000005,-9.8778,2.640603409272632,5.906871390338321,7.519999980926514,7.299999713897705,15.369999885559082,16.010000228881836,6.106309318912153,5.927667073682299,12.480581618472918,13.00026779805416,9.378706452280383,0.5877620880015824,0.5,37.72500228881836,0.0,0.0,0.0,0.0,0.0,snow covered,0.25834733247757,-8.3919563293457,100.0,454.298522949219
frame_00120.png,1769615220929839013,1769615220.9298391,42.29944508681205,-83.69754658990115,234.32733154296875,0.7307083806466705,0.6826301658153827,0.007688079354936048,0.004713025293331518,0.021200000000000004,-0.004090000000000001,0.034190000000000005,1.4561000000000002,-0.5192,-10.0337,2.6737735056871164,5.981070905811738,7.539999961853027,7.37999963760376,17.10999870300293,16.78999900817871,6.122549487824307,5.992627749330913,13.89347670102642,13.63363399843197,9.910571984153401,0.6569895492333007,0.5,37.75,0.0,0.0,0.0,0.0,0.0,snow covered,0.25834733247757,-8.3919563293457,100.0,454.298522949219
frame_00121.png,1769615220950494060,1769615220.950494,42.29944557271483,-83.69754656868288,234.32815551757812,0.7310316656984043,0.6822848235416288,0.007755957037742428,0.0044686062048048735,0.011640000000000001,0.028210000000000002,0.03204,1.6094000000000002,0.4217,-9.4826,2.7157657847515395,6.075005114542109,7.639999866485596,7.519999980926514,16.5,16.53999900817871,6.203750332385074,6.106309318912153,13.39815213,13.43063169343197,9.7847108686823,0.6106506388381538,0.5,37.875,0.0,0.0,0.0,0.0,0.0,snow covered,0.25834733247757,-8.3919563293457,100.0,454.298522949219
frame_00122.png,1769615220971044397,1769615220.9710443,42.299446071857915,-83.69754654844346,234.32916259765625,0.7312310543885788,0.6820715979113594,0.007798827077722056,0.004319573662304814,0.0027700000000000003,0.0073300000000000014,0.027340000000000003,2.7834000000000003,-0.27440000000000003,-9.7459,2.7696130227468876,6.195458155103423,7.889999866485596,7.769999980926514,16.84000015258789,16.81999969482422,6.406752637385073,6.309311623912153,13.674235388702774,13.657994832594452,10.012073620648614,0.6160344190851015,0.5,37.5,0.0,0.0,0.0,0.0,0.0,snow covered,0.25834733247757,-8.3919563293457,100.0,454.298522949219
frame_00123.png,1769615220991875475,1769615220.9918756,42.29944656929688,-83.69754652699187,234.33004760742188,0.7314363704416242,0.6818497116981354,0.00798551420467488,0.004247142008426971,-0.00759,0.0238,0.03159000000000001,2.2911,0.47590000000000005,-9.4628,2.8149617650408523,6.296900570690484,8.09999942779541,8.0,17.549999237060547,17.28999900817871,6.5772742173645975,6.49607376,14.25076119148613,14.03963860843197,10.340936944320674,0.6422264935313633,0.30000001192092896,37.92499923706055,0.0,0.0,0.0,0.0,0.0,snow covered,0.25834733247757,-8.3919563293457,100.0,454.298522949219
frame_00124.png,1769615221012486201,1769615221.0124862,42.299447079432795,-83.69754650482278,234.33084106445312,0.731613307765657,0.6816590149049383,0.008189712548346766,0.003985462005646761,0.009210000000000001,0.032830000000000005,0.024610000000000003,2.5389,0.5126000000000001,-10.2353,2.861305141348685,6.400567922888528,8.050000190734863,8.079999923706055,17.06999969482422,17.10999870300293,6.536674375878468,6.5610344356486126,13.860997137594453,13.89347670102642,10.213045662536988,0.595646790344179,0.0,37.875,0.0,0.0,0.0,0.0,0.0,snow covered,0.25834733247757,-8.3919563293457,100.0,454.298522949219
frame_00125.png,1769615221033007703,1769615221.0330076,42.29944760551567,-83.6975464822341,234.3321990966797,0.7317664967046204,0.6814938054919057,0.008333696800095537,0.003812725331218843,-0.0034800000000000005,0.014430000000000002,0.021190000000000004,3.1159000000000003,-0.7092,-11.218200000000001,2.919612671380942,6.530998369118884,7.889999866485596,7.909999847412109,16.619998931884766,16.959999084472656,6.406752637385073,6.422992806297226,13.495592369080581,13.771675627783356,10.024253360136559,0.5348730459856108,-0.20000000298023224,37.650001525878906,0.0,0.0,0.0,0.0,0.0,snow covered,0.25834733247757,-8.3919563293457,100.0,454.298522949219
frame_00126.png,1769615221053797821,1769615221.053798,42.29944812928084,-83.69754645533835,234.3335418701172,0.7319344957352379,0.6813122672215175,0.008395764345659263,0.0038729352345606006,-0.004110000000000001,0.006010000000000001,0.025570000000000002,1.6055000000000001,1.0057,-10.8949,2.9569759513054743,6.614577784513268,8.09999942779541,8.069999694824219,16.989999771118164,16.920000076293945,6.5772742173645975,6.5529141575944525,13.796036461945839,13.739196064351386,10.166355225314069,0.5369620792904709,-0.4000000059604645,37.775001525878906,0.0,0.0,0.0,0.0,0.0,snow covered,0.25834733247757,-8.3919563293457,100.0,454.298522949219
frame_00127.png,1769615221074589079,1769615221.0745893,42.29944866613296,-83.6975464326605,234.3352508544922,0.7320569873524041,0.6811800315009152,0.008497217546231478,0.003758889052145079,-0.00101,0.015250000000000001,0.013430000000000003,2.6310000000000002,-0.3593,-9.690900000000001,3.0047626909536667,6.7214738539018954,8.399999618530273,8.34999942779541,16.5,16.719999313354492,6.820877138243064,6.7802765223645975,13.39815213,13.576793600837517,10.144024847861294,0.5091965048666472,-0.4000000059604645,37.67499923706055,0.0,0.0,0.0,0.0,0.0,snow covered,0.25834733247757,-8.3919563293457,100.0,454.298522949219
frame_00128.png,1769615221095181917,1769615221.095182,42.29944921832434,-83.69754640711254,234.33743286132812,0.7321833588614121,0.6810414269689014,0.008661516658553565,0.0038835406212605573,-0.025130000000000006,-0.0011800000000000003,0.021190000000000004,2.8628,-0.272,-10.0944,3.0614255169245697,6.848225195829247,8.579999923706055,8.519999504089355,16.489999771118164,16.299999237060547,6.9670390456486135,6.918318151715985,13.39003185194584,13.23574966648613,10.127784678949142,0.47889188648720765,-0.4000000059604645,37.67499923706055,0.0,0.0,0.0,0.0,0.0,snow covered,0.25834733247757,-8.3919563293457,100.0,454.298522949219
frame_00129.png,1769615221115893700,1769615221.1158938,42.29944976964416,-83.69754637797698,234.33973693847656,0.732345768191856,0.6808637310576064,0.008812197905990516,0.004074396870873155,-0.0239,-0.0005900000000000001,0.018900000000000004,2.3875,0.125,-10.1338,3.1101615746845903,6.957244832874948,8.639999389648438,8.729999542236328,16.770000457763672,16.079999923706055,7.015759165188904,7.088840118891678,13.617394991108322,13.057108195648613,10.194775617709379,0.4653466799869085,-0.30000001192092896,37.72500228881836,0.0,0.0,0.0,0.0,0.0,snow covered,0.25834733247757,-8.3919563293457,100.0,454.298522949219
frame_00130.png,1769615221136550544,1769615221.1365507,42.29945033338859,-83.6975463544796,234.34194946289062,0.7324403487249229,0.6807591355189727,0.008940498221528915,0.004266433958800048,-0.019680000000000003,-0.007720000000000001,0.013830000000000002,2.5966,0.1241,-10.118400000000001,3.1604997926508402,7.069848406172371,8.729999542236328,8.829999923706055,15.84999942779541,15.829999923706055,7.088840118891678,7.170041350648613,12.870345672364598,12.854105890648613,9.995833258138376,0.4138681176546102,0.0,37.57500076293945,0.0,0.0,0.0,0.0,0.0,snow covered,0.25834733247757,-8.3919563293457,100.0,454.298522949219
frame_00131.png,1769615221157559610,1769615221.1575596,42.29945091246521,-83.69754633058348,234.34463500976562,0.7325653176413688,0.6806217201795259,0.00902457927727719,0.004548227977087953,-0.034440000000000005,-0.014320000000000003,0.018530000000000005,2.5366,-0.8224,-10.389000000000001,3.210162943335673,7.180941894465301,8.949999809265137,9.059999465942383,15.449999809265137,15.989999771118164,7.267482364121533,7.356803099540292,12.545542294121534,12.98402724194584,10.0384637499323,0.3979313434731214,0.5,37.625,0.0,0.0,0.0,0.0,0.0,snow covered,0.25834733247757,-8.3919563293457,100.0,454.298522949219
frame_00132.png,1769615221178007012,1769615221.1780071,42.29945149148491,-83.69754629935525,234.34713745117188,0.7327378721600614,0.6804320816052929,0.009148203333012014,0.0048686138079840485,-0.022580000000000003,-0.00801,0.023280000000000002,2.3161,1.5645,-9.4169,3.254658409287461,7.280475582071493,9.220000267028809,9.199999809265137,15.170000076293945,15.829999923706055,7.486725225229855,7.470484669121532,12.318179929351386,12.854105890648613,10.032373928587846,0.3779833220364106,1.100000023841858,37.57500076293945,0.0,0.0,0.0,0.0,0.0,snow covered,0.25834733247757,-8.3919563293457,100.0,454.298522949219
frame_00133.png,1769615221219592141,1769615221.219592,42.29945268582788,-83.69754625314934,234.3519744873047,0.7330463055851549,0.6800969280856703,0.0091559573359096,0.005239343628075304,-0.026260000000000006,-0.009570000000000002,0.03751,2.0985,-0.0883,-9.679300000000001,3.347500464517542,7.4881576890978705,9.469999313354492,9.25,14.4399995803833,14.889999389648438,7.689726755837517,7.511085285,11.725412796067372,12.090816790188905,9.754260406773449,0.3026248660568185,2.5,37.775001525878906,0.0,0.0,0.0,0.0,0.0,snow covered,0.25834733247757,-8.3919563293457,100.0,454.298522949219
frame_00134.png,1769615221240308559,1769615221.2403085,42.299453292361555,-83.69754622238791,234.35426330566406,0.7333314669892926,0.6797879854752096,0.00922836905143417,0.0053001444828050595,-0.0014900000000000002,0.0005000000000000001,0.029360000000000004,2.7582,-0.2705,-9.356900000000001,3.4247549059495896,7.6609712393148754,9.429999351501465,9.550000190734863,13.799999237060547,14.769999504089355,7.6572464180132105,7.754688205878468,11.20572661648613,11.993375776715984,9.652759254273448,0.25999157975388765,3.299999952316284,37.775001525878906,0.0,0.0,0.0,0.0,0.0,snow covered,0.25834733247757,-8.3919563293457,100.0,454.298522949219
frame_00135.png,1769615221260994985,1769615221.2609951,42.29945390730154,-83.69754619917617,234.35626220703125,0.7335724845321461,0.6795277094568398,0.009246758366774835,0.005291453239111746,-0.0010600000000000002,0.008810000000000002,0.031920000000000004,2.3523,-0.0965,-9.6531,3.4683290955047914,7.758444086898488,9.729999542236328,9.399999618530273,12.619999885559082,14.50999927520752,7.900849338891678,7.632886358243065,10.24755626347292,11.782253193661825,9.390886288567371,0.21040845089359494,4.200000286102295,37.75,0.0,0.0,0.0,0.0,0.0,snow covered,0.25834733247757,-8.3919563293457,100.0,454.298522949219
frame_00136.png,1769615221281742774,1769615221.2817428,42.29945453668266,-83.69754617273327,234.35816955566406,0.7338081719564861,0.6792713840748017,0.009401980221520237,0.005249410909585973,-0.00768,0.024120000000000006,0.04059,2.1534,0.448,-9.0066,3.5102527894600697,7.852224874854809,9.769999504089355,9.65999984741211,11.800000190734863,14.519999504089355,7.933329676715984,7.844008941297226,9.581708950878468,11.790373471715984,9.287355260151916,0.18276735678989878,4.900000095367432,37.525001525878906,0.0,0.0,0.0,0.0,0.0,snow covered,0.25834733247757,-8.3919563293457,100.0,454.298522949219
frame_00137.png,1769615221302192261,1769615221.3021924,42.29945516778573,-83.69754614307922,234.35984802246094,0.7340508413533511,0.6790074791473864,0.009566968145586328,0.005165141900304532,-0.00974,0.008060000000000001,0.022910000000000003,3.4497,-0.3699,-8.579600000000001,3.574344361592956,7.995593876221747,10.019999504089355,10.039999961853027,9.819999694824219,14.769999504089355,8.136331981715985,8.152572537824307,7.973930292594452,11.993375776715984,9.064052647212682,0.13363094568477837,5.800000190734863,37.47500228881836,0.0,0.0,0.0,0.0,0.0,snow covered,0.25834733247757,-8.3919563293457,100.0,454.298522949219
frame_00138.png,1769615221322785913,1769615221.3227859,42.29945580935858,-83.69754611808898,234.361328125,0.7342793179493006,0.6787576743609885,0.009681836112611872,0.00530704978881107,-0.008610000000000001,0.005350000000000001,0.03746000000000001,0.8452000000000001,2.6134,-9.7491,3.6058978847241696,8.066177214254884,10.1899995803833,10.25,9.84000015258789,14.84999942779541,8.274373611067372,8.323094505,7.990170848702774,12.058336452364598,9.161493854283686,0.1357912938105442,6.400000095367432,37.625,0.0,0.0,0.0,0.0,0.0,snow covered,0.25834733247757,-8.3919563293457,100.0,454.298522949219
frame_00139.png,1769615221343459815,1769615221.3434598,42.299456461917146,-83.69754607954418,234.36268615722656,0.7343846787190084,0.678642820451165,0.009836311963188552,0.005129608155565632,-0.00821,0.0062900000000000005,0.005420000000000001,2.5411,-0.2429,-9.6917,3.6527410317897977,8.170962523651871,10.34000015258789,10.899999618530273,10.130000114440918,14.1899995803833,8.396175458702775,8.850900188243065,8.225653491527082,11.522410491067372,9.248784907385073,0.1319088639328977,7.200000286102295,37.47500228881836,0.0,0.0,0.0,0.0,0.0,snow covered,0.25834733247757,-8.3919563293457,100.0,454.298522949219
frame_00140.png,1769615221364142670,1769615221.3641427,42.29945711972347,-83.69754604662174,234.3638458251953,0.7344873761692624,0.6785300906842535,0.009991346568162016,0.005038181990133412,0.009170000000000001,0.019770000000000003,0.013640000000000003,2.4923,2.5406,-9.9189,3.6976779828239983,8.271483786898315,10.59999942779541,11.420000076293945,10.269999504089355,12.880000114440918,8.607297267364597,9.273145354351389,8.339334286715985,10.458678846527082,9.169613938739763,0.1085815042355579,7.400000095367432,37.875,0.0,0.0,0.0,0.0,0.0,snow covered,0.25834733247757,-8.3919563293457,100.0,454.298522949219
frame_00141.png,1769615221384842437,1769615221.3848424,42.299457785572066,-83.69754600587211,234.36534118652344,0.7344406339822264,0.6785827718593473,0.009905566136994028,0.004925104158925176,0.0031000000000000003,-0.007450000000000001,-0.01665,3.1566,-0.42550000000000004,-10.7936,3.760985867908468,8.41309972735917,11.119999885559082,11.469999313354492,10.529999732971191,11.679999351501465,9.029542433472919,9.313745195837516,8.550456869770146,9.484267163013211,9.09450291552345,0.0809931190935935,7.800000190734863,37.85000228881836,0.0,0.0,0.0,0.0,0.0,snow covered,0.25834733247757,-8.3919563293457,100.0,454.298522949219
frame_00142.png,1769615221405997534,1769615221.4059975,42.29945914329014,-83.69754589325838,234.3686981201172,0.7344310683602344,0.6785921461485701,0.009942146346094003,0.00498585386417876,0.005580000000000001,0.010000000000000002,1e-05,1.9560000000000002,2.475,-9.8401,3.7972043819356083,8.49411837012704,11.90999984741211,11.420000076293945,10.559999465942383,10.239999771118164,9.671029686297226,9.273145354351389,8.57481692954029,8.31497422694584,8.958491549283686,0.05466996796157197,7.900000095367432,37.54999923706055,0.0,4.0,0.0,0.0,0.0,snow covered,0.25834733247757,-8.3919563293457,100.0,454.298522949219
frame_00143.png,1769615221426320842,1769615221.4263208,42.299459834356966,-83.69754583757907,234.37071228027344,0.7342437299532092,0.6787953351298003,0.009907608802015622,0.004987716736836571,-0.013840000000000002,0.0024000000000000002,-0.03542,3.3578,-0.6797000000000001,-10.32,3.854345945101953,8.621940618436364,11.920000076293945,11.75,10.489999771118164,10.829999923706055,9.679149964351387,9.541108335,8.51797653194584,8.794059790648614,9.13307365548646,0.05928282966332842,8.0,37.525001525878906,0.0,0.0,0.0,0.0,0.0,snow covered,0.25834733247757,-8.3919563293457,100.0,454.298522949219
frame_00144.png,1769615221447029383,1769615221.4470296,42.299460538308374,-83.69754576896705,234.37290954589844,0.7341613057716048,0.6788827947667535,0.009896813019697973,0.005232701928014227,-0.0033900000000000007,-0.0038800000000000006,-0.012780000000000001,2.0589,2.2868,-9.7646,3.897117501899642,8.717618024699386,10.779999732971191,11.929999351501465,10.779999732971191,10.710000038146973,8.753459174770146,9.687269468013211,8.753459174770146,8.696618777175694,8.9727016486823,0.02926070209318564,8.0,37.72500228881836,0.0,0.0,0.0,0.0,0.0,snow covered,0.25834733247757,-8.3919563293457,100.0,454.298522949219
frame_00145.png,1769615221467963925,1769615221.467964,42.29946124242767,-83.6975457060496,234.37513732910156,0.733899718147077,0.6791661774748078,0.009789594780061433,0.00535452256889834,-0.01093,-0.013130000000000003,-0.04193000000000001,1.6121,-0.0881,-10.2637,3.937974609850116,8.809012923758118,10.829999923706055,11.34000015258789,10.789999961853027,11.15999984741211,8.794059790648614,9.208184678702773,8.761579452824307,9.062022771297226,8.956461673368231,0.016738396331834243,8.40000057220459,37.54999923706055,0.0,0.0,0.0,0.0,0.0,snow covered,0.25834733247757,-8.3919563293457,100.0,454.298522949219
frame_00146.png,1769615221488323468,1769615221.4883237,42.29946195807583,-83.69754563724085,234.37783813476562,0.733690678945658,0.6793905019585251,0.009830278420779293,0.005468007221346882,-0.00109,-0.00884,-0.034280000000000005,2.7866,1.5510000000000002,-10.844700000000001,3.9828829609579675,8.909470210685317,10.859999656677246,10.979999542236328,11.039999961853027,11.219999313354492,8.81841985041876,8.915860863891679,8.964581757824307,9.110742890837516,8.952401340743064,0.00481859516251133,8.699999809265137,37.775001525878906,0.0,0.0,0.0,0.0,0.0,snow covered,0.25834733247757,-8.3919563293457,100.0,454.298522949219
frame_00147.png,1769615221509047742,1769615221.5090477,42.29946268427681,-83.6975455615399,234.38104248046875,0.7334443736972356,0.679660429273988,0.009517786349968341,0.005519358111633707,0.019340000000000003,-0.03355,-0.03866,2.3468,-0.12510000000000002,-11.0463,4.036237945201447,9.028822109138925,10.979999542236328,11.199999809265137,11.25999927520752,11.34999942779541,8.915860863891679,9.094503109121534,9.143223228661824,9.216304182364599,9.092472846009908,0.0070497276501389865,9.40000057220459,37.650001525878906,0.0,0.0,0.0,0.0,0.0,snow covered,0.25834733247757,-8.3919563293457,100.0,454.298522949219
frame_00148.png,1769615221530016374,1769615221.5300162,42.299463414618316,-83.69754548399949,234.3842315673828,0.7332310302636541,0.679895126828929,0.009220054633162732,0.005464738359379045,0.024620000000000003,-0.007750000000000001,-0.03388000000000001,2.6804,-0.16160000000000002,-10.5816,4.074347253033031,9.11407034419971,11.239999771118164,11.4399995803833,11.300000190734863,11.369999885559082,9.12698344694584,9.289385136067372,9.175704340878468,9.23254473847292,9.206154415591149,0.010103506766330988,10.300000190734863,37.70000076293945,0.0,0.0,0.0,0.0,0.0,snow covered,0.25834733247757,-8.3919563293457,100.0,454.298522949219
frame_00149.png,1769615221550578567,1769615221.5505786,42.29946415478038,-83.69754541329013,234.38778686523438,0.7329910821201615,0.6801653533023772,0.008412572262634688,0.005328632778966767,0.05100000000000001,-0.033190000000000004,-0.02186,3.1208,-0.9112,-10.090300000000001,4.155644610475718,9.295927654957552,11.359999656677246,11.579999923706055,11.489999771118164,11.429999351501465,9.224424460418758,9.403066705648614,9.329985751945838,9.28126485801321,9.309685444006606,0.0014799802192647865,11.5,37.775001525878906,0.0,0.0,0.0,0.0,0.0,snow covered,0.25834733247757,-8.3919563293457,100.0,454.298522949219
frame_00150.png,1769615221571115229,1769615221.5711153,42.29946490956779,-83.69754534170261,234.39114379882812,0.7328871656121049,0.680284383000771,0.007860074185762771,0.005270669797075502,0.040190000000000003,-0.031700000000000006,-0.014550000000000002,2.0545,-0.4169,-9.2357,4.200013008017991,9.395177098155765,11.40999984741211,11.84999942779541,11.529999732971191,11.5,9.265025076297226,9.622308792364597,9.362466089770146,9.33810603,9.396976497107993,0.00019152368640086828,12.800000190734863,37.775001525878906,0.0,0.0,0.0,0.0,0.0,snow covered,0.25834733247757,-8.3919563293457,100.0,454.298522949219
frame_00151.png,1769615221591794521,1769615221.5917945,42.29946566548711,-83.69754527004069,234.3944549560547,0.7328256296883237,0.6803558947682462,0.007494771485949895,0.0051265316135160315,0.033190000000000004,-0.011340000000000001,-0.00923,2.241,-0.17450000000000002,-8.321900000000001,4.24140768264677,9.487774501619866,11.729999542236328,11.829999923706055,11.75999927520752,11.729999542236328,9.524867778891679,9.606069010648612,9.549227838661823,9.524867778891679,9.551258101773449,0.006691094960440383,14.199999809265137,37.47500228881836,0.0,0.0,0.0,0.0,0.0,snow covered,0.25834733247757,-8.3919563293457,100.0,454.298522949219
frame_00152.png,1769615221612471222,1769615221.6124713,42.2994664317106,-83.69754520323691,234.39730834960938,0.7328015974232103,0.6803872611704406,0.00709477971207986,0.004965657238969865,0.042170000000000006,-0.022050000000000004,-0.005710000000000001,2.5908,-0.047,-8.5982,4.294819183065766,9.607252823367133,11.789999961853027,11.769999504089355,11.889999389648438,11.84999942779541,9.573588672824306,9.557348116715985,9.654789130188902,9.622308792364597,9.602008678023449,0.0005458527468882549,15.5,37.525001525878906,0.0,0.0,0.0,0.0,0.0,snow covered,0.25834733247757,-8.3919563293457,100.0,454.298522949219
frame_00153.png,1769615221633002241,1769615221.6330023,42.29946720993088,-83.69754513950926,234.39939880371094,0.7327671719894283,0.6804276425588041,0.0068343824146020315,0.004877100931376387,0.01322,-0.008350000000000002,-0.0025200000000000005,1.3122,-1.2076,-9.047500000000001,4.327232224587996,9.679758852469872,11.90999984741211,11.989999771118164,12.149999618530273,11.989999771118164,9.671029686297226,9.73599036194584,9.865911713243065,9.73599036194584,9.752230530857993,0.007486930149053166,16.700000762939453,37.375,0.0,0.0,0.0,0.0,0.0,snow covered,0.25834733247757,-8.3919563293457,100.0,454.298522949219
frame_00154.png,1769615221653813521,1769615221.6538136,42.29946799126936,-83.69754506849915,234.4012451171875,0.7327592129339154,0.6804372857208874,0.00686207847934616,0.004684862879942799,0.016810000000000002,0.01831,-0.0059700000000000005,3.2541,0.6226,-8.7039,4.376598188204858,9.790187551122976,12.09999942779541,12.25999927520752,12.279999732971191,12.199999809265137,9.825311097364597,9.955232448661823,9.971473004770145,9.906512329121533,9.914632219979525,0.012711162907423048,17.0,37.54999923706055,0.0,0.0,0.0,0.0,0.0,snow covered,0.25834733247757,-8.3919563293457,100.0,454.298522949219
frame_00155.png,1769615221674500433,1769615221.6745005,42.29946878174747,-83.69754500647156,234.40289306640625,0.7326545508930269,0.6805533222778364,0.006611680872088939,0.004557440990488221,0.028910000000000005,-0.013260000000000003,-0.01754,2.47,-0.4812,-9.503,4.436772744319837,9.924794422678817,12.219999313354492,12.179999351501465,12.289999961853027,12.25999927520752,9.922752110837518,9.890271773013211,9.979593282824307,9.955232448661823,9.936962403834215,0.0012260184581348985,17.0,37.625,0.0,0.0,0.0,0.0,0.0,snow covered,0.25834733247757,-8.3919563293457,100.0,454.298522949219
frame_00156.png,1769615221695306926,1769615221.695307,42.29946958534051,-83.69754494312242,234.4041748046875,0.7325933286518412,0.6806203501692845,0.006576079764200886,0.004439473526349115,0.0030100000000000005,0.015140000000000002,-0.008790000000000001,1.9833,-0.32730000000000004,-9.8353,4.467873996273432,9.99436605722389,12.449999809265137,12.4399995803833,12.4399995803833,12.489999771118164,10.109514634121533,10.101394356067372,10.101394356067372,10.14199497194584,10.11357457955053,0.011927572158563852,16.600000381469727,37.57500076293945,0.0,0.0,0.0,0.0,0.0,snow covered,0.25834733247757,-8.3919563293457,100.0,454.298522949219
frame_00157.png,1769615221716071630,1769615221.7160716,42.299470394823146,-83.69754487364271,234.40516662597656,0.7324789900596169,0.6807439105895424,0.0066034966207066835,0.004318697590829477,0.011460000000000001,0.0029900000000000005,-0.019530000000000002,3.1255,0.9769000000000001,-8.9742,4.525759395161931,10.12385222141353,12.529999732971191,12.539999961853027,12.5,12.40999984741211,10.174475309770145,10.182595587824308,10.15011525,10.077034296297228,10.14605511097292,0.0021931265958650774,16.0,37.57500076293945,0.0,0.0,0.0,0.0,0.0,snow covered,0.25834733247757,-8.3919563293457,100.0,454.298522949219
frame_00158.png,1769615221736731552,1769615221.7367315,42.299471210405194,-83.69754481409062,234.40626525878906,0.7322643666466815,0.6809758366910715,0.00651433976730341,0.004286089106133838,-0.0006700000000000001,-0.0037800000000000004,-0.03431000000000001,1.8801,-1.4906000000000001,-9.8438,4.570238716083407,10.223349793555617,12.679999351501465,12.630000114440918,12.670000076293945,12.719999313354492,10.29627638301321,10.255676541527082,10.288156879351387,10.328756720837516,10.2922166311823,0.006736230200212205,15.199999809265137,37.57500076293945,0.0,0.0,0.0,0.0,0.0,snow covered,0.25834733247757,-8.3919563293457,100.0,454.298522949219
frame_00159.png,1769615221757374206,1769615221.7573743,42.299472039320314,-83.69754475225301,234.4073486328125,0.7320953016559026,0.6811540501017955,0.006787417196556077,0.004422701784376973,-0.03159000000000001,0.00922,-0.022930000000000002,2.1388000000000003,0.3184,-10.4047,4.6079785487341125,10.307771534805287,12.869999885559082,12.949999809265137,12.789999961853027,12.799999237060547,10.45055856847292,10.515519244121531,10.385597892824308,10.39371739648613,10.436348275476222,0.012473767024888165,14.300000190734863,37.42499923706055,0.0,0.0,0.0,0.0,0.0,snow covered,0.25834733247757,-8.3919563293457,100.0,454.298522949219
frame_00160.png,1769615221778404338,1769615221.7784042,42.29947287214228,-83.69754468770408,234.40847778320312,0.7318707185232888,0.6813931949377385,0.00691944478981412,0.004548246315532262,-0.017480000000000002,-0.006240000000000001,-0.035910000000000004,2.7229,0.12150000000000001,-10.6767,4.662880712536031,10.430584381100351,12.960000038146973,13.039999961853027,12.869999885559082,13.039999961853027,10.523639522175694,10.588600197824306,10.45055856847292,10.588600197824306,10.537849621574306,0.010283722997180687,13.40000057220459,37.85000228881836,0.0,0.0,0.0,0.0,0.0,snow covered,0.25834733247757,-8.3919563293457,100.0,454.298522949219
frame_00161.png,1769615221798846497,1769615221.7988465,42.29947371283342,-83.69754463049249,234.41014099121094,0.731656963760759,0.6816186594455433,0.007125214022623983,0.004829265076564381,-0.041210000000000004,-0.007160000000000001,-0.030980000000000004,1.8282,-0.8139000000000001,-10.1411,4.7053016997718595,10.525477584287664,13.00999927520752,13.269999504089355,13.170000076293945,13.119999885559082,10.564239363661825,10.775361946715984,10.694161489351387,10.65356087347292,10.671830918300529,0.013904673953354837,12.5,37.54999923706055,0.0,0.0,0.0,0.0,0.0,snow covered,0.25834733247757,-8.3919563293457,100.0,454.298522949219
frame_00162.png,1769615221819270321,1769615221.8192704,42.29947456699937,-83.69754457271685,234.41224670410156,0.7314495875882419,0.6818352201432,0.007467127231049505,0.00514542517002095,-0.04628,0.0061,-0.030540000000000005,2.3188,-0.1322,-10.5259,4.747241847349024,10.619295178008926,13.130000114440918,13.299999237060547,13.229999542236328,13.279999732971191,10.661681151527082,10.799722006486132,10.742881608891679,10.783482224770147,10.74694174791876,0.01202024878018003,11.800000190734863,37.60000228881836,0.0,0.0,0.0,0.0,0.0,snow covered,0.25834733247757,-8.3919563293457,100.0,454.298522949219
frame_00163.png,1769615221840129626,1769615221.8401296,42.29947542486616,-83.69754451544588,234.4145050048828,0.7312500387628119,0.6820433318008166,0.007726121214689036,0.005530045786716501,-0.04465,-0.014700000000000003,-0.026270000000000005,2.8887,-0.2431,-11.1972,4.803765394631236,10.745734961866399,13.279999732971191,13.34999942779541,13.289999961853027,13.420000076293945,10.783482224770147,10.840322622364598,10.791602502824306,10.897163794351389,10.82814278607761,0.0076688867260967675,11.300000190734863,37.45000076293945,0.0,0.0,0.0,0.0,0.0,snow covered,0.25834733247757,-8.3919563293457,100.0,454.298522949219
frame_00164.png,1769615221861039167,1769615221.8610392,42.29947629035002,-83.69754446308438,234.41734313964844,0.7310316941003995,0.6822704143031249,0.007942065140106229,0.006055376838212741,-0.035,-0.007910000000000002,-0.018640000000000004,2.2944,-0.4827,-10.710600000000001,4.8645249435596085,10.881650427246232,13.429999351501465,13.539999961853027,13.449999809265137,13.630000114440918,10.905283298013211,10.994604807824306,10.921523854121533,11.06768576152708,10.972274430371533,0.008328148724424217,11.0,37.775001525878906,0.0,0.0,0.0,0.0,0.0,snow covered,0.25834733247757,-8.3919563293457,100.0,454.298522949219
frame_00165.png,1769615221881438097,1769615221.8814383,42.299477170664645,-83.69754440974152,234.4207000732422,0.7309217134008892,0.6823846660591347,0.008047693089079808,0.006312768205428172,-0.022430000000000002,-0.009710000000000002,-0.014590000000000002,2.7251000000000003,0.1579,-10.0663,4.915547000755112,10.99578370786914,13.5,13.729999542236328,13.59000015258789,13.779999732971191,10.962124470000001,11.148886218891679,11.035205423702774,11.189486834770145,11.08392573684115,0.00801598424575514,11.0,37.525001525878906,0.0,0.0,0.0,0.0,0.0,snow covered,0.25834733247757,-8.3919563293457,100.0,454.298522949219
frame_00166.png,1769615221902208716,1769615221.9022088,42.29947805214595,-83.697544355171,234.42410278320312,0.7308343040548919,0.6824774684367229,0.007985887580213302,0.0064769354142095534,-0.0029200000000000007,-0.007290000000000001,-0.013130000000000003,1.9622000000000002,0.0472,-10.3331,4.955334672284191,11.084786341819399,13.779999732971191,13.679999351501465,13.779999732971191,13.679999351501465,11.189486834770145,11.108285603013211,11.189486834770145,11.108285603013211,11.148886218891679,0.00578268945342245,11.100000381469727,37.72500228881836,0.0,0.0,0.0,0.0,0.0,snow covered,0.25834733247757,-8.3919563293457,100.0,454.298522949219
frame_00167.png,1769615221922816381,1769615221.9228163,42.29947894208263,-83.69754430474383,234.42770385742188,0.7307772307804778,0.6825384894790654,0.00798645622135437,0.006485820647851541,-0.00256,0.015790000000000002,-0.007930000000000001,2.008,-0.1107,-9.8485,4.989582514224964,11.161396709370392,13.920000076293945,13.969999313354492,13.90999984741211,13.949999809265137,11.303168404351387,11.343768245837518,11.295048126297226,11.327528464121533,11.317378310151916,0.013975096920493162,11.199999809265137,37.400001525878906,0.0,0.0,0.0,0.0,0.0,snow covered,0.25834733247757,-8.3919563293457,100.0,454.298522949219
frame_00168.png,1769615221943583753,1769615221.9435837,42.299479845007646,-83.697544251174,234.43128967285156,0.7307289464695211,0.6825894987813506,0.00803051364142265,0.006503368021504595,-0.0017100000000000001,0.005040000000000001,-0.007450000000000001,2.0528,1.1783000000000001,-8.9465,5.034665917047664,11.262245576480602,14.039999961853027,14.210000038146973,14.039999961853027,14.059999465942383,11.400609417824308,11.538651047175694,11.400609417824308,11.416849199540291,11.43917977059115,0.015710383236540865,11.300000190734863,37.375,0.0,0.0,0.0,0.0,0.0,snow covered,0.25834733247757,-8.3919563293457,100.0,454.298522949219
frame_00169.png,1769615221964168314,1769615221.9641683,42.29948074799497,-83.69754419364095,234.43478393554688,0.7306422791647973,0.682683739099401,0.008002528684108218,0.006382147036173146,0.01238,0.0025700000000000007,-0.013130000000000003,2.1004,0.3613,-9.8015,5.080506663073794,11.364788574896293,14.119999885559082,14.170000076293945,14.219999313354492,14.109999656677246,11.46557009347292,11.506170709351387,11.546770550837518,11.457449815418759,11.493990292270144,0.01136859841451385,11.300000190734863,37.42499923706055,0.0,0.0,0.0,0.0,0.0,snow covered,0.25834733247757,-8.3919563293457,100.0,454.298522949219
frame_00170.png,1769615221984881639,1769615221.9848816,42.2994816603052,-83.69754413914481,234.43833923339844,0.7305925525452055,0.6827381470252051,0.007974286733920968,0.006289317383926526,0.0048400000000000006,0.004890000000000001,-0.006680000000000001,1.8726,0.17450000000000002,-10.2573,5.118531492258598,11.44984783629295,14.309999465942383,14.4399995803833,14.289999961853027,14.289999961853027,11.619851504540291,11.725412796067372,11.603611722824308,11.603611722824308,11.638121936564069,0.016443371384756815,11.300000190734863,37.125,0.0,0.0,0.0,0.0,0.0,snow covered,0.25834733247757,-8.3919563293457,100.0,454.298522949219
frame_00171.png,1769615222005649723,1769615222.0056496,42.29948351315337,-83.69754401399004,234.44549560546875,0.7305220592635493,0.6828151769811407,0.007980442519986197,0.006104715451357172,0.019310000000000004,0.01805,-0.013410000000000002,2.6349,1.2441,-9.2369,5.163771643595194,11.551047340423834,14.769999504089355,14.649999618530273,14.399999618530273,14.5,11.993375776715984,11.895934763243066,11.692932458243066,11.77413369,11.839094172050528,0.02493685837635266,11.199999809265137,37.57500076293945,0.0,0.0,0.0,0.0,0.0,snow covered,0.25834733247757,-8.3919563293457,100.0,454.298522949219
frame_00172.png,1769615222026632224,1769615222.0266323,42.29948444945268,-83.69754395058482,234.44906616210938,0.7304166606757722,0.6829313166823128,0.007791405604277342,0.0059676210106192375,0.020720000000000002,-0.0076700000000000015,-0.017490000000000002,2.5971,0.16010000000000002,-9.582,5.2200172005302425,11.676865276554121,14.9399995803833,14.6899995803833,14.579999923706055,14.6899995803833,12.131417406067373,11.928415101067372,11.839094365648613,11.928415101067372,11.956835493462682,0.023976487719757352,11.199999809265137,37.29999923706055,0.0,0.0,0.0,0.0,0.0,snow covered,0.25834733247757,-8.3919563293457,100.0,454.298522949219
frame_00173.png,1769615222046900560,1769615222.0469005,42.29948539918917,-83.69754387811807,234.4522705078125,0.7303206706419698,0.6830365318257935,0.007625814115314024,0.005887374927256887,0.01973,-0.0027100000000000006,-0.017570000000000002,1.8164,1.1462,-9.171700000000001,5.259339495967339,11.76482689210918,14.65999984741211,14.9399995803833,14.6899995803833,14.769999504089355,11.904055041297227,12.131417406067373,11.928415101067372,11.993375776715984,11.989315831286989,0.01908136356246568,11.100000381469727,37.5,0.0,0.0,0.0,0.0,0.0,snow covered,0.25834733247757,-8.3919563293457,100.0,454.298522949219
frame_00174.png,1769615222067623439,1769615222.0676234,42.29948634949987,-83.69754381135051,234.4552001953125,0.7301627418361925,0.6832098986773053,0.007400754814932142,0.005642128301377523,0.03679,-0.00068,-0.025360000000000004,1.8932,0.7020000000000001,-8.611,5.298487509984087,11.852398650583803,14.920000076293945,15.00999927520752,14.889999389648438,14.960000038146973,12.115177624351388,12.188257803661823,12.090816790188905,12.147657962175694,12.135477545094451,0.023883679823468056,11.0,37.375,0.0,0.0,0.0,0.0,0.0,snow covered,0.25834733247757,-8.3919563293457,100.0,454.298522949219
frame_00175.png,1769615222088268883,1769615222.0882688,42.299487308210054,-83.69754373744661,234.4578399658203,0.7299706445610262,0.6834193352018727,0.007277216941326921,0.005283224865467662,0.03411,0.014860000000000002,-0.027870000000000002,2.2646,0.5355,-8.7703,5.339158404676082,11.943377001756117,15.00999927520752,15.039999961853027,14.9399995803833,14.949999809265137,12.188257803661823,12.212618637824306,12.131417406067373,12.139537684121532,12.16795788291876,0.01880380072818778,11.0,37.375,0.0,0.0,0.0,0.0,0.0,snow covered,0.25834733247757,-8.3919563293457,100.0,454.298522949219
frame_00176.png,1769615222108991381,1769615222.1089914,42.29948827658424,-83.69754365997917,234.46006774902344,0.7297862638915036,0.6836219935600277,0.007061369231588295,0.004807912319198607,0.05679000000000001,0.019360000000000002,-0.026480000000000004,1.7298,0.8299000000000001,-9.9053,5.374706843557783,12.022896726628149,15.299999237060547,15.089999198913574,15.089999198913574,15.130000114440918,12.42374044648613,12.253218479310437,12.253218479310437,12.28569959152708,12.30396924915852,0.023378103374027605,11.0,37.67499923706055,0.0,0.0,0.0,0.0,0.0,snow covered,0.25834733247757,-8.3919563293457,100.0,454.298522949219
frame_00177.png,1769615222129663666,1769615222.1296637,42.29948924649805,-83.69754358384478,234.4618377685547,0.7295938610720761,0.6838337986229059,0.006870780222170999,0.004114137339157336,0.06468,0.03925000000000001,-0.028960000000000003,1.6276000000000002,0.1298,-9.226600000000001,5.407506638154515,12.09626789915336,15.59999942779541,15.489999771118164,15.149999618530273,15.289999961853027,12.667343367364598,12.578022631945839,12.301939373243066,12.415620942824306,12.490731578844452,0.03261036238447564,11.0,37.625,0.0,0.0,0.0,0.0,0.0,snow covered,0.25834733247757,-8.3919563293457,100.0,454.298522949219
frame_00178.png,1769615222150309703,1769615222.1503096,42.29949022635217,-83.69754350397702,234.4638214111328,0.7294102655797653,0.6840347332210928,0.006776803536884471,0.003350096689255,0.06197000000000001,0.040810000000000006,-0.02338,2.9874,0.2333,-8.8308,5.459448667697957,12.212459102720267,15.869999885559082,15.569999694824219,15.369999885559082,15.380000114440918,12.88658622847292,12.642983307594454,12.480581618472918,12.48870189652708,12.624713262766845,0.03375685081760069,11.100000381469727,37.400001525878906,0.0,0.0,0.0,0.0,0.0,snow covered,0.25834733247757,-8.3919563293457,100.0,454.298522949219
frame_00179.png,1769615222171086553,1769615222.1710865,42.2994912184724,-83.69754342673801,234.46539306640625,0.729075922104716,0.6843977444717972,0.006505986494756412,0.0023873225179962773,0.04846000000000001,0.029040000000000003,-0.028190000000000003,1.9506000000000001,-0.5179,-9.631300000000001,5.5230639305076945,12.354762628709883,16.10999870300293,15.670000076293945,15.40999984741211,15.489999771118164,13.08146748102642,12.724184539351388,12.513061956297227,12.578022631945839,12.724184152155217,0.029901142947649666,11.199999809265137,37.32500076293945,0.0,0.0,0.0,0.0,0.0,snow covered,0.25834733247757,-8.3919563293457,100.0,454.298522949219
frame_00180.png,1769615222191880951,1769615222.191881,42.29949221243674,-83.6975433463364,234.46670532226562,0.7288744743768016,0.6846140320406032,0.0065033285031538424,0.0018260485834234483,0.0417,0.03631,-0.03397,2.5013,0.1558,-9.450700000000001,5.56779286712881,12.454818576195121,16.239999771118164,16.09000015258789,15.559999465942383,15.5,13.18702954694584,13.065228473702776,12.634863029540291,12.586142910000001,12.868315990047227,0.033199794226021324,11.199999809265137,37.47500228881836,0.0,0.0,0.0,0.0,0.0,snow covered,0.25834733247757,-8.3919563293457,100.0,454.298522949219
frame_00181.png,1769615222212641201,1769615222.2126412,42.29949321712593,-83.69754327080042,234.46835327148438,0.7286207721262935,0.6848848126878273,0.006506438054618544,0.0014933316727343783,0.017720000000000003,0.01574,-0.03472,2.4829000000000003,-0.8772000000000001,-10.0889,5.620728788491567,12.573233056128327,16.119998931884766,16.029998779296875,15.6899995803833,15.75999927520752,13.089587759080583,13.016506805377809,12.74042432106737,12.797264718661824,12.910945901046896,0.026859666357171665,11.199999809265137,37.42499923706055,0.0,0.0,0.0,0.0,0.0,snow covered,0.25834733247757,-8.3919563293457,100.0,454.298522949219
frame_00182.png,1769615222233456822,1769615222.2334569,42.299494232523585,-83.69754319626838,234.46987915039062,0.7284469386531134,0.6850702126406619,0.006515860201739776,0.0011852785398370862,0.027930000000000007,0.025220000000000003,-0.02619,1.4857,0.027,-10.2634,5.651426999959782,12.641903113290036,16.119998931884766,16.279998779296875,15.75999927520752,15.920000076293945,13.089587759080583,13.219509110377807,12.797264718661824,12.927186844351388,13.008387108117901,0.02898962217504989,11.199999809265137,37.45000076293945,0.0,0.0,0.0,0.0,0.0,snow covered,0.25834733247757,-8.3919563293457,100.0,454.298522949219
frame_00183.png,1769615222253824216,1769615222.2538242,42.29949525227556,-83.69754312425471,234.47119140625,0.7281966007100276,0.685335359850275,0.0066799805929218265,0.0007301455556881506,0.017470000000000003,0.04077000000000001,-0.03524000000000001,3.2652,-0.6198,-9.432,5.702102677706953,12.755261563869793,16.020000457763672,16.239999771118164,15.869999885559082,16.010000228881836,13.008388076108323,13.18702954694584,12.88658622847292,13.00026779805416,13.020567912395311,0.02079975758999863,11.199999809265137,37.22500228881836,0.0,0.0,0.0,0.0,0.0,snow covered,0.25834733247757,-8.3919563293457,100.0,454.298522949219
frame_00184.png,1769615222274670650,1769615222.2746706,42.29949627808434,-83.69754304877837,234.47267150878906,0.7280333355649607,0.6855097949097428,0.006608655506039319,0.0003302443976830405,0.04299000000000001,0.028150000000000005,-0.022520000000000002,1.5644,0.44720000000000004,-9.7162,5.739617655117114,12.839180317437679,16.239999771118164,16.25,16.079999923706055,15.9399995803833,13.18702954694584,13.195149825,13.057108195648613,12.943426626067373,13.095678548415455,0.019977773084891577,11.199999809265137,37.375,0.0,0.0,0.0,0.0,0.0,snow covered,0.25834733247757,-8.3919563293457,100.0,454.298522949219
frame_00185.png,1769615222295445806,1769615222.2954457,42.29949731371315,-83.69754297927449,234.47396850585938,0.7278137054126974,0.6857414906516849,0.0067604891098040215,-0.000337637735964826,0.03264,0.07458000000000001,-0.029660000000000006,1.5803,-0.9525,-9.7027,5.762190394621926,12.88967418134557,16.369998931884766,16.420000076293945,16.15999984741211,16.18000030517578,13.292590064080583,13.333191454351388,13.122068871297225,13.138309427405549,13.221539954283685,0.02574663783343747,11.199999809265137,37.5,0.0,0.0,0.0,0.0,0.0,snow covered,0.25834733247757,-8.3919563293457,100.0,454.298522949219
frame_00186.png,1769615222316260222,1769615222.31626,42.29949835314739,-83.69754290615701,234.4750213623047,0.727658960869572,0.6859046673389823,0.006802512158740464,-0.0009745856273546587,0.05261000000000001,0.040560000000000006,-0.019160000000000003,2.5762,0.2097,-10.0951,5.816803123846942,13.01183957985818,16.510000228881836,16.60999870300293,16.369998931884766,16.34000015258789,13.406272408054162,13.487472091026422,13.292590064080583,13.268230778702774,13.363641335465985,0.027037049868980947,11.199999809265137,37.60000228881836,0.0,0.0,0.0,0.0,0.0,snow covered,0.25834733247757,-8.3919563293457,100.0,454.298522949219
frame_00187.png,1769615222337090672,1769615222.3370905,42.29949940065855,-83.69754284010467,234.47677612304688,0.7275081050758541,0.6860626860972351,0.006886086418701618,-0.001590474086817405,0.02908,0.05326000000000001,-0.018910000000000003,1.5582,-1.5197,-10.084800000000001,5.8519487442581175,13.090458223980754,16.6299991607666,16.56999969482422,16.5,16.399999618530273,13.503712647134742,13.454992527594452,13.39815213,13.316950898243064,13.418452050743065,0.025055946946261266,11.199999809265137,37.625,0.0,0.0,0.0,0.0,0.0,snow covered,0.25834733247757,-8.3919563293457,100.0,454.298522949219
frame_00188.png,1769615222357469904,1769615222.35747,42.29950045802472,-83.6975427786209,234.47848510742188,0.7273729384108492,0.6862019277854142,0.007135365515167417,-0.002146935051009062,0.029420000000000005,0.05109000000000001,-0.019390000000000004,2.6517,-0.0275,-10.732800000000001,5.895830022593226,13.188618010739692,16.65999984741211,16.719999313354492,16.649999618530273,16.579999923706055,13.528073481297227,13.576793600837517,13.519953203243064,13.463112805648613,13.521983272756605,0.025276739514742883,11.100000381469727,37.650001525878906,0.0,0.0,0.0,0.0,0.0,snow covered,0.25834733247757,-8.3919563293457,100.0,454.298522949219
frame_00189.png,1769615222378263635,1769615222.3782635,42.29950151737761,-83.69754272126367,234.48031616210938,0.7272593859049212,0.6863197567817204,0.007257300817919192,-0.002511702433626015,0.011530000000000002,0.03287,-0.015560000000000001,2.4478,-1.4198000000000002,-10.9543,5.9460806462294995,13.301025640776617,16.959999084472656,17.020000457763672,16.729999542236328,16.69999885559082,13.771675627783356,13.820397296108322,13.58491387889168,13.560553044729195,13.68438496187814,0.028821786488875546,11.0,37.67499923706055,0.0,0.0,0.0,0.0,0.0,snow covered,0.25834733247757,-8.3919563293457,100.0,454.298522949219
frame_00190.png,1769615222398815391,1769615222.3988154,42.29950259006455,-83.69754266105393,234.4830780029297,0.7271501110402263,0.6864320876265123,0.00751289783741254,-0.002694709071367434,-0.0027,0.03287,-0.014230000000000001,2.8458,-0.4012,-11.0067,5.992654345999273,13.405208212739614,17.139999389648438,16.959999084472656,16.84000015258789,16.799999237060547,13.917837535188903,13.771675627783356,13.674235388702774,13.641754276486129,13.751375707040292,0.025823358265461213,10.90000057220459,37.47500228881836,0.0,0.0,0.0,0.0,0.0,snow covered,0.25834733247757,-8.3919563293457,100.0,454.298522949219
frame_00191.png,1769615222419454378,1769615222.4194546,42.29950367436012,-83.69754260847368,234.48614501953125,0.7270238652299699,0.6865649233991683,0.007601132206907273,-0.002669856389704278,-0.011760000000000001,0.00055,-0.018070000000000003,2.4743,-0.6014,-11.0145,6.043151960566532,13.518168346669698,17.299999237060547,17.0,16.8799991607666,16.920000076293945,14.04775888648613,13.80415674,13.706714952134744,13.739196064351386,13.824456660743067,0.022657530681575284,10.699999809265137,37.54999923706055,0.0,0.0,0.0,0.0,0.0,snow covered,0.25834733247757,-8.3919563293457,100.0,454.298522949219
frame_00192.png,1769615222440107950,1769615222.440108,42.29950475841567,-83.6975425563813,234.48922729492188,0.7268982029389951,0.6866975854468576,0.00769626611117054,-0.0024892154308200675,-0.021400000000000002,-0.003,-0.01744,2.4901,-0.2619,-10.8842,6.086212135780047,13.61449137501182,17.85999870300293,17.03999900817871,16.93000030517578,16.989999771118164,14.50248361602642,13.83663630343197,13.747316342405549,13.796036461945839,13.970618180952444,0.02615792218240801,10.40000057220459,37.25,0.0,0.0,0.0,0.0,0.0,snow covered,0.25834733247757,-8.3919563293457,100.0,454.298522949219
frame_00193.png,1769615222460759499,1769615222.4607596,42.29950585708738,-83.69754250424137,234.49334716796875,0.7266679605718966,0.6869434656018863,0.0076833158488181195,-0.001821209136174819,-0.04222,-0.04438000000000001,-0.022660000000000003,2.2558000000000002,-0.998,-10.8949,6.158290020694596,13.77572527889257,17.639999389648438,17.119998931884766,17.029998779296875,17.10999870300293,14.323842145188904,13.901596979080582,13.828516025377809,13.89347670102642,13.986857962668429,0.015326429607257034,10.0,37.42499923706055,0.0,0.0,0.0,0.0,0.0,snow covered,0.25834733247757,-8.3919563293457,100.0,454.298522949219
frame_00194.png,1769615222481682719,1769615222.4816828,42.29950696580694,-83.69754245897451,234.49789428710938,0.7265540946638341,0.6870642394089732,0.007779892038622106,-0.0011626402938498992,-0.052480000000000006,-0.03521,-0.015880000000000002,1.8671,1.2142000000000002,-10.1683,6.194247899311389,13.856160895885619,17.579999923706055,17.209999084472656,17.10999870300293,17.28999900817871,14.275122025648614,13.974677932783356,13.89347670102642,14.03963860843197,14.045728816972591,0.01368112874203573,9.699999809265137,37.45000076293945,0.0,0.0,0.0,0.0,0.0,snow covered,0.25834733247757,-8.3919563293457,100.0,454.298522949219
frame_00195.png,1769615222502181512,1769615222.5021815,42.299508075785276,-83.69754240643019,234.50213623046875,0.7263583396104795,0.6872735425162908,0.007623702221427277,-0.0007206940091416188,-0.014220000000000002,-0.04462000000000001,-0.03334,2.1538,-0.0374,-8.988900000000001,6.238250537110329,13.954592156483582,17.709999084472656,17.229999542236328,17.369998931884766,17.329999923706055,14.380682542783356,13.990918488891678,14.104599284080582,14.072119720648613,14.137080009101059,0.013077261633382072,9.100000381469727,37.25,0.0,0.0,0.0,0.0,0.0,snow covered,0.25834733247757,-8.3919563293457,100.0,454.298522949219
frame_00196.png,1769615222522799791,1769615222.5228,42.29950919622516,-83.6975423573253,234.5070037841797,0.7261605262006968,0.6874828758742291,0.007625566336689163,-0.00019054047064724319,-0.04955000000000001,-0.027620000000000002,-0.024710000000000003,1.6527,-1.1127,-9.547600000000001,6.269499713543072,14.024494689213041,17.799999237060547,17.44999885559082,17.549999237060547,17.65999984741211,14.45376349648613,14.169559959729195,14.25076119148613,14.340082701297225,14.30354183724967,0.019897126721525164,8.5,37.17499923706055,0.0,0.0,0.0,0.0,0.0,snow covered,0.25834733247757,-8.3919563293457,100.0,454.298522949219
frame_00197.png,1769615222543544317,1769615222.5435443,42.29951032493914,-83.6975423109137,234.5113067626953,0.726013111670243,0.6876371047394896,0.00775188547460438,0.00028660071869189097,-0.03463,-0.016690000000000003,-0.023940000000000003,1.9191,1.1304,-8.4567,6.304873814873647,14.103624431443457,17.600000381469727,17.559999465942383,17.809999465942383,17.75,14.291362581756935,14.258881469540292,14.461883774540292,14.413163655,14.356322870209379,0.017917269422074302,7.5,37.20000076293945,0.0,0.0,0.0,0.0,0.0,snow covered,0.25834733247757,-8.3919563293457,100.0,454.298522949219
frame_00198.png,1769615222564168409,1769615222.5641685,42.299511455056354,-83.69754225927409,234.51527404785156,0.7257898655234292,0.6878716587060002,0.00783794558422138,0.0004678264179990489,-0.016300000000000002,0.00237,-0.03139000000000001,1.4983,0.1306,-8.1105,6.334719498328455,14.170387434590854,17.829999923706055,17.600000381469727,17.75,17.729999542236328,14.478124330648614,14.291362581756935,14.413163655,14.396923098891678,14.394893416574305,0.01584331995294763,6.700000286102295,37.5,0.0,0.0,0.0,0.0,0.0,snow covered,0.25834733247757,-8.3919563293457,100.0,454.298522949219
frame_00199.png,1769615222584853235,1769615222.5848532,42.299512594597346,-83.69754220811494,234.51925659179688,0.7255678660475561,0.6881037969715225,0.0080029459947345,0.0006238653500286502,-0.02278,0.00103,-0.027020000000000006,2.0435000000000003,0.1726,-9.9013,6.372394236324073,14.254663563002772,18.010000228881836,17.81999969482422,17.779998779296875,17.940000534057617,14.624286238054161,14.470004052594453,14.437522940377809,14.56744584045971,14.524814767871534,0.018951776986861017,6.0,37.47500228881836,0.0,0.0,0.0,0.0,0.0,snow covered,0.25834733247757,-8.3919563293457,100.0,454.298522949219
frame_00200.png,1769615222605814070,1769615222.605814,42.29951488552938,-83.69754210947117,234.52659606933594,0.7253899429988782,0.6882910688754581,0.008025690915385533,0.0006506824834169422,0.00459,0.0029900000000000005,-0.028210000000000002,1.8208000000000002,0.9488000000000001,-10.957,6.4103393109135,14.339544418154846,17.940000534057617,18.029998779296875,17.829999923706055,18.020000457763672,14.56744584045971,14.640525245377807,14.478124330648614,14.632406516108324,14.579625483148615,0.01674258665357663,5.300000190734863,37.42499923706055,0.0,0.0,0.0,0.0,0.0,snow covered,0.25834733247757,-8.3919563293457,100.0,454.298522949219
frame_00201.png,1769615222626863313,1769615222.6268632,42.299516045300365,-83.69754205295996,234.53077697753906,0.7251973252486211,0.6884954848762967,0.007912767759055101,0.00044143356223307165,0.030300000000000004,0.011540000000000002,-0.026930000000000003,2.0158,-0.0465,-9.868400000000001,6.444852335937975,14.416747984353096,18.31999969482422,18.299999237060547,18.15999984741211,18.149999618530273,14.876008662594453,14.859768106486131,14.746087311297225,14.737967033243065,14.80495777840522,0.02692769509971725,4.800000190734863,37.20000076293945,0.0,0.0,0.0,0.0,0.0,snow covered,0.25834733247757,-8.3919563293457,100.0,454.298522949219
frame_00202.png,1769615222647237483,1769615222.6472373,42.29951721242114,-83.69754199374663,234.53485107421875,0.7250252779704273,0.6886792519618405,0.007691501390461734,0.0002739115636207643,0.027760000000000003,-0.012210000000000002,-0.018640000000000004,2.6751,1.2735,-9.8976,6.494953194081285,14.52882059796819,18.619998931884766,18.09000015258789,18.299999237060547,18.229999542236328,15.119610809080582,14.689246913702775,14.859768106486131,14.802927708891678,14.867888384540292,0.02333759882887667,4.300000190734863,37.17499923706055,0.0,0.0,0.0,0.0,0.0,snow covered,0.25834733247757,-8.3919563293457,100.0,454.298522949219
frame_00203.png,1769615222667863778,1769615222.6678638,42.29951837831443,-83.69754194376642,234.53892517089844,0.724834938909396,0.6888848900066397,0.007205514692284681,-1.4655081306815817e-05,0.05978000000000001,-0.011300000000000003,-0.034190000000000005,1.4187,-0.3819,-9.374,6.526159481981708,14.598627191624162,19.19999885559082,18.459999084472656,18.639999389648438,18.34000015258789,15.590576094729194,14.989689457783356,15.135851365188906,14.892249218702775,15.152091534101057,0.03791208140409533,3.799999952316284,37.150001525878906,0.0,0.0,0.0,0.0,0.0,snow covered,0.25834733247757,-8.3919563293457,100.0,454.298522949219
frame_00204.png,1769615222688693142,1769615222.6886933,42.29951955883421,-83.69754188180913,234.54283142089844,0.7246289219161073,0.6891028492790051,0.0070831839794117885,-0.00013093116921758107,0.0017500000000000003,0.004710000000000001,-0.022770000000000002,1.8899000000000001,-0.7624000000000001,-9.0748,6.55644817707372,14.666381185223287,19.779998779296875,18.279998779296875,18.56999969482422,18.43000030517578,16.061541380377808,14.843527550377807,15.079010967594453,14.965330172405547,15.237352517688905,0.038930621347881264,3.4000000953674316,37.17499923706055,0.0,0.0,0.0,0.0,0.0,snow covered,0.25834733247757,-8.3919563293457,100.0,454.298522949219
frame_00205.png,1769615222709417332,1769615222.709417,42.29952074447372,-83.69754183059996,234.5465545654297,0.7244666953340245,0.689274518431344,0.0069746008832100945,2.3142085382870136e-05,-0.0017300000000000002,-0.029890000000000003,-0.024980000000000006,2.0804,0.5719000000000001,-9.3587,6.603433291029267,14.77148406603501,20.639999389648438,18.53999900817871,18.719999313354492,18.510000228881836,16.759869805188906,15.05465013343197,15.200812040837517,15.030290848054163,15.51140570687814,0.0500912188332165,2.799999952316284,37.375,0.0,0.0,0.0,0.0,0.0,snow covered,0.25834733247757,-8.3919563293457,100.0,454.298522949219
frame_00206.png,1769615222729954837,1769615222.7299547,42.299521931966815,-83.69754178653189,234.55035400390625,0.7242567158420545,0.6894934079890873,0.007133567467667244,0.00040263191556712545,-0.06276000000000001,-0.0033400000000000005,-0.026880000000000005,1.264,-2.7937000000000003,-10.472800000000001,6.62411647366294,14.817751104595578,21.209999084472656,18.85999870300293,18.420000076293945,18.600000381469727,17.222714812783355,15.314492836026421,14.957209894351388,15.103371801756936,15.649447336229525,0.05612837101684104,2.299999952316284,37.0,0.0,0.0,0.0,0.0,0.0,snow covered,0.25834733247757,-8.3919563293457,100.0,454.298522949219
frame_00207.png,1769615222750542682,1769615222.7505426,42.2995231324382,-83.69754173611614,234.55459594726562,0.7240080798782611,0.6897436140469696,0.007915739709269278,0.001840711078267715,-0.09492000000000002,-0.058960000000000005,-0.022750000000000003,2.6348000000000003,1.1023,-11.1645,6.701990280894359,14.991950138943828,21.799999237060547,18.690000534057617,18.56999969482422,18.68000030517578,17.70180037648613,15.17645275545971,15.079010967594453,15.16833247740555,15.781399144236461,0.052658193095368004,1.600000023841858,37.42499923706055,0.0,0.0,0.0,0.0,0.0,snow covered,0.25834733247757,-8.3919563293457,100.0,454.298522949219
frame_00208.png,1769615222771305166,1769615222.7713053,42.29952433918886,-83.69754169781422,234.55967712402344,0.7238076808474876,0.6899486723744336,0.008105544729112556,0.0027515049667446376,-0.08451,-0.043820000000000005,-0.028390000000000006,1.3313000000000001,-1.8723,-11.9082,6.726042139789509,15.045752704180746,22.31999969482422,19.139999389648438,18.56999969482422,18.639999389648438,18.12404554259445,15.541855975188904,15.079010967594453,15.135851365188906,15.970190962641679,0.06144180863773338,1.0,37.22500228881836,0.0,0.0,0.0,0.0,0.0,snow covered,0.25834733247757,-8.3919563293457,100.0,454.298522949219
