image_filename,timestamp_ns,timestamp_sec,latitude,longitude,altitude,orientation_x,orientation_y,orientation_z,orientation_w,angular_velocity_x,angular_velocity_y,angular_velocity_z,linear_acceleration_x,linear_acceleration_y,linear_acceleration_z,vehicle_speed_mps,vehicle_speed_mph,wheel_speed_fl_rads,wheel_speed_fr_rads,wheel_speed_rl_rads,wheel_speed_rr_rads,wheel_speed_fl_mph,wheel_speed_fr_mph,wheel_speed_rl_mph,wheel_speed_rr_mph,avg_wheel_speed_mph,wheel_slip,steering_angle_deg,throttle_pedal,brake_pedal,brake_torque_actual,abs_active,esc_active,trac_active,marwis_road_condition,marwis_friction,marwis_surface_temp_c,marwis_ice_percent,marwis_water_film_height
frame_00000.png,1769615728392726072,1769615728.392726,42.30098382657275,-83.69771225038114,238.3700408935547,-0.0113279241773373,-0.9994058687536719,-0.008868955034480477,-0.03131979040713993,0.0008700000000000001,-0.00013000000000000002,0.00048,-0.6171,0.1918,-9.774600000000001,0.0006721021241251311,0.001503452125540471,0.0,0.0,0.0,0.0,0.0,0.0,0.0,0.0,0.0,0.0,-0.4000000059604645,25.274999618530273,0.0,0.0,0.0,0.0,0.0,snow covered,0.240811139345169,-9.06659126281738,100.0,469.849853515625
frame_00001.png,1769615728413603159,1769615728.413603,42.30098382633084,-83.69771225307146,238.37062072753906,-0.011323744512956369,-0.9994062083527826,-0.008861184024286541,-0.03131266411226402,0.00136,0.0011800000000000003,-0.0008000000000000001,-0.6114,0.1983,-9.7875,0.0005708075583916444,0.0012768622596686051,0.0,0.0,0.0,0.0,0.0,0.0,0.0,0.0,0.0,0.0,-0.4000000059604645,25.274999618530273,0.0,0.0,0.0,0.0,0.0,snow covered,0.240811139345169,-9.06659126281738,100.0,469.849853515625
frame_00002.png,1769615728432312521,1769615728.4323125,42.300983826161755,-83.69771225570736,238.37120056152344,-0.011323744512956369,-0.9994062083527826,-0.008861184024286541,-0.03131266411226402,0.00136,0.0011800000000000003,-0.0008000000000000001,-0.6114,0.1983,-9.7875,0.0006641391528845269,0.0014856394366535137,0.0,0.0,0.0,0.0,0.0,0.0,0.0,0.0,0.0,0.0,-0.4000000059604645,25.274999618530273,0.0,0.0,0.0,0.0,0.0,snow covered,0.240811139345169,-9.06659126281738,100.0,469.849853515625
frame_00003.png,1769615728454638092,1769615728.454638,42.30098382783096,-83.69771225598612,238.37142944335938,-0.011323744512956369,-0.9994062083527826,-0.008861184024286541,-0.03131266411226402,0.00136,0.0011800000000000003,-0.0008000000000000001,-0.6114,0.1983,-9.7875,0.0007601687923303947,0.0017004519783155533,0.0,0.0,0.0,0.0,0.0,0.0,0.0,0.0,0.0,0.0,-0.4000000059604645,25.274999618530273,0.0,0.0,0.0,0.0,0.0,snow covered,0.240811139345169,-9.06659126281738,100.0,469.849853515625
frame_00004.png,1769615728475380686,1769615728.4753807,42.30098382775196,-83.6977122585303,238.3719940185547,-0.011326060235043511,-0.9994059579803498,-0.008865031952839419,-0.031318727965970954,-0.0005700000000000001,-0.00101,0.00020000000000000004,-0.6134000000000001,0.192,-9.7833,0.0006503443085642994,0.001454781197599824,0.0,0.0,0.0,0.0,0.0,0.0,0.0,0.0,0.0,0.0,-0.4000000059604645,25.274999618530273,0.0,0.0,0.0,0.0,0.0,snow covered,0.240811139345169,-9.06659126281738,100.0,469.849853515625
frame_00005.png,1769615728495751863,1769615728.4957519,42.30098382769206,-83.69771226100669,238.37254333496094,-0.011326060235043511,-0.9994059579803498,-0.008865031952839419,-0.031318727965970954,-0.0005700000000000001,-0.00101,0.00020000000000000004,-0.6134000000000001,0.192,-9.7833,0.0007354300181453958,0.0016451128247901617,0.0,0.0,0.0,0.0,0.0,0.0,0.0,0.0,0.0,0.0,-0.4000000059604645,25.274999618530273,0.0,0.0,0.0,0.0,0.0,snow covered,0.240811139345169,-9.06659126281738,100.0,469.849853515625
frame_00006.png,1769615728516119298,1769615728.5161192,42.30098382940878,-83.6977122613336,238.372802734375,-0.011322888178224244,-0.9994065490006225,-0.008842301761592225,-0.03130743869316824,-3e-05,-0.0006900000000000001,0.00012,-0.6103000000000001,0.18810000000000002,-9.7727,0.0007354300181453958,0.0016451128247901617,0.0,0.0,0.0,0.0,0.0,0.0,0.0,0.0,0.0,0.0,-0.4000000059604645,25.274999618530273,0.0,0.0,0.0,0.0,0.0,snow covered,0.240811139345169,-9.06659126281738,100.0,469.849853515625
frame_00007.png,1769615728535800735,1769615728.535801,42.30098382944665,-83.69771226381108,238.3733367919922,-0.011331248331841903,-0.999406386249889,-0.008846021367542617,-0.031308558576601454,-0.00116,0.00058,0.00103,-0.6042000000000001,0.1786,-9.783000000000001,0.0007415859012105604,0.0016588831658539511,0.0,0.0,0.0,0.0,0.0,0.0,0.0,0.0,0.0,0.0,-0.4000000059604645,25.274999618530273,0.0,0.0,0.0,0.0,0.0,snow covered,0.240811139345169,-9.06659126281738,100.0,469.849853515625
frame_00008.png,1769615728556786363,1769615728.5567865,42.30098382951516,-83.69771226620952,238.37387084960938,-0.011327867380412804,-0.9994063879611608,-0.008841603861889617,-0.03131097513950881,-0.0004500000000000001,-0.00015000000000000001,0.0011,-0.6093000000000001,0.1809,-9.787,0.0007415859012105604,0.0016588831658539511,0.0,0.0,0.0,0.0,0.0,0.0,0.0,0.0,0.0,0.0,-0.4000000059604645,25.274999618530273,0.0,0.0,0.0,0.0,0.0,snow covered,0.240811139345169,-9.06659126281738,100.0,469.849853515625
frame_00009.png,1769615728577373134,1769615728.5773733,42.30098382956215,-83.69771226713449,238.3740997314453,-0.011324950059406813,-0.9994063595842948,-0.008838164173635267,-0.03131390717651301,5.000000000000001e-05,-0.0009700000000000002,-0.0007400000000000001,-0.6076,0.17470000000000002,-9.786800000000001,0.0011296970888415446,0.002527064605913205,0.0,0.0,0.0,0.0,0.0,0.0,0.0,0.0,0.0,0.0,-0.4000000059604645,25.274999618530273,0.0,0.0,0.0,0.0,0.0,snow covered,0.240811139345169,-9.06659126281738,100.0,469.849853515625
frame_00010.png,1769615728598111494,1769615728.5981114,42.30098382803146,-83.69771226762862,238.37408447265625,-0.011328074852569148,-0.9994063187148379,-0.008833555049697534,-0.03131538181428087,0.00046000000000000007,-0.00011000000000000002,0.00039000000000000005,-0.6159,0.18810000000000002,-9.7794,0.0010338556899753487,0.002312673147133457,0.0,0.0,0.0,0.0,0.0,0.0,0.0,0.0,0.0,0.0,-0.4000000059604645,25.274999618530273,0.0,0.0,0.0,0.0,0.0,snow covered,0.240811139345169,-9.06659126281738,100.0,469.849853515625
frame_00011.png,1769615728618725442,1769615728.6187253,42.30098382965655,-83.69771226804403,238.37432861328125,-0.01132949352702961,-0.999406179608535,-0.008834965522119405,-0.03131890995735187,-0.0008500000000000001,-0.0008000000000000001,-0.00018,-0.6004,0.19140000000000001,-9.797500000000001,0.0011335735498595066,0.0025357360166227247,0.0,0.0,0.0,0.0,0.0,0.0,0.0,0.0,0.0,0.0,-0.4000000059604645,25.274999618530273,0.0,0.0,0.0,0.0,0.0,snow covered,0.240811139345169,-9.06659126281738,100.0,469.849853515625
frame_00012.png,1769615728639266698,1769615728.6392667,42.30098382818073,-83.69771226850465,238.37432861328125,-0.011325309774239567,-0.9994059451169319,-0.008838493518266405,-0.031326909451407904,-0.00041000000000000005,-0.0005300000000000001,-0.00062,-0.6336,0.1889,-9.795300000000001,0.001024962499844039,0.0022927796144011246,0.0,0.0,0.0,0.0,0.0,0.0,0.0,0.0,0.0,0.0,-0.4000000059604645,25.274999618530273,0.0,0.0,0.0,0.0,0.0,snow covered,0.240811139345169,-9.06659126281738,100.0,469.849853515625
frame_00013.png,1769615728660401646,1769615728.6604016,42.30098382675581,-83.69771226905004,238.37432861328125,-0.011324538694820141,-0.9994062339423679,-0.00883361705771629,-0.031319348495136685,0.0008300000000000001,0.0008300000000000001,-0.0006100000000000001,-0.6158,0.1801,-9.7789,0.0008193369572691677,0.001832807613193692,0.0,0.0,0.0,0.0,0.0,0.0,0.0,0.0,0.0,0.0,-0.4000000059604645,25.274999618530273,0.0,0.0,0.0,0.0,0.0,snow covered,0.240811139345169,-9.06659126281738,100.0,469.849853515625
frame_00014.png,1769615728680883221,1769615728.6808832,42.30098382833565,-83.6977122694272,238.3745880126953,-0.011328508965818995,-0.9994060530674337,-0.008832938513834133,-0.031323875462592174,-0.0004000000000000001,0.00025000000000000006,0.0008800000000000001,-0.6071000000000001,0.1753,-9.784600000000001,0.0011179107070200893,0.0025006991769615187,0.0,0.0,0.0,0.0,0.0,0.0,0.0,0.0,0.0,0.0,-0.4000000059604645,25.274999618530273,0.0,0.0,0.0,0.0,0.0,snow covered,0.240811139345169,-9.06659126281738,100.0,469.849853515625
frame_00015.png,1769615728701399967,1769615728.7014,42.30098382698233,-83.69771226993767,238.37460327148438,-0.01132179048491122,-0.9994065230620357,-0.008827791900298216,-0.031312757965932116,0.0005200000000000001,0.0015400000000000001,-0.0007300000000000002,-0.6143000000000001,0.1869,-9.7735,0.0012240839151063687,0.0027382022730580405,0.0,0.0,0.0,0.0,0.0,0.0,0.0,0.0,0.0,0.0,-0.4000000059604645,25.274999618530273,0.0,0.0,0.0,0.0,0.0,snow covered,0.240811139345169,-9.06659126281738,100.0,469.849853515625
frame_00016.png,1769615728722120137,1769615728.7221203,42.30098382569281,-83.69771227026776,238.37461853027344,-0.011332713100170144,-0.9994063074686267,-0.008828916802095755,-0.031315370568069635,0.00068,0.0009800000000000002,0.0004700000000000001,-0.6706000000000001,0.21000000000000002,-9.7841,0.00013753178166111353,0.0003076503436690113,0.0,0.0,0.0,0.0,0.0,0.0,0.0,0.0,0.0,0.0,-0.4000000059604645,25.274999618530273,0.0,0.0,0.0,0.0,0.0,snow covered,0.240811139345169,-9.06659126281738,100.0,469.849853515625
frame_00017.png,1769615728784099691,1769615728.7840996,42.3009838248226,-83.69771227132871,238.3749237060547,-0.011317381472482957,-0.999406253455025,-0.008838827378334585,-0.03131984294616651,-0.0011800000000000003,0.0002800000000000001,-0.0012500000000000002,-0.6295000000000001,0.17750000000000002,-9.6089,-1.3904088229169977e-05,3.110261112335949e-05,0.0,0.0,0.0,0.0,0.0,0.0,0.0,0.0,0.0,0.0,-0.4000000059604645,25.274999618530273,0.0,0.0,0.0,0.0,0.0,snow covered,0.240811139345169,-9.06659126281738,100.0,469.849853515625
frame_00018.png,1769615728804968954,1769615728.804969,42.300983826336804,-83.69771227152052,238.37518310546875,-0.011316195527725281,-0.9994066805975693,-0.008850048374526078,-0.03130346848984353,-0.0015,0.006310000000000001,0.00062,-0.6092000000000001,0.164,-9.7232,5.3444289999863355e-05,0.00011955167007229434,0.0,0.0,0.0,0.0,0.0,0.0,0.0,0.0,0.0,0.0,-0.4000000059604645,25.274999618530273,0.0,0.0,0.0,0.0,0.0,snow covered,0.240811139345169,-9.06659126281738,100.0,469.849853515625
frame_00019.png,1769615728825770477,1769615728.8257704,42.30098382389444,-83.69771227000719,238.37469482421875,-0.011309302783194697,-0.9994070017803076,-0.008849357223769668,-0.03129589972792378,-0.00019000000000000004,0.0061,-0.0012500000000000002,-0.5683,0.1685,-9.7257,0.0003957761372613733,0.0008853274724854565,0.0,0.0,0.0,0.0,0.0,0.0,0.0,0.0,0.0,0.0,-0.4000000059604645,25.274999618530273,0.0,0.0,0.0,0.0,0.0,snow covered,0.240811139345169,-9.06659126281738,100.0,469.849853515625
frame_00020.png,1769615728846317634,1769615728.8463175,42.30098382157288,-83.69771226860485,238.37423706054688,-0.011311494725023075,-0.9994066739629878,-0.008856685383612473,-0.0313035021896859,0.00117,0.004720000000000001,-0.00062,-0.6068,0.1817,-9.802200000000001,0.0010855453887426592,0.0024282999018940044,0.0,0.0,0.0,0.0,0.0,0.0,0.0,0.0,0.0,0.0,-0.4000000059604645,25.274999618530273,0.0,0.0,0.0,0.0,0.0,snow covered,0.240811139345169,-9.06659126281738,100.0,469.849853515625
frame_00021.png,1769615728867062235,1769615728.8670623,42.30098382307371,-83.697712268998,238.3744659423828,-0.011318473044279465,-0.999406305951355,-0.00885384880249993,-0.031313529887176825,-0.0006700000000000001,0.0024900000000000005,0.00042000000000000007,-0.6048,0.2024,-9.810400000000001,0.0011921638945416263,0.0026667991022559455,0.0,0.0,0.0,0.0,0.0,0.0,0.0,0.0,0.0,0.0,-0.4000000059604645,25.274999618530273,0.0,0.0,0.0,0.0,0.0,snow covered,0.240811139345169,-9.06659126281738,100.0,469.849853515625
frame_00022.png,1769615728887826576,1769615728.8878267,42.300983820892114,-83.69771226785042,238.3740234375,-0.011319935130171987,-0.9994061223371439,-0.008853236703586538,-0.03131903420529977,0.0002800000000000001,-0.0012600000000000003,0.00029,-0.6246,0.2053,-9.7936,0.0016223776583208444,0.00362916147900423,0.0,0.0,0.0,0.0,0.0,0.0,0.0,0.0,0.0,0.0,-0.4000000059604645,25.274999618530273,0.0,0.0,0.0,0.0,0.0,snow covered,0.240811139345169,-9.06659126281738,100.0,469.849853515625
frame_00023.png,1769615728908486975,1769615728.9084868,42.300983818831156,-83.69771226663472,238.3736114501953,-0.011320741268214418,-0.9994057155495908,-0.008855561139477297,-0.03133106415131308,0.0015600000000000002,-0.0029800000000000004,-0.00031,-0.5994,0.1751,-9.824200000000001,0.001603407271493964,0.0035867258618957083,0.0,0.0,0.0,0.0,0.0,0.0,0.0,0.0,0.0,0.0,-0.4000000059604645,25.274999618530273,0.0,0.0,0.0,0.0,0.0,snow covered,0.240811139345169,-9.06659126281738,100.0,469.849853515625
frame_00024.png,1769615728929105445,1769615728.9291055,42.300983820360386,-83.69771226714028,238.3738250732422,-0.011317804416565047,-0.9994058094639885,-0.008854173864538167,-0.03132952150919124,-0.00068,-0.0012100000000000001,0.00020000000000000004,-0.5965,0.1958,-9.7993,0.001705486409736159,0.003815070769395204,0.0,0.0,0.0,0.0,0.0,0.0,0.0,0.0,0.0,0.0,-0.4000000059604645,25.274999618530273,0.0,0.0,0.0,0.0,0.0,snow covered,0.240811139345169,-9.06659126281738,100.0,469.849853515625
frame_00025.png,1769615728949657224,1769615728.9496574,42.300983818335254,-83.69771226615386,238.37342834472656,-0.01131813274406368,-0.9994058973657309,-0.008861213512104494,-0.03132460816799953,0.0,-0.00021000000000000004,0.00039000000000000005,-0.5941000000000001,0.1685,-9.7904,0.0018709266382019303,0.004185150634059426,0.0,0.0,0.0,0.0,0.0,0.0,0.0,0.0,0.0,0.0,-0.4000000059604645,25.274999618530273,0.0,0.0,0.0,0.0,0.0,snow covered,0.240811139345169,-9.06659126281738,100.0,469.849853515625
frame_00026.png,1769615728970342272,1769615728.9703424,42.30098381638241,-83.69771226524868,238.37306213378906,-0.011324412862734445,-0.999406003952648,-0.008870605416371812,-0.03131627845483994,-0.00256,-0.00128,0.0009200000000000001,-0.5860000000000001,0.1602,-9.8134,0.0024833288650635,0.005555057671415146,0.0,0.0,0.0,0.0,0.0,0.0,0.0,0.0,0.0,0.0,-0.4000000059604645,25.274999618530273,0.0,0.0,0.0,0.0,0.0,snow covered,0.240811139345169,-9.06659126281738,100.0,469.849853515625
frame_00027.png,1769615728990951338,1769615728.9909515,42.300983817750314,-83.69771226589006,238.373291015625,-0.011333358269742744,-0.9994057886954086,-0.008870781587094229,-0.03131986185269809,-0.0005600000000000002,-0.0025000000000000005,0.0010700000000000002,-0.5773,0.1705,-9.830300000000001,0.0029456413038136376,0.006589222858152879,0.0,0.0,0.0,0.0,0.0,0.0,0.0,0.0,0.0,0.0,-0.4000000059604645,25.274999618530273,0.0,0.0,0.0,0.0,0.0,snow covered,0.240811139345169,-9.06659126281738,100.0,469.849853515625
frame_00028.png,1769615729012056106,1769615729.012056,42.30098381573094,-83.69771226530435,238.37294006347656,-0.011318972698080354,-0.9994061106281195,-0.008869290442189842,-0.03131521328822829,0.0007300000000000002,-0.0010700000000000002,-0.0014800000000000002,-0.5749000000000001,0.18810000000000002,-9.7851,0.003556690648106051,0.007956103578374351,0.0,0.0,0.0,0.0,0.0,0.0,0.0,0.0,0.0,0.0,-0.4000000059604645,25.274999618530273,0.0,0.0,0.0,0.0,0.0,snow covered,0.240811139345169,-9.06659126281738,100.0,469.849853515625
frame_00029.png,1769615729032745550,1769615729.0327454,42.300983813842,-83.69771226473489,238.3726043701172,-0.011320624299613058,-0.9994064489993744,-0.008867875226431277,-0.031304216215970626,-0.00012,0.0016400000000000002,0.00029,-0.6029,0.2025,-9.7921,0.003472695264158424,0.007768210944206546,0.0,0.0,0.0,0.0,0.0,0.0,0.0,0.0,0.0,0.0,-0.4000000059604645,25.274999618530273,0.0,0.0,0.0,0.0,0.0,snow covered,0.240811139345169,-9.06659126281738,100.0,469.849853515625
frame_00030.png,1769615729053659250,1769615729.0536592,42.30098381516605,-83.69771226573305,238.37283325195312,-0.011308569637906829,-0.999406898840536,-0.008856350894627564,-0.031297473564465036,0.00205,0.0015300000000000003,-0.0023500000000000005,-0.5704,0.19110000000000002,-9.734300000000001,0.003920053845716881,0.00876892524963792,0.0,0.0,0.0,0.0,0.0,0.0,0.0,0.0,0.0,0.0,-0.4000000059604645,25.274999618530273,0.0,0.0,0.0,0.0,0.0,snow covered,0.240811139345169,-9.06659126281738,100.0,469.849853515625
frame_00031.png,1769615729074077846,1769615729.0740778,42.300983813456405,-83.69771226566981,238.37249755859375,-0.011308992314637223,-0.9994075290030917,-0.0088485695444761,-0.03127939388445304,0.0015900000000000003,0.0036300000000000004,-0.00019000000000000004,-0.46430000000000005,0.18230000000000002,-9.675600000000001,0.006622947574063534,0.014815136346325683,0.0,0.0,0.0,0.0,0.0,0.0,0.0,0.0,0.0,0.0,-0.4000000059604645,25.274999618530273,0.0,0.0,0.0,0.0,0.0,snow covered,0.240811139345169,-9.06659126281738,100.0,469.849853515625
frame_00032.png,1769615729094538736,1769615729.0945387,42.30098381051344,-83.6977122653538,238.37188720703125,-0.011315437713085574,-0.99940756870883,-0.008851417956090046,-0.03127498804209878,-0.00048,0.0008600000000000002,-4e-05,-0.5449,0.21030000000000001,-9.7742,0.008957745136501152,0.020037938405644887,0.0,0.0,0.0,0.0,0.0,0.0,0.0,0.0,0.0,0.0,-0.4000000059604645,25.274999618530273,0.0,0.0,0.0,0.0,0.0,snow covered,0.240811139345169,-9.06659126281738,100.0,469.849853515625
frame_00033.png,1769615729115347269,1769615729.1153471,42.30098380907452,-83.69771226917298,238.3714141845703,-0.011308906591876056,-0.9994086379817371,-0.008864036009939314,-0.031239587462061052,-0.0019500000000000003,0.0037,-0.00039000000000000005,-0.4333,0.1724,-9.764100000000001,0.011466783224561008,0.025650506066349502,0.0,0.0,0.0,0.0,0.0,0.0,0.0,0.0,0.0,0.0,-0.4000000059604645,25.274999618530273,0.0,0.0,0.0,0.0,0.0,snow covered,0.240811139345169,-9.06659126281738,100.0,469.849853515625
frame_00034.png,1769615729135944643,1769615729.1359446,42.30098380639591,-83.69771227137747,238.37081909179688,-0.01130316035136808,-0.9994100212031757,-0.00887024281120882,-0.031195622725138154,-0.0009400000000000002,0.0033700000000000006,0.0011900000000000003,-0.2386,0.152,-9.7254,0.018143100366695062,0.040585026934274855,0.0,0.0,0.0,0.0,0.0,0.0,0.0,0.0,0.0,0.0,-0.4000000059604645,25.274999618530273,0.0,0.0,0.0,0.0,0.0,snow covered,0.240811139345169,-9.06659126281738,100.0,469.849853515625
frame_00035.png,1769615729156727003,1769615729.156727,42.30098380769891,-83.69771227745127,238.37091064453125,-0.011294155046421839,-0.9994112349194663,-0.008883485009444815,-0.031156207609750308,-0.0009400000000000002,0.0037400000000000007,-0.0018100000000000002,-0.2268,0.2053,-9.7842,0.025497266863327536,0.0570358561372519,0.0,0.0,0.0,0.0,0.0,0.0,0.0,0.0,0.0,0.0,-0.4000000059604645,25.274999618530273,0.0,0.0,0.0,0.0,0.0,snow covered,0.240811139345169,-9.06659126281738,100.0,469.849853515625
frame_00036.png,1769615729177442037,1769615729.177442,42.300983805038776,-83.69771228510778,238.3702392578125,-0.01128458326711057,-0.9994125252027373,-0.008882242433265557,-0.031118618506161624,-0.00099,0.0038600000000000006,-0.0009200000000000001,-0.1565,0.116,-9.7334,0.03397392197609732,0.07599762502521114,0.0,0.0,0.0,0.0,0.0,0.0,0.0,0.0,0.0,0.0,-0.4000000059604645,25.274999618530273,0.0,0.0,0.0,0.0,0.0,snow covered,0.240811139345169,-9.06659126281738,100.0,469.849853515625
frame_00037.png,1769615729198249566,1769615729.1982496,42.30098380262586,-83.69771229343951,238.36959838867188,-0.011285100538063586,-0.9994142344285515,-0.008883400251116148,-0.031063157074202905,0.00058,0.007360000000000001,-0.00136,-0.0475,0.2112,-9.741800000000001,0.04408026586165249,0.09860490991656494,0.0,0.0,0.0,0.0,0.0,0.0,0.0,0.0,0.0,0.0,-0.4000000059604645,25.274999618530273,0.0,0.0,0.0,0.0,0.0,snow covered,0.240811139345169,-9.06659126281738,100.0,469.849853515625
frame_00038.png,1769615729218693313,1769615729.2186935,42.30098380388952,-83.69771230694114,238.36959838867188,-0.011278263216924655,-0.9994162057953404,-0.008881851600325523,-0.031002598029930502,0.00075,0.007360000000000001,-0.0011300000000000001,0.058100000000000006,0.158,-9.709100000000001,0.0569964557051585,0.12749765162509727,0.0,0.0,0.0,0.0,0.0,0.0,0.0,0.0,0.0,0.0,-0.4000000059604645,25.274999618530273,0.0,0.0,0.0,0.0,0.0,snow covered,0.240811139345169,-9.06659126281738,100.0,469.849853515625
frame_00039.png,1769615729239431863,1769615729.2394319,42.30098380136366,-83.69771232466842,238.3688201904297,-0.011279462754735292,-0.9994188315892731,-0.008869325152469904,-0.03092099377504695,0.00136,0.009720000000000003,0.0005200000000000001,0.1458,0.1535,-9.7101,0.0713139932186068,0.1595251239904303,0.0,0.0,0.0,0.0,0.0,0.0,0.0,0.0,0.0,0.0,-0.4000000059604645,25.274999618530273,0.0,0.0,0.0,0.0,0.0,snow covered,0.240811139345169,-9.06659126281738,100.0,469.849853515625
frame_00040.png,1769615729260094208,1769615729.2600942,42.30098379896929,-83.69771234337306,238.36807250976562,-0.011265396637068659,-0.9994228467189861,-0.008863264421532372,-0.030797838211821933,0.00158,0.013150000000000002,-0.0021300000000000004,0.3786,0.1872,-9.647,0.08979868472674682,0.20087426981264905,0.0,0.0,0.0,0.0,0.0,0.0,0.0,0.0,0.0,0.0,-0.4000000059604645,25.274999618530273,0.0,0.0,0.0,0.0,0.0,snow covered,0.240811139345169,-9.06659126281738,100.0,469.849853515625
frame_00041.png,1769615729281085747,1769615729.2810857,42.3009838002031,-83.69771237021736,238.36782836914062,-0.011264674178572465,-0.99942977225731,-0.008862020294597164,-0.030572897109205816,0.0019100000000000002,0.016980000000000002,0.0013700000000000001,0.7272000000000001,0.1263,-9.605500000000001,0.125679435664747,0.2811373568158992,0.0,0.0,0.0,0.0,0.0,0.0,0.0,0.0,0.0,0.0,-0.4000000059604645,25.274999618530273,0.0,0.0,0.0,0.0,0.0,snow covered,0.240811139345169,-9.06659126281738,100.0,469.849853515625
frame_00042.png,1769615729301743858,1769615729.301744,42.300983797983314,-83.69771240575933,238.3668212890625,-0.011258341359576929,-0.9994354450261709,-0.008849915435690732,-0.030392761834883434,0.0017000000000000001,0.019040000000000005,0.00013000000000000002,0.8629,0.17550000000000002,-9.6724,0.15394359634850327,0.3443625884158209,0.0,0.0,0.0,0.0,0.0,0.0,0.0,0.0,0.0,0.0,-0.4000000059604645,25.274999618530273,0.0,0.0,0.0,0.0,0.0,snow covered,0.240811139345169,-9.06659126281738,100.0,469.849853515625
frame_00043.png,1769615729343014654,1769615729.3430147,42.300983796359894,-83.6977124905036,238.3649139404297,-0.011244541329929525,-0.9994493891671796,-0.008825811237112553,-0.02994300986269879,0.00111,0.019810000000000005,-0.00062,1.4209,0.1635,-9.5243,0.22477299070125986,0.5028036938192763,0.0,0.0,0.0,0.0,0.0,0.0,0.0,0.0,0.0,0.0,-0.4000000059604645,25.125,0.0,0.0,0.0,0.0,0.0,snow covered,0.240811139345169,-9.06659126281738,100.0,469.849853515625
frame_00044.png,1769615729364211745,1769615729.3642118,42.30098379349427,-83.69771255194632,238.36334228515625,-0.011251164915867584,-0.9994556249831315,-0.008824167544379594,-0.029732121430586813,0.0011500000000000002,0.021680000000000005,0.00044000000000000007,1.2518,0.0965,-9.7809,0.2635111313376589,0.5894585901344628,0.0,0.0,0.0,0.0,0.0,0.0,0.0,0.0,0.0,0.0,-0.4000000059604645,24.899999618530273,0.0,0.0,0.0,0.0,0.0,snow covered,0.240811139345169,-9.06659126281738,100.0,469.849853515625
frame_00045.png,1769615729384831254,1769615729.3848312,42.30098379112265,-83.69771261426757,238.36178588867188,-0.011263997731691011,-0.9994627386352244,-0.008826759132647018,-0.0294863486734438,0.0007300000000000002,0.027570000000000004,-1e-05,1.4811,0.129,-9.875,0.30209782405265195,0.6757747065363393,0.0,0.0,0.0,0.0,0.0,0.0,0.0,0.0,0.0,0.0,-0.4000000059604645,24.875,0.0,0.0,0.0,0.0,0.0,snow covered,0.240811139345169,-9.06659126281738,100.0,469.849853515625
frame_00046.png,1769615729405611641,1769615729.4056115,42.300983792441315,-83.69771269209464,238.361083984375,-0.01125777649104559,-0.999470012674494,-0.008832421385559053,-0.02923943510727241,-0.0017500000000000003,0.023990000000000004,-0.0016300000000000002,1.9249,-0.035,-9.810500000000001,0.34990108802467645,0.7827077398459198,0.0,0.0,0.0,0.0,0.0,0.0,0.0,0.0,0.0,0.0,-0.4000000059604645,24.825000762939453,0.0,0.0,0.0,0.0,0.0,snow covered,0.240811139345169,-9.06659126281738,100.0,469.849853515625
frame_00047.png,1769615729425976306,1769615729.4259763,42.30098378988514,-83.69771278588509,238.35952758789062,-0.011269456553919421,-0.9994752547473562,-0.008856368798348875,-0.029047878208125117,-0.00051,0.01898,0.0006000000000000001,1.6101,0.24550000000000002,-10.1295,0.3962570326865898,0.8864032066979403,0.0,0.0,0.0,0.0,0.0,0.0,0.0,0.0,0.0,0.0,-0.4000000059604645,25.125,0.0,0.0,0.0,0.0,0.0,snow covered,0.240811139345169,-9.06659126281738,100.0,469.849853515625
frame_00048.png,1769615729446370890,1769615729.4463708,42.30098378729166,-83.6977128807365,238.35801696777344,-0.01126574676793135,-0.9994817523993371,-0.008853164625467824,-0.02882587460295492,0.00124,0.021660000000000002,-0.0008400000000000001,1.8152000000000001,0.0308,-10.1659,0.4415608284663947,0.9877450796296171,0.0,0.0,0.0,0.0,0.0,0.0,0.0,0.0,0.0,0.0,-0.4000000059604645,25.125,0.0,0.0,0.0,0.0,0.0,snow covered,0.240811139345169,-9.06659126281738,100.0,469.849853515625
frame_00049.png,1769615729467242857,1769615729.4672427,42.300983788726136,-83.69771299229966,238.3573760986328,-0.011276107329904972,-0.9994872075292112,-0.008854715197138674,-0.02863154567469061,0.00101,0.018430000000000005,0.00169,1.9948000000000001,0.12140000000000001,-10.143500000000001,0.4914172180565865,1.0992708317595006,0.949999988079071,0.75,0.9300000071525574,0.9300000071525574,0.7714087493200958,0.609006915,0.7551685804079427,0.7551685804079427,0.7226882062839952,0.3425749274841984,-0.4000000059604645,25.05000114440918,0.0,0.0,0.0,0.0,0.0,snow covered,0.240811139345169,-9.06659126281738,100.0,469.849853515625
frame_00050.png,1769615729488009958,1769615729.48801,42.30098378624532,-83.69771312186384,238.35610961914062,-0.011292331590583904,-0.999490748207051,-0.008856333200302241,-0.028500751884866993,-0.00041000000000000005,0.01386,0.0012600000000000003,1.9858,0.12560000000000002,-10.206000000000001,0.5424406443713308,1.2134071750200048,0.949999988079071,0.75,0.9300000071525574,0.9300000071525574,0.7714087493200958,0.609006915,0.7551685804079427,0.7551685804079427,0.7226882062839952,0.4044140984479669,-0.4000000059604645,25.200000762939453,0.0,0.0,0.0,0.0,0.0,snow covered,0.240811139345169,-9.06659126281738,100.0,469.849853515625
frame_00051.png,1769615729508447656,1769615729.5084476,42.300983783971205,-83.6977132521568,238.35487365722656,-0.011313590002443696,-0.9994935710114152,-0.008847510534174007,-0.028395875500734653,0.0028000000000000004,0.014740000000000001,0.00262,1.7819,0.1998,-10.2128,0.5895343542898801,1.3187529784852046,1.350000023841858,1.2400000095367432,0.9300000071525574,0.9300000071525574,1.0962124663598085,1.0068914405439235,0.7551685804079427,0.7551685804079427,0.9033602669299043,0.3149890224569913,-0.4000000059604645,25.05000114440918,0.0,0.0,0.0,0.0,0.0,snow covered,0.240811139345169,-9.06659126281738,100.0,469.849853515625
frame_00052.png,1769615729529258820,1769615729.5292587,42.30098378496164,-83.69771340056712,238.35452270507812,-0.01131967296544023,-0.9994957685331731,-0.008855327471085127,-0.028313545585396623,-0.00044000000000000007,0.00825,0.0011300000000000001,2.1345,0.0562,-10.0883,0.642780797024449,1.4378620760958711,1.350000023841858,1.2400000095367432,1.3700000047683716,1.3600000143051147,1.0962124663598085,1.0068914405439235,1.1124526352719617,1.104332550815885,1.0799722732478947,0.24890412564446393,-0.4000000059604645,25.0,0.0,0.0,0.0,0.0,0.0,snow covered,0.240811139345169,-9.06659126281738,100.0,469.849853515625
frame_00053.png,1769615729549828221,1769615729.549828,42.300983782678735,-83.69771356755378,238.35354614257812,-0.011334489467502096,-0.9994967098070389,-0.008857390007318553,-0.02827371704734997,0.00030000000000000003,0.00218,0.0017800000000000001,2.0878,0.1694,-10.0619,0.6953735415671458,1.5555088900732112,1.649999976158142,1.5499999523162842,1.3700000047683716,1.3600000143051147,1.3398151936401916,1.2586142522803832,1.1124526352719617,1.104332550815885,1.2038036580021052,0.2261030035351021,-0.4000000059604645,25.05000114440918,0.0,0.0,0.0,0.0,0.0,snow covered,0.240811139345169,-9.06659126281738,100.0,469.849853515625
frame_00054.png,1769615729570550645,1769615729.5705504,42.30098378026167,-83.6977137369313,238.35279846191406,-0.011351234312523995,-0.9994979670289932,-0.008847012558309893,-0.028225763998254823,0.0008200000000000001,0.0037300000000000002,0.0019500000000000003,2.2911,0.22820000000000001,-10.1586,0.773236525732406,1.7296837138718484,1.649999976158142,1.5499999523162842,1.6899999380111694,1.6799999475479126,1.3398151936401916,1.2586142522803832,1.3722955314644982,1.3641754470084213,1.3337251060983735,0.2289196600499479,-0.4000000059604645,25.200000762939453,0.0,0.0,0.0,0.0,0.0,snow covered,0.240811139345169,-9.06659126281738,100.0,469.849853515625
frame_00055.png,1769615729591377386,1769615729.5913775,42.30098378144953,-83.69771392370548,238.35263061523438,-0.011343728714861556,-0.9994980617176388,-0.008847729930276339,-0.02822520357070085,-0.00109,-0.0020800000000000003,-0.0015,2.2720000000000002,-0.0076,-9.9399,0.8300548531012777,1.8567829030963723,1.9299999475479126,1.8399999141693115,1.9799998998641968,1.959999918937683,1.5671777520084214,1.4940968951046896,1.6077781742888044,1.5915380053766515,1.5651477066946415,0.15706477904088825,-0.4000000059604645,25.350000381469727,0.0,0.0,0.0,0.0,0.0,snow covered,0.240811139345169,-9.06659126281738,100.0,469.849853515625
frame_00056.png,1769615729612086589,1769615729.6120865,42.30098377965235,-83.69771413079906,238.3519744873047,-0.011384599633256665,-0.9994985619270842,-0.008824433493671999,-0.028198315027620487,0.0029500000000000004,0.010910000000000001,0.0034000000000000002,2.2267,-0.0222,-9.5738,0.8820938494187115,1.9731910155186927,2.180000066757202,2.0999999046325684,1.9799998998641968,1.959999918937683,1.7701801538074635,1.705219284560766,1.6077781742888044,1.5915380053766515,1.6686789045084214,0.15432469974541427,-0.4000000059604645,25.274999618530273,0.0,0.0,0.0,0.0,0.0,snow covered,0.240811139345169,-9.06659126281738,100.0,469.849853515625
frame_00057.png,1769615729674209479,1769615729.6742096,42.300983777015524,-83.6977148116476,238.3502655029297,-0.011412983136558863,-0.9994932186775407,-0.008976874771185351,-0.028327819416200342,0.00288,0.01086,0.011350000000000002,2.8739000000000003,0.5775,-9.8427,1.0497448502427758,2.348216245302075,2.690000057220459,2.569999933242798,2.7799999713897705,2.7300000190734863,2.1843048482635403,2.0868636411925365,2.2573856083682298,2.216785186087847,2.1863348209780384,0.06893803952165915,-0.4000000059604645,26.625,0.0,0.0,0.0,0.0,0.0,snow covered,0.240811139345169,-9.06659126281738,100.0,469.849853515625
frame_00058.png,1769615729694585345,1769615729.6945853,42.30098377627184,-83.69771506189771,238.34945678710938,-0.011348474458988289,-0.9994892330842869,-0.00909298877153131,-0.02845703131456127,-0.018790000000000005,-0.02024,-0.006240000000000001,2.2218,0.5176000000000001,-10.1285,1.1099108607258479,2.482804000792078,2.9099998474121094,2.7799999713897705,2.7799999713897705,2.7300000190734863,2.362946706297226,2.2573856083682298,2.2573856083682298,2.216785186087847,2.273625777280383,0.08425080008126368,-0.4000000059604645,27.575000762939453,0.0,0.0,0.0,0.0,0.0,snow covered,0.240811139345169,-9.06659126281738,100.0,469.849853515625
frame_00059.png,1769615729715660996,1769615729.715661,42.300983776185625,-83.6977156182512,238.34820556640625,-0.011339745040548133,-0.9994903711369456,-0.009117247086625924,-0.028412743487870405,-0.004090000000000001,0.015140000000000002,-0.0013300000000000002,3.1831,-1.1842000000000001,-10.570500000000001,1.1667876193594802,2.6100338972499957,3.2100000381469727,2.9700000286102295,2.93999981880188,2.8999998569488525,2.6065496271756934,2.41166740663177,2.3873069596654557,2.3548266218411498,2.4400876538285172,0.06511265757909832,-0.4000000059604645,28.350000381469727,0.0,0.0,0.0,0.0,0.0,snow covered,0.240811139345169,-9.06659126281738,100.0,469.849853515625
frame_00060.png,1769615729736487634,1769615729.7364876,42.30098377807319,-83.69771590526706,238.34707641601562,-0.011346217261788527,-0.99948356328897,-0.009280634349259995,-0.028596151753466175,-0.0101,-0.00591,0.0016200000000000001,1.6951,1.0307,-9.0875,1.2229186893086252,2.7355957328620364,3.2300000190734863,3.18999981880188,3.0999999046325684,3.059999942779541,2.622789796087847,2.590309264665456,2.5172285045607663,2.48474816673646,2.5537689330126323,0.06646698474674588,-0.4000000059604645,29.0,0.0,0.0,0.0,0.0,0.0,snow covered,0.240811139345169,-9.06659126281738,100.0,469.849853515625
frame_00061.png,1769615729757021769,1769615729.7570217,42.300983778789615,-83.69771621463084,238.3463897705078,-0.011278301629319532,-0.9994833476050847,-0.009227009147596783,-0.028647863352818572,0.011860000000000002,-0.00434,-0.0065000000000000014,1.8880000000000001,0.7661,-9.3518,1.2739278735818325,2.8497002175301445,3.369999885559082,3.3999998569488525,3.369999885559082,3.43999981880188,2.7364709784729198,2.7608312318411494,2.7364709784729198,2.793311569665456,2.756771189613111,0.03261010661590771,-0.30000001192092896,29.92500114440918,0.0,0.0,0.0,0.0,0.0,snow covered,0.240811139345169,-9.06659126281738,100.0,469.849853515625
frame_00062.png,1769615729777824048,1769615729.777824,42.30098377920965,-83.69771654469544,238.3452606201172,-0.011205338027710177,-0.9994792660290208,-0.009317781182462381,-0.028789166914141937,-0.024540000000000003,-0.03434,-0.0039900000000000005,2.9606000000000003,-0.6829000000000001,-10.5184,1.3455180949412815,3.0098432472979506,3.629999876022339,3.559999942779541,3.609999895095825,3.5999999046325684,2.947593367928996,2.89075277673646,2.931353199016843,2.9232331145607664,2.9232331145607664,0.028775629034813482,-0.20000000298023224,29.92500114440918,0.0,0.0,0.0,0.0,0.0,snow covered,0.240811139345169,-9.06659126281738,100.0,469.849853515625
frame_00063.png,1769615729798275873,1769615729.798276,42.30098377765473,-83.69771687792637,238.34397888183594,-0.011172630111344839,-0.9994782885108042,-0.009308635446548362,-0.028838731560734836,0.00821,0.0031700000000000005,-0.01017,2.0558,0.0558,-9.4178,1.3882905780279888,3.1055227256139295,3.75,3.68999981880188,3.7799999713897705,3.7300000190734863,3.0450345750000003,2.9963138746654563,3.06939482836823,3.028794406087847,3.0348844210303834,0.02274602726327874,-0.20000000298023224,30.30000114440918,0.0,0.0,0.0,0.0,0.0,snow covered,0.240811139345169,-9.06659126281738,100.0,469.849853515625
frame_00064.png,1769615729818877287,1769615729.8188772,42.300983779470656,-83.69771722766696,238.3430633544922,-0.011127264689391125,-0.9994775339754789,-0.009229209241717449,-0.02890786667328245,0.014040000000000002,-0.009550000000000001,-0.0034900000000000005,1.5816000000000001,0.9498000000000001,-9.300600000000001,1.4435465874853974,3.229127103409585,3.8299999237060547,3.869999885559082,3.8899998664855957,3.9099998474121094,3.109995250648613,3.14247558847292,3.158715757385073,3.174955926297226,3.146535630700958,0.025577027494959773,0.0,30.80000114440918,0.0,0.0,0.0,0.0,0.0,snow covered,0.240811139345169,-9.06659126281738,100.0,469.849853515625
frame_00065.png,1769615729839468826,1769615729.8394687,42.300983780362124,-83.69771759569689,238.341552734375,-0.011049284039254148,-0.9994728549751974,-0.009272794688289406,-0.02908506091821739,-0.012820000000000003,-0.04642000000000001,-0.0034500000000000004,2.2484,0.5133,-10.614,1.5108076342332595,3.379586029321748,4.239999771118164,4.119999885559082,4.159999847412109,4.089999675750732,3.442918906945839,3.3454778934729195,3.3779582312972263,3.321117446506605,3.3718681195556472,0.0022836849540562114,0.20000000298023224,30.55000114440918,0.0,0.0,0.0,0.0,0.0,snow covered,0.240811139345169,-9.06659126281738,100.0,469.849853515625
frame_00066.png,1769615729860028289,1769615729.8600285,42.30098377676904,-83.69771797297815,238.3399200439453,-0.011035823795461808,-0.9994786849348565,-0.009155214507959765,-0.02892664863683009,0.008320000000000001,0.0205,-0.007050000000000001,3.4426,-1.1352,-10.1501,1.5625452867274447,3.4953200536920903,4.309999942779541,4.319999694824219,4.400000095367432,4.239999771118164,3.4997596917364597,3.507879582594452,3.572840645439234,3.442918906945839,3.5058497066789958,0.003012500379123515,0.6000000238418579,30.875,0.0,0.0,0.0,0.0,0.0,snow covered,0.240811139345169,-9.06659126281738,100.0,469.849853515625
frame_00067.png,1769615729880875887,1769615729.8808758,42.300983777850604,-83.69771836352069,238.3389434814453,-0.010980569463020229,-0.9994780562059391,-0.009034504908051787,-0.029007240098495875,0.01786,-0.0027700000000000003,-0.0022600000000000003,2.6489000000000003,-1.1294,-10.3129,1.6447152044179532,3.6791292293706963,4.389999866485596,4.400000095367432,4.549999713897705,4.519999980926514,3.564720367385073,3.572840645439234,3.694641718682299,3.6702816589121534,3.6256210976046894,0.014543694561976362,0.800000011920929,30.850000381469727,0.0,0.0,0.0,0.0,0.0,snow covered,0.240811139345169,-9.06659126281738,100.0,469.849853515625
frame_00068.png,1769615729901404636,1769615729.9014046,42.300983776748645,-83.69771877515416,238.33731079101562,-0.010946633570699194,-0.9994781814820776,-0.009166212307571036,-0.02897441123958493,-0.013130000000000003,0.00032,-0.0009000000000000002,2.2922000000000002,0.7818,-10.2126,1.7019337243701382,3.807123625392537,4.880000114440918,4.549999713897705,4.569999694824219,4.670000076293945,3.962605086527081,3.694641718682299,3.710881887594452,3.7920831193513873,3.790052953038805,0.00448387655180808,1.2000000476837158,31.0,0.0,0.0,0.0,0.0,0.0,snow covered,0.240811139345169,-9.06659126281738,100.0,469.849853515625
frame_00069.png,1769615729922173465,1769615729.9221735,42.30098377667889,-83.69771918789442,238.3356475830078,-0.010942939588793665,-0.9994821878300062,-0.00905265235075356,-0.028873132305250456,0.010570000000000001,0.011410000000000002,-0.00384,2.6328,-0.5247,-9.9144,1.7593653578280295,3.9355947435398324,4.989999771118164,4.920000076293945,4.929999828338623,4.710000038146973,4.051925821945839,3.995085424351387,4.00320531520938,3.8245634571756937,3.968695004670575,0.00841048514587932,1.600000023841858,31.125,0.0,0.0,0.0,0.0,0.0,snow covered,0.240811139345169,-9.06659126281738,100.0,469.849853515625
frame_00070.png,1769615729942868434,1769615729.9428685,42.30098377955346,-83.69771961829456,238.33444213867188,-0.010925744492295664,-0.9994830640675473,-0.009168217154997497,-0.02881278437838636,-0.00986,0.016270000000000003,0.006150000000000001,1.8308,0.8906000000000001,-9.403400000000001,1.8121580477594688,4.053688823355066,4.96999979019165,4.980000019073486,4.989999771118164,4.980000019073486,4.035685653033686,4.043805931087847,4.051925821945839,4.043805931087847,4.043805834288804,0.002438023611808027,1.7000000476837158,31.450000762939453,0.0,0.0,0.0,0.0,0.0,snow covered,0.240811139345169,-9.06659126281738,100.0,469.849853515625
frame_00071.png,1769615729964563514,1769615729.9645634,42.300983778275125,-83.69772007119525,238.33273315429688,-0.010884261268271411,-0.99948689325874,-0.009196859627372276,-0.028686248162325505,-0.008360000000000001,0.017880000000000004,-0.007760000000000001,2.6952000000000003,-0.4038,-9.926400000000001,1.8718311633329965,4.187174002506113,5.319999694824219,5.329999923706055,5.0,5.139999866485596,4.319888802594452,4.328009080648613,4.0600461,4.173727282385073,4.220417816407035,0.007939439316594993,1.8000000715255737,31.774999618530273,0.0,0.0,0.0,0.0,0.0,snow covered,0.240811139345169,-9.06659126281738,100.0,469.849853515625
frame_00072.png,1769615729984247696,1769615729.984248,42.300983778111494,-83.69772052577784,238.33096313476562,-0.010850341173134437,-0.9994899182116983,-0.009252558122307946,-0.028575577995773625,-0.0029600000000000004,0.020540000000000003,-0.0026800000000000005,2.3407,0.08650000000000001,-9.7676,1.931962681088454,4.321684599834007,5.569999694824219,5.5,5.339999675750732,5.299999713897705,4.522891107594452,4.46605071,4.336128971506605,4.3036486336822986,4.407179855695839,0.019782854090073083,1.8000000715255737,32.20000076293945,0.0,0.0,0.0,0.0,0.0,snow covered,0.240811139345169,-9.06659126281738,100.0,469.849853515625
frame_00073.png,1769615730004981328,1769615730.0049813,42.30098378126,-83.69772099885375,238.3297882080078,-0.01079722437866476,-0.999490864103093,-0.009245204904737795,-0.028564990923130456,0.005180000000000001,0.006090000000000001,-0.004520000000000001,1.7497,0.5409,-10.1569,1.9859042856054574,4.442348732642272,5.650000095367432,5.579999923706055,5.559999942779541,5.420000076293945,4.587852170439234,4.531011385648613,4.5147712167364595,4.4010900343513875,4.508681201793923,0.014931846449658831,1.8000000715255737,32.75,0.0,0.0,0.0,0.0,0.0,snow covered,0.240811139345169,-9.06659126281738,100.0,469.849853515625
frame_00074.png,1769615730025924892,1769615730.025925,42.30098378166821,-83.69772149505934,238.328125,-0.01073879327816124,-0.9994951877672675,-0.009218301895091123,-0.028444170917336215,-0.0018200000000000002,0.00011000000000000002,-0.003,2.9854000000000003,0.3561,-10.0335,2.049984211994497,4.58569168317897,5.819999694824219,6.089999675750732,5.699999809265137,5.679999828338623,4.725893412594452,4.9451358865066055,4.628452399121533,4.612212230209379,4.727923482107992,0.031016433017237208,1.8000000715255737,32.85000228881836,0.0,0.0,0.0,0.0,0.0,snow covered,0.240811139345169,-9.06659126281738,100.0,469.849853515625
frame_00075.png,1769615730046588675,1769615730.0465887,42.300983784350876,-83.69772199116194,238.32655334472656,-0.010661692897073138,-0.9994977267564602,-0.00901166713607225,-0.028450173438227932,0.023270000000000002,0.0007800000000000001,-0.012940000000000002,2.5518,-0.2661,-10.359,2.1085749601085495,4.716755671265219,6.210000038146973,6.609999656677246,5.789999961853027,5.929999828338623,5.0425772871756935,5.367380665418758,4.701533352824307,4.815214535209379,4.9816764601570345,0.05616589184505138,1.8000000715255737,32.82500076293945,0.0,0.0,0.0,0.0,0.0,snow covered,0.240811139345169,-9.06659126281738,100.0,469.849853515625
frame_00076.png,1769615730067162576,1769615730.0671625,42.300983790384905,-83.69772250622495,238.3253631591797,-0.010631154702310075,-0.9994978945993035,-0.008775909648296644,-0.028529294612733434,0.037590000000000005,-0.007390000000000002,-0.0032500000000000007,1.5488000000000002,1.1211,-9.4411,2.1600493221043955,4.831900730588207,6.569999694824219,7.25,6.079999923706055,6.069999694824219,5.334900327594452,5.887066845,4.937015995648613,4.928895717594452,5.27196972145938,0.09107575163647896,1.8000000715255737,33.125,0.0,0.0,0.0,0.0,0.0,snow covered,0.240811139345169,-9.06659126281738,100.0,469.849853515625
frame_00077.png,1769615730087764614,1769615730.0877647,42.300983794239585,-83.69772304908915,238.32374572753906,-0.010553964463886845,-0.9994965238467138,-0.008563263104304096,-0.028670248995026286,0.01012,-0.034050000000000004,-0.007360000000000001,2.7181,0.5614,-10.203700000000001,2.2289174017506252,4.985954492672044,6.989999771118164,7.210000038146973,6.289999961853027,6.21999979019165,5.675944261945839,5.854586507175694,5.107537962824306,5.050697178033686,5.422191477494882,0.08749317416835306,1.8000000715255737,33.150001525878906,0.0,0.0,0.0,0.0,0.0,snow covered,0.240811139345169,-9.06659126281738,100.0,469.849853515625
frame_00078.png,1769615730108642193,1769615730.1086423,42.300983801354555,-83.69772358922111,238.32203674316406,-0.010477402471314567,-0.9994994084571074,-0.008151917646177093,-0.0287176386570515,0.04009,-0.0027300000000000007,-0.015460000000000002,3.1217,-0.8936000000000001,-10.267000000000001,2.2852761536191157,5.112025639076745,7.429999828338623,6.859999656677246,6.25,6.299999713897705,6.033228365209379,5.570382970418759,5.075057625,5.115657853682299,5.448581703577609,0.06583614564218962,1.8000000715255737,33.525001525878906,0.0,0.0,0.0,0.0,0.0,snow covered,0.240811139345169,-9.06659126281738,100.0,469.849853515625
frame_00079.png,1769615730129502017,1769615730.129502,42.300983809705656,-83.69772414430224,238.32077026367188,-0.010360984618119906,-0.999496217164543,-0.007968712317149618,-0.028921644066659886,0.023510000000000003,-0.0006100000000000001,-0.01048,0.8927,0.7773,-9.399600000000001,2.3271235817182636,5.205635824888853,7.440000057220459,6.559999942779541,6.460000038146973,6.519999980926514,6.041348643263541,5.32678043673646,5.245579592175694,5.294300098912153,5.477002192771962,0.052129341546650054,1.8000000715255737,33.32500076293945,0.0,0.0,0.0,0.0,0.0,snow covered,0.240811139345169,-9.06659126281738,100.0,469.849853515625
frame_00080.png,1769615730150162152,1769615730.1501622,42.30098381436355,-83.69772472499974,238.31898498535156,-0.010232489063430772,-0.9994959568123629,-0.007862135352760036,-0.029005435887099747,0.0027700000000000003,-0.019350000000000003,-0.014930000000000002,2.2034000000000002,0.1965,-9.5706,2.3858200419688878,5.336936284681884,7.210000038146973,6.829999923706055,6.730000019073486,6.609999656677246,5.854586507175694,5.546022910648613,5.464822066087847,5.367380665418758,5.558203037332728,0.041459508011352016,1.8000000715255737,33.47500228881836,0.0,0.0,0.0,0.0,0.0,snow covered,0.240811139345169,-9.06659126281738,100.0,469.849853515625
frame_00081.png,1769615730170940037,1769615730.1709402,42.30098382053139,-83.69772530639658,238.3170623779297,-0.01004107623727668,-0.9994977583345519,-0.007716387732694313,-0.029049358556800516,0.006950000000000001,-0.012540000000000003,-0.015580000000000002,1.9300000000000002,1.0821,-9.2261,2.4703302661517226,5.525980585565435,7.119999885559082,7.739999771118164,6.949999809265137,6.87999963760376,5.78150555347292,6.28495117694584,5.643463924121533,5.586623139330912,5.824135948467801,0.05395519551429227,1.8000000715255737,33.650001525878906,0.0,0.0,0.0,0.0,0.0,snow covered,0.240811139345169,-9.06659126281738,100.0,469.849853515625
frame_00082.png,1769615730191239557,1769615730.1912396,42.30098382835629,-83.69772590261029,238.31546020507812,-0.009881661425757027,-0.9995034301616061,-0.007485147654266224,-0.028969266943502353,0.021950000000000004,0.004510000000000001,-0.018660000000000003,2.4078,-1.1360000000000001,-9.7727,2.5272471955951525,5.653300341714621,7.269999980926514,7.769999980926514,7.109999656677246,6.960000038146973,5.903307013912154,6.309311623912153,5.773385275418759,5.651584202175694,5.90939702885469,0.04530038590916198,1.8000000715255737,33.60000228881836,0.0,0.0,0.0,0.0,0.0,snow covered,0.240811139345169,-9.06659126281738,100.0,469.849853515625
frame_00083.png,1769615730212737851,1769615730.2127378,42.300983832547296,-83.69772652375966,238.31324768066406,-0.009777502877604427,-0.9995073364772427,-0.007433629275669564,-0.028882969401337975,0.009420000000000001,0.014040000000000002,-0.009800000000000001,2.1916,0.7883,-9.737300000000001,2.5816115430998394,5.774910125221755,7.679999828338623,7.549999713897705,7.299999713897705,7.199999809265137,6.2362306702093795,6.130669378682298,5.927667073682299,5.846466229121533,6.035258337923877,0.04508264320254246,1.899999976158142,33.70000076293945,0.0,0.0,0.0,0.0,0.0,snow covered,0.240811139345169,-9.06659126281738,100.0,469.849853515625
frame_00084.png,1769615730233525531,1769615730.2335255,42.30098384135427,-83.69772714657041,238.3109130859375,-0.009635790939114652,-0.9995132699126368,-0.007216043770281266,-0.02878026257405637,0.01861,0.007970000000000001,-0.015430000000000001,2.7892,-0.7437,-9.5325,2.646243796661532,5.9194885985040475,7.859999656677246,7.21999979019165,7.5,7.289999961853027,6.382392190418759,5.862706398033686,6.090069150000001,5.9195471828243065,6.063678730319189,0.024358545407382033,1.899999976158142,33.47500228881836,0.0,0.0,0.0,0.0,0.0,snow covered,0.240811139345169,-9.06659126281738,100.0,469.849853515625
frame_00085.png,1769615730253992761,1769615730.2539928,42.30098384581731,-83.69772778309729,238.30897521972656,-0.009571123582067798,-0.9995206025414471,-0.0071081519642926996,-0.02857328934882984,0.00406,0.040440000000000004,-0.0036000000000000008,1.8104,-0.5362,-9.9707,2.68483431410022,6.005813270583347,7.819999694824219,7.819999694824219,7.460000038146973,7.569999694824219,6.349911852594452,6.349911852594452,6.057588812175694,6.146909547594452,6.226080516239762,0.03667567334057663,2.0,33.650001525878906,0.0,0.0,0.0,0.0,0.0,snow covered,0.240811139345169,-9.06659126281738,100.0,469.849853515625
frame_00086.png,1769615730295213897,1769615730.295214,42.3009838536518,-83.6977291043638,238.30374145507812,-0.009381852255358092,-0.9995375874769112,-0.0066598560553035955,-0.02814672958652907,0.020040000000000002,0.007280000000000001,-0.00999,1.7595,-0.6372,-10.2535,2.7954490163065553,6.2532517225367865,8.319999694824219,8.09999942779541,7.799999713897705,7.829999923706055,6.7559164625944526,6.5772742173645975,6.333671683682299,6.358032130648613,6.506223623572491,0.04045445669874297,2.200000047683716,33.625,0.0,0.0,0.0,0.0,0.0,snow covered,0.240811139345169,-9.06659126281738,100.0,469.849853515625
frame_00087.png,1769615730315826001,1769615730.315826,42.300983864621294,-83.69773047927436,238.29916381835938,-0.009309758949923252,-0.9995524949861679,-0.006408633680423383,-0.02769598471929132,0.025360000000000004,0.036520000000000004,-0.008090000000000002,3.0029000000000003,0.1535,-10.4571,2.846908717041557,6.368363985498941,8.649999618530273,8.309999465942383,8.010000228881836,7.889999866485596,7.023879443243065,6.747796184540291,6.504194038054162,6.406752637385073,6.670655575805648,0.04746769986687929,2.299999952316284,33.82500076293945,0.0,0.0,0.0,0.0,0.0,snow covered,0.240811139345169,-9.06659126281738,100.0,469.849853515625
frame_00088.png,1769615730336505955,1769615730.336506,42.300983867598795,-83.69773117929202,238.29685974121094,-0.009182362980774628,-0.9995624572549606,-0.006072894661697914,-0.027453564558037078,0.03470000000000001,0.02579,-0.014750000000000001,1.9220000000000002,0.0351,-10.4276,2.9011606148285467,6.48972222573457,8.889999389648438,8.75,8.279999732971191,8.09000015258789,7.2187614701889045,7.105080675000001,6.723436124770146,6.569154713702774,6.904108245915456,0.06385265898402631,2.4000000953674316,33.875,0.0,0.0,0.0,0.0,0.0,snow covered,0.240811139345169,-9.06659126281738,100.0,469.849853515625
frame_00089.png,1769615730357064127,1769615730.3570642,42.30098387288815,-83.6977318947093,238.2949676513672,-0.009084458438890941,-0.9995709265290842,-0.0057974689860503924,-0.027236460967167423,0.023190000000000002,0.013330000000000003,-0.012150000000000001,2.1704,0.0684,-10.2928,2.9581840192777866,6.6172801600832525,9.760000228881836,9.929999351501465,8.460000038146973,8.260000228881836,7.925210173054162,8.06325102801321,6.869598032175693,6.707196343054161,7.391313894074307,0.11697158277507728,2.4000000953674316,33.67499923706055,0.0,0.0,0.0,0.0,0.0,snow covered,0.240811139345169,-9.06659126281738,100.0,469.849853515625
frame_00090.png,1769615730377765014,1769615730.3777652,42.30098387407026,-83.69773263798419,238.29299926757812,-0.008975729054469583,-0.9995765850810339,-0.005582865175386859,-0.02710937959660423,0.01938,0.006400000000000001,-0.01106,2.2723,-0.1452,-10.3683,3.0151364799007756,6.744679397349241,10.920000076293945,10.25,8.710000038146973,8.529999732971191,8.867140744351389,8.323094505,7.072600337175694,6.926438429770146,7.7973185040743065,0.1560695541938981,2.4000000953674316,33.875,0.0,0.0,0.0,0.0,0.0,snow covered,0.240811139345169,-9.06659126281738,100.0,469.849853515625
frame_00091.png,1769615730398341128,1769615730.3983412,42.3009838757628,-83.6977333833019,238.2910614013672,-0.008849458837490443,-0.9995770860873503,-0.0056901646047729446,-0.027110110183763362,-0.02025,-0.012470000000000002,-0.010660000000000003,2.6687000000000003,-0.4536,-10.4025,3.0786705746436813,6.886801355243437,12.329999923706055,9.369999885559082,8.760000228881836,8.670000076293945,10.012073620648613,7.60852629847292,7.113200953054162,7.040119999351387,7.94348021788177,0.15343536253355186,2.4000000953674316,33.900001525878906,0.0,0.0,0.0,0.0,0.0,snow covered,0.240811139345169,-9.06659126281738,100.0,469.849853515625
frame_00092.png,1769615730418970714,1769615730.4189706,42.300983871273985,-83.6977341443566,238.28936767578125,-0.008629304483316225,-0.9995746741453418,-0.006268710036722511,-0.027142387253946198,-0.07738000000000002,-0.006090000000000001,-0.026340000000000002,3.3664,-2.2909,-10.1704,3.147995463414687,7.041876971930851,11.34999942779541,8.630000114440918,9.09999942779541,8.789999961853027,9.216304182364599,7.00763966152708,7.389283437364598,7.137561012824307,7.6876970735201455,0.09171135823070392,2.0,33.67499923706055,0.0,0.0,0.0,0.0,0.0,snow covered,0.240811139345169,-9.06659126281738,100.0,469.849853515625
frame_00093.png,1769615730439523316,1769615730.4395232,42.30098385999952,-83.69773493647118,238.287109375,-0.008517790227689948,-0.9995675924639316,-0.007214649385274165,-0.02720338544638651,-0.09769000000000001,0.012440000000000003,-0.0008800000000000001,2.7779000000000003,-1.1723000000000001,-9.3668,3.20972542981823,7.179963202977592,8.619999885559082,9.319999694824219,9.139999389648438,9.09000015258789,6.9995193834729195,7.567925682594453,7.421763775188904,7.381163933702774,7.342593193739762,0.02265053262316525,1.5,33.95000076293945,0.0,0.0,0.0,0.0,0.0,snow covered,0.240811139345169,-9.06659126281738,100.0,469.849853515625
frame_00094.png,1769615730460238448,1769615730.4602382,42.30098385403504,-83.69773572516893,238.2847900390625,-0.008547525939409994,-0.9995542274062659,-0.008368676079315723,-0.0273541867957724,-0.11244000000000001,-0.011230000000000002,0.0018100000000000002,1.6586,1.7804,-8.4038,3.270238436472791,7.315327168083446,9.019999504089355,9.220000267028809,9.449999809265137,9.279999732971191,7.324322761715985,7.486725225229855,7.673486974121532,7.535445344770146,7.50499507645938,0.025927467633088227,1.7000000476837158,33.775001525878906,0.0,0.0,0.0,0.0,0.0,snow covered,0.240811139345169,-9.06659126281738,100.0,469.849853515625
frame_00095.png,1769615730480962494,1769615730.4809625,42.30098384417841,-83.69773653038008,238.28269958496094,-0.008246074584399687,-0.9995482701073777,-0.009268721941583824,-0.027374235566801432,-0.05730000000000001,0.005510000000000001,-0.009290000000000001,2.3792,-1.7859,-10.609200000000001,3.3523005318167356,7.498895151642129,9.239999771118164,9.119999885559082,9.569999694824219,9.579999923706055,7.502965006945839,7.4055239934729205,7.770927987594452,7.779048265648614,7.614616313415457,0.015431761537296178,1.2000000476837158,33.60000228881836,0.0,0.0,0.0,0.0,0.0,snow covered,0.240811139345169,-9.06659126281738,100.0,469.849853515625
frame_00096.png,1769615730501613329,1769615730.5016134,42.30098383371408,-83.69773736139622,238.2803497314453,-0.008245505452068758,-0.999539221468543,-0.00997018140709305,-0.027458184000555413,-0.06841000000000001,-0.00931,0.0018800000000000004,2.1027,1.2535,-9.361,3.409857340725986,7.627646279763587,9.289999961853027,9.630000114440918,9.539999961853027,9.800000190734863,7.543565622824306,7.819648881527081,7.746567927824307,7.957690510878468,7.76686823576354,0.018252282669335852,1.2000000476837158,34.04999923706055,0.0,0.0,0.0,0.0,0.0,snow covered,0.240811139345169,-9.06659126281738,100.0,469.849853515625
frame_00097.png,1769615730523144163,1769615730.5231442,42.3009838301032,-83.69773819376569,238.278076171875,-0.008131125944926099,-0.9995385274264157,-0.009964772098681116,-0.027519453085440026,0.026120000000000004,-0.00012,-0.015400000000000002,2.7586,1.5271000000000001,-10.0054,3.469891615750111,7.7619393509360535,9.729999542236328,9.779999732971191,9.630000114440918,9.6899995803833,7.900849338891678,7.941449954770146,7.819648881527081,7.8683690010673715,7.882579294064069,0.015542500098698503,1.2000000476837158,33.875,0.0,0.0,0.0,0.0,0.0,snow covered,0.240811139345169,-9.06659126281738,100.0,469.849853515625
frame_00098.png,1769615730543514959,1769615730.543515,42.300983821118955,-83.69773904036936,238.27593994140625,-0.008051748042120277,-0.9995352445731969,-0.009815883955155678,-0.027714844968797062,0.0006900000000000001,-0.022770000000000002,-0.0032600000000000003,2.1745,-1.8259,-10.2574,3.5295141882588172,7.895311468283679,10.149999618530273,10.059999465942383,9.639999389648438,9.6899995803833,8.241893273243065,8.168812319540292,7.827768385188905,7.8683690010673715,8.026710744759908,0.016642696998601592,1.3000000715255737,34.17499923706055,0.0,0.0,0.0,0.0,0.0,snow covered,0.240811139345169,-9.06659126281738,100.0,469.849853515625
frame_00099.png,1769615730564140591,1769615730.5641406,42.300983814978146,-83.6977399123873,238.27349853515625,-0.008114305044737868,-0.9995341299979821,-0.00986355245179634,-0.02771987294070011,0.004410000000000001,0.00888,0.0035000000000000005,2.1554,1.6349,-9.1198,3.5802889895328764,8.008891652245673,10.229999542236328,10.019999504089355,9.889999389648438,9.979999542236328,8.306853948891678,8.136331981715985,8.030770690188904,8.103851643891678,8.144452066172061,0.016926238961963904,1.3000000715255737,34.275001525878906,0.0,0.0,0.0,0.0,0.0,snow covered,0.240811139345169,-9.06659126281738,100.0,469.849853515625
frame_00100.png,1769615730584628249,1769615730.584628,42.30098380426712,-83.69774079067636,238.27088928222656,-0.00798425977486289,-0.9995336834608495,-0.009537553628799187,-0.027887314209357656,0.040420000000000005,-0.031380000000000005,-0.00524,2.1334,0.55,-9.8063,3.6451175086498324,8.153909159799158,10.069999694824219,10.179999351501465,10.149999618530273,10.079999923706055,8.176932597594453,8.26625333301321,8.241893273243065,8.185052875648612,8.217533019874836,0.007802865941818408,1.3000000715255737,34.82500076293945,0.0,0.0,0.0,0.0,0.0,snow covered,0.240811139345169,-9.06659126281738,100.0,469.849853515625
frame_00101.png,1769615730605355369,1769615730.6053553,42.30098379855999,-83.69774167897125,238.26861572265625,-0.0080094769168233,-0.9995333290878874,-0.0094636672750314,-0.027917939102150475,-0.010400000000000001,-0.007380000000000001,0.0037300000000000002,2.0372,-0.7012,-10.0144,3.69462240643568,8.264648645852231,10.289999961853027,10.25,10.380000114440918,10.279999732971191,8.355574842824307,8.323094505,8.428655796527082,8.347454564770146,8.363694927280385,0.011984330571374189,1.5,34.95000076293945,0.0,0.0,0.0,0.0,0.0,snow covered,0.240811139345169,-9.06659126281738,100.0,469.849853515625
frame_00102.png,1769615730626204167,1769615730.6262043,42.30098379193621,-83.69774259072564,238.265625,-0.007915914441386451,-0.9995347324793229,-0.009583199183180126,-0.027853530466717104,-0.004280000000000001,0.0085,-0.0033100000000000004,2.4077,1.4303000000000001,-9.3694,3.743833528913997,8.374730974168877,10.449999809265137,10.4399995803833,10.529999732971191,10.519999504089355,8.485496194121533,8.477375916067372,8.550456869770146,8.542336591715985,8.513916392918759,0.016619688343325587,1.399999976158142,35.0,0.0,0.0,0.0,0.0,0.0,snow covered,0.240811139345169,-9.06659126281738,100.0,469.849853515625
frame_00103.png,1769615730646782117,1769615730.6467822,42.30098378345559,-83.69774350732986,238.262939453125,-0.007836888840264622,-0.9995347087101243,-0.009496040003564318,-0.027906531158905276,0.010960000000000001,-0.0018700000000000004,-0.00218,2.5017,0.1263,-9.7673,3.808636423867817,8.519691162006875,10.59999942779541,10.59999942779541,10.779999732971191,10.710000038146973,8.607297267364597,8.607297267364597,8.753459174770146,8.696618777175694,8.666168121668758,0.01719275462884015,1.5,35.07500076293945,0.0,0.0,0.0,0.0,0.0,snow covered,0.240811139345169,-9.06659126281738,100.0,469.849853515625
frame_00104.png,1769615730667436423,1769615730.6674366,42.300983781471444,-83.69774443370592,238.2601776123047,-0.007794186055558595,-0.9995320288249436,-0.009707176666997004,-0.02794180985510886,-0.03402,0.00198,-0.003940000000000001,1.6017000000000001,-0.13240000000000002,-9.2224,3.8550801511998722,8.623582993425043,10.769999504089355,10.90999984741211,11.170000076293945,10.889999389648438,8.745338896715985,8.859020466297226,9.070143049351387,8.842779910188904,8.879320580638375,0.02965560688733632,1.600000023841858,34.97500228881836,0.0,0.0,0.0,0.0,0.0,snow covered,0.240811139345169,-9.06659126281738,100.0,469.849853515625
frame_00105.png,1769615730687916921,1769615730.6879168,42.30098378001632,-83.69774538456078,238.25672912597656,-0.007677417532072129,-0.9995353207111275,-0.00986445187984747,-0.027800944229499143,-0.00256,0.014080000000000002,-0.0014100000000000002,2.3344,2.0915,-9.3139,3.9076344687674456,8.74114384856465,11.139999389648438,11.059999465942383,11.289999961853027,11.09000015258789,9.045782215188904,8.980821539540292,9.167584062824305,9.005182373702773,9.049842547814068,0.035315595372579,1.5,34.97500228881836,0.0,0.0,0.0,0.0,0.0,snow covered,0.240811139345169,-9.06659126281738,100.0,469.849853515625
frame_00106.png,1769615730708585517,1769615730.7085855,42.300983774419194,-83.69774633941746,238.25341796875,-0.007493761556910895,-0.9995368559105855,-0.009777939674517476,-0.027826410293664065,0.0064800000000000005,-0.008180000000000002,-0.016810000000000002,2.2519,-0.2893,-9.8528,3.9708221604979004,8.882490923704173,11.199999809265137,11.130000114440918,11.34999942779541,11.359999656677246,9.094503109121534,9.037662711527082,9.216304182364599,9.224424460418758,9.143223615857993,0.029353555707894705,1.600000023841858,34.875,0.0,0.0,0.0,0.0,0.0,snow covered,0.240811139345169,-9.06659126281738,100.0,469.849853515625
frame_00107.png,1769615730729207791,1769615730.7292078,42.3009837785513,-83.69774730408616,238.2501678466797,-0.007392535312685689,-0.999541866874724,-0.0097755123809713,-0.027673925343755467,-0.00023000000000000003,0.023360000000000006,-0.009750000000000002,1.4761,0.46580000000000005,-9.1905,4.011369929236799,8.973193849506965,11.40999984741211,11.289999961853027,11.420000076293945,11.59999942779541,9.265025076297226,9.167584062824305,9.273145354351389,9.419306487364599,9.28126524520938,0.03433241283641074,1.600000023841858,34.54999923706055,0.0,0.0,0.0,0.0,0.0,snow covered,0.240811139345169,-9.06659126281738,100.0,469.849853515625
frame_00108.png,1769615730749981815,1769615730.7499816,42.30098378463803,-83.6977482954846,238.24630737304688,-0.007195402572468147,-0.9995503938949695,-0.009504074848368353,-0.02751197571073936,0.043100000000000006,0.011480000000000002,-0.014500000000000002,2.9997000000000003,2.367,-9.5494,4.077245115550492,9.120552688779519,11.469999313354492,11.5,11.420000076293945,11.50999927520752,9.313745195837516,9.33810603,9.273145354351389,9.346225533661823,9.317805528462682,0.021627290188875437,1.600000023841858,34.60000228881836,0.0,0.0,0.0,0.0,0.0,snow covered,0.240811139345169,-9.06659126281738,100.0,469.849853515625
frame_00109.png,1769615730770696646,1769615730.7706966,42.3009837835887,-83.69774928601429,238.24258422851562,-0.006833607537980181,-0.9995625974728506,-0.008785696841624484,-0.027399399123921322,0.026730000000000004,0.012740000000000001,-0.018750000000000003,1.3066,-1.0285,-9.497900000000001,4.1530933878504275,9.290220723018136,11.619999885559082,11.59999942779541,11.6899995803833,11.630000114440918,9.435547043472921,9.419306487364599,9.49238744106737,9.44366732152708,9.447727073357992,0.016953994424438918,1.600000023841858,35.025001525878906,0.0,0.0,0.0,0.0,0.0,snow covered,0.240811139345169,-9.06659126281738,100.0,469.849853515625
frame_00110.png,1769615730791397525,1769615730.7913976,42.30098379252856,-83.69775029158289,238.2388916015625,-0.006705088899530921,-0.9995733655659576,-0.008374914120129199,-0.0271659611917964,0.05272000000000001,0.009470000000000001,-0.005460000000000001,2.6222000000000003,1.9014000000000002,-9.3186,4.21266871679211,9.423487159340944,11.819999694824219,11.769999504089355,11.84000015258789,11.819999694824219,9.597948732594453,9.557348116715985,9.614189288702775,9.597948732594453,9.591858717651917,0.017867224251913616,1.600000023841858,34.85000228881836,0.0,0.0,0.0,0.0,0.0,snow covered,0.240811139345169,-9.06659126281738,100.0,469.849853515625
frame_00111.png,1769615730811975894,1769615730.811976,42.30098379898377,-83.69775132277604,238.23452758789062,-0.006633843960038689,-0.9995796544826911,-0.008015021252285459,-0.02706041191303905,0.07167000000000001,0.020760000000000004,-0.01602,2.5359000000000003,0.40790000000000004,-8.9442,4.270092208127769,9.551940064049333,12.079999923706055,11.9399995803833,12.269999504089355,12.050000190734863,9.809071315648612,9.695389746067372,9.963352726715986,9.784711255878468,9.81313126107761,0.02734430861970362,1.600000023841858,34.67499923706055,0.0,0.0,0.0,0.0,0.0,snow covered,0.240811139345169,-9.06659126281738,100.0,469.849853515625
frame_00112.png,1769615730874568919,1769615730.874569,42.30098380545393,-83.69775446468434,238.2201385498047,-0.00622762471094518,-0.999614245971147,-0.007692989203184494,-0.025949833508418268,-0.019030000000000002,0.027630000000000005,-0.0074600000000000005,2.079,-1.3181,-10.1172,4.4264957329579095,9.901805364882867,12.4399995803833,12.449999809265137,12.469999313354492,12.479999542236328,10.101394356067372,10.109514634121533,10.125754415837518,10.133874693891677,10.117634524979525,0.021796950368475763,1.5,34.97500228881836,0.0,0.0,0.0,0.0,0.0,snow covered,0.240811139345169,-9.06659126281738,100.0,469.849853515625
frame_00113.png,1769615730894980510,1769615730.8949807,42.30098380567462,-83.69775553398213,238.2148895263672,-0.006182006382348949,-0.9996196622266189,-0.0077916260562851045,-0.02572166888885696,-0.0023800000000000006,0.021310000000000003,-0.005110000000000001,2.487,0.5175000000000001,-11.820500000000001,4.483311480323336,10.028898782794485,12.670000076293945,12.639999389648438,12.670000076293945,12.65999984741211,10.288156879351387,10.263796045188904,10.288156879351387,10.280036601297226,10.280036601297226,0.025041415208376768,1.399999976158142,34.70000076293945,0.0,0.0,0.0,0.0,0.0,snow covered,0.240811139345169,-9.06659126281738,100.0,469.849853515625
frame_00114.png,1769615730915509010,1769615730.915509,42.300983805331555,-83.69775772643408,238.20602416992188,-0.0060463114953694394,-0.999624933365244,-0.007824804061473092,-0.025538346720792766,-0.007110000000000001,0.016290000000000002,-0.011220000000000003,2.6451000000000002,-0.24430000000000002,-11.0618,4.542538205694868,10.161385413847078,12.710000038146973,12.630000114440918,12.710000038146973,12.59000015258789,10.320637217175694,10.255676541527082,10.320637217175694,10.223196203702775,10.280036794895311,0.011676693306657252,1.399999976158142,34.85000228881836,0.0,0.0,0.0,0.0,0.0,snow covered,0.240811139345169,-9.06659126281738,100.0,469.849853515625
frame_00115.png,1769615730936603366,1769615730.9366033,42.30098380511333,-83.69775883768301,238.20187377929688,-0.005987051776665476,-0.9996292014154129,-0.0076976990282011035,-0.025423617332688556,0.021060000000000002,0.01933,-0.00768,2.6349,0.5576,-11.0676,4.596390207983852,10.281849111847398,12.989999771118164,12.809999465942383,12.880000114440918,12.969999313354492,10.54799958194584,10.401837674540293,10.458678846527082,10.531759025837516,10.485068782212682,0.01976489522017216,1.399999976158142,34.45000076293945,0.0,0.0,0.0,0.0,0.0,snow covered,0.240811139345169,-9.06659126281738,100.0,469.849853515625
frame_00116.png,1769615730957025836,1769615730.9570258,42.30098380454199,-83.6977599633874,238.1982421875,-0.005856346679240788,-0.9996318961535366,-0.007499318577860766,-0.02540739295805778,0.015620000000000002,0.008940000000000002,-0.01207,2.4105000000000003,-0.6902,-10.1402,4.654481783535228,10.411796480861295,13.119999885559082,12.859999656677246,12.960000038146973,13.119999885559082,10.65356087347292,10.442438290418758,10.523639522175694,10.65356087347292,10.568299889885072,0.015031354993488205,1.399999976158142,34.650001525878906,0.0,0.0,0.0,0.0,0.0,snow covered,0.240811139345169,-9.06659126281738,100.0,469.849853515625
frame_00117.png,1769615730977844750,1769615730.9778447,42.30098380302017,-83.69776111180367,238.19483947753906,-0.005792483543248906,-0.9996324259487538,-0.0073898821857269256,-0.025433241387828657,0.012490000000000003,0.00286,-0.00101,1.7559,0.5852,-10.4107,4.702137128879398,10.518398629075483,13.279999732971191,13.25,13.149999618530273,13.25999927520752,10.783482224770147,10.759122165,10.677920933243065,10.767241668661823,10.74694174791876,0.021727938529685156,1.399999976158142,34.625,0.0,0.0,0.0,0.0,0.0,snow covered,0.240811139345169,-9.06659126281738,100.0,469.849853515625
frame_00118.png,1769615730998231393,1769615730.9982314,42.300983796658755,-83.69776226356682,238.19131469726562,-0.005707507399173418,-0.9996336453941479,-0.007079472398736712,-0.02549275241810857,0.031000000000000003,-0.006620000000000001,-0.00956,2.1672000000000002,-0.1709,-10.5751,4.7560768979156585,10.639058656023455,13.399999618530273,13.420000076293945,13.34000015258789,13.380000114440918,10.880923238243065,10.897163794351389,10.832203118702774,10.86468345652708,10.868743401956078,0.021588822221840435,1.5,34.625,0.0,0.0,0.0,0.0,0.0,snow covered,0.240811139345169,-9.06659126281738,100.0,469.849853515625
frame_00119.png,1769615731019037765,1769615731.0190377,42.300983795445816,-83.6977634280745,238.18856811523438,-0.005616694143898538,-0.99963157787411,-0.007021620709532682,-0.025609726793200695,-0.0016500000000000002,-0.015300000000000001,-0.00461,1.7991000000000001,-0.5679000000000001,-9.9567,4.811769594670223,10.76363987710161,13.59000015258789,13.519999504089355,13.4399995803833,13.449999809265137,11.035205423702774,10.978364251715986,10.91340357606737,10.921523854121533,10.962124276401916,0.018440267564372698,1.5,34.95000076293945,0.0,0.0,0.0,0.0,0.0,snow covered,0.240811139345169,-9.06659126281738,100.0,469.849853515625
frame_00120.png,1769615731039539718,1769615731.0395398,42.30098378991647,-83.69776461558182,238.18621826171875,-0.005581912583902061,-0.9996270713112669,-0.00693533056399805,-0.025815920350298494,0.015460000000000002,-0.026350000000000005,-0.00491,1.7847000000000002,0.7831,-10.773900000000001,4.861652827606964,10.875225676187123,13.799999237060547,13.460000038146973,13.519999504089355,13.609999656677246,11.20572661648613,10.929644132175694,10.978364251715986,11.051445205418759,11.041295051449142,0.01527043026110731,1.5,35.17499923706055,0.0,0.0,0.0,0.0,0.0,snow covered,0.240811139345169,-9.06659126281738,100.0,469.849853515625
frame_00121.png,1769615731060276110,1769615731.0602763,42.30098378332688,-83.69776580745086,238.18356323242188,-0.005464012806469743,-0.9996221917847514,-0.006912074682803127,-0.02603538897501097,-0.00638,-0.029580000000000002,-0.006430000000000001,2.2154000000000003,-1.0272000000000001,-11.2491,4.914867394555471,10.994263469576916,13.829999923706055,13.609999656677246,13.649999618530273,13.789999961853027,11.230087450648613,11.051445205418759,11.083925543243065,11.197607112824306,11.140766328033687,0.013325390906100255,1.5,35.10000228881836,0.0,0.0,0.0,0.0,0.0,snow covered,0.240811139345169,-9.06659126281738,100.0,469.849853515625
frame_00122.png,1769615731081031432,1769615731.0810313,42.30098377977533,-83.69776701009937,238.18209838867188,-0.005377712372149957,-0.9996079184313202,-0.006861967523793748,-0.02660832615456948,0.014630000000000002,-0.03128000000000001,-0.013660000000000002,1.6636000000000002,0.7777000000000001,-10.524000000000001,4.986463078124962,11.154418717980853,13.84000015258789,13.679999351501465,14.019999504089355,14.170000076293945,11.238207728702776,11.108285603013211,11.384368861715986,11.506170709351387,11.30925822569584,0.01388145017950483,1.600000023841858,35.20000076293945,0.0,0.0,0.0,0.0,0.0,snow covered,0.240811139345169,-9.06659126281738,100.0,469.849853515625
frame_00123.png,1769615731101724502,1769615731.1017244,42.30098377435897,-83.69776823403369,238.18008422851562,-0.005200106345789602,-0.9996041677126568,-0.006742133644124737,-0.026814369643981564,0.005420000000000001,-0.00987,-0.014600000000000004,2.1215,-0.9306000000000001,-9.066,5.030699813776666,11.253373641429576,13.960000038146973,13.809999465942383,14.489999771118164,13.949999809265137,11.335648742175692,11.213846894540291,11.76601341194584,11.327528464121533,11.41075937819584,0.013985649262266042,1.600000023841858,34.97500228881836,0.0,0.0,0.0,0.0,0.0,snow covered,0.240811139345169,-9.06659126281738,100.0,469.849853515625
frame_00124.png,1769615731122800916,1769615731.1228008,42.30098376817961,-83.69776946144752,238.17825317382812,-0.005073287723207699,-0.9995955689412748,-0.006919656115887763,-0.02711233416518883,-0.029490000000000002,-0.02237,-0.011000000000000001,1.9771,-1.9273,-9.1869,5.083709033179608,11.371952084680794,14.199999809265137,13.989999771118164,14.769999504089355,14.079999923706055,11.530530769121533,11.36000880194584,11.993375776715984,11.433089755648613,11.579251275857992,0.018228989150987644,1.600000023841858,35.125,0.0,0.0,0.0,0.0,0.0,snow covered,0.240811139345169,-9.06659126281738,100.0,469.849853515625
frame_00125.png,1769615731184909911,1769615731.1849098,42.3009837295309,-83.69777321112963,238.17092895507812,-0.004835984302047237,-0.9995779163723649,-0.008501471158439319,-0.027355572460726455,-0.07419,0.00787,-0.004350000000000001,1.1779,-1.8055,-9.466000000000001,5.2205897892437845,11.678146123150992,14.589999198913574,14.489999771118164,14.65999984741211,14.809999465942383,11.847213869310437,11.76601341194584,11.904055041297227,12.025856114540291,11.885784609273449,0.017780089744795235,1.100000023841858,35.10000228881836,0.0,0.0,0.0,0.0,0.0,snow covered,0.240811139345169,-9.06659126281738,100.0,469.849853515625
frame_00126.png,1769615731205120357,1769615731.2051203,42.30098371708737,-83.697774483483,238.16806030273438,-0.004969800473007492,-0.9995726582617975,-0.009178826879387841,-0.027304781189756096,-0.05731000000000001,-0.0035300000000000006,0.016100000000000003,1.9919,1.7828000000000002,-8.7591,5.270340858816581,11.789436280721164,14.710000038146973,14.65999984741211,14.699999809265137,14.729999542236328,11.944655657175694,11.904055041297227,11.936535379121532,11.96089543889168,11.936535379121533,0.012477195253255264,0.9000000357627869,35.025001525878906,0.0,0.0,0.0,0.0,0.0,snow covered,0.240811139345169,-9.06659126281738,100.0,469.849853515625
frame_00127.png,1769615731226196026,1769615731.226196,42.30098370351876,-83.6977757736984,238.16415405273438,-0.004769547740186565,-0.9995763573399719,-0.009343470766110388,-0.027148790310986225,-0.014510000000000002,0.019770000000000003,-0.01675,1.5522,-0.2064,-9.7682,5.309661617703446,11.877394459105547,14.789999961853027,14.960000038146973,14.960000038146973,14.880000114440918,12.009616332824306,12.147657962175694,12.147657962175694,12.082697286527083,12.096907385925693,0.018481572501101964,0.5,34.95000076293945,0.0,0.0,0.0,0.0,0.0,snow covered,0.240811139345169,-9.06659126281738,100.0,469.849853515625
frame_00128.png,1769615731246571414,1769615731.2465715,42.30098368760059,-83.6977770671354,238.16001892089844,-0.004810517450281494,-0.9995808102723271,-0.009499449634150047,-0.026922539141516308,-0.013690000000000003,0.011320000000000002,0.005460000000000001,2.2999,-0.1373,-9.1536,5.36032506642458,11.9907255540878,15.039999961853027,15.039999961853027,15.00999927520752,15.0,12.212618637824306,12.212618637824306,12.188257803661823,12.180138300000001,12.19840834482761,0.017320285565956255,0.10000000149011612,34.875,0.0,0.0,0.0,0.0,0.0,snow covered,0.240811139345169,-9.06659126281738,100.0,469.849853515625
frame_00129.png,1769615731267351804,1769615731.2673519,42.30098367458813,-83.6977783694045,238.1561279296875,-0.004728393432726631,-0.999583949061494,-0.009724920567700022,-0.02673942770752326,-0.02594,0.013950000000000002,-7.000000000000002e-05,1.3806,1.0030000000000001,-9.584800000000001,5.403000242715009,12.086187362938912,15.329999923706055,15.380000114440918,15.229999542236328,15.359999656677246,12.448101280648613,12.48870189652708,12.36690004889168,12.472461340418759,12.444041141621533,0.029608491738258497,-0.30000001192092896,34.875,0.0,0.0,0.0,0.0,0.0,snow covered,0.240811139345169,-9.06659126281738,100.0,469.849853515625
frame_00130.png,1769615731288056902,1769615731.2880569,42.30098366263763,-83.69777969417669,238.15126037597656,-0.00474694672923276,-0.9995926184908522,-0.009670699080206666,-0.026429928767424903,0.011630000000000001,0.013260000000000003,-0.00319,2.4715000000000003,0.1852,-9.355400000000001,5.455351007722414,12.203292883214578,15.34999942779541,15.559999465942383,15.559999465942383,15.539999961853027,12.464341062364598,12.634863029540291,12.634863029540291,12.618623247824306,12.58817259231737,0.031539004495433176,-0.800000011920929,34.85000228881836,0.0,0.0,0.0,0.0,0.0,snow covered,0.240811139345169,-9.06659126281738,100.0,469.849853515625
frame_00131.png,1769615731308516213,1769615731.308516,42.30098364569599,-83.69778101875922,238.14651489257812,-0.004663485675474145,-0.9995972264312285,-0.009855953476007503,-0.026201087638273998,-0.029140000000000003,0.01667,0.006960000000000001,1.0854000000000001,0.5964,-9.2102,5.496779773952895,12.29596654754619,15.65999984741211,15.559999465942383,15.59999942779541,15.649999618530273,12.716064261297227,12.634863029540291,12.667343367364598,12.707943983243066,12.681553660361295,0.03135882903748258,-1.100000023841858,34.875,0.0,0.0,0.0,0.0,0.0,snow covered,0.240811139345169,-9.06659126281738,100.0,469.849853515625
frame_00132.png,1769615731329752431,1769615731.3297522,42.30098363435814,-83.69778235748583,238.1418914794922,-0.004700542511854145,-0.9996047221743318,-0.009898143267525934,-0.02589075253302916,0.0036200000000000004,0.014010000000000002,-0.009380000000000001,2.3505000000000003,0.7537,-9.2371,5.548255853046783,12.41111544791447,15.549999237060547,15.899999618530273,15.719999313354492,15.65999984741211,12.62674275148613,12.910946288243066,12.764784380837519,12.716064261297227,12.754634420465985,0.027678331894756356,-1.399999976158142,34.70000076293945,0.0,0.0,0.0,0.0,0.0,snow covered,0.240811139345169,-9.06659126281738,100.0,469.849853515625
frame_00133.png,1769615731350036632,1769615731.3500366,42.30098363228842,-83.69778371035854,238.13673400878906,-0.004736060992771574,-0.9996114555364692,-0.009907713526176283,-0.0256192290910053,0.00030000000000000003,0.03011,0.00787,0.4687,1.3395000000000001,-9.0518,5.579238462372125,12.480421686018701,15.819999694824219,15.869999885559082,15.829999923706055,15.859999656677246,12.845985612594452,12.88658622847292,12.854105890648613,12.878465950418759,12.866285920533686,0.030917563863026572,-1.5,34.85000228881836,0.0,0.0,0.0,0.0,0.0,snow covered,0.240811139345169,-9.06659126281738,100.0,469.849853515625
frame_00134.png,1769615731370693773,1769615731.370694,42.300983630298525,-83.69778506845076,238.13157653808594,-0.004671821813342304,-0.999625600215863,-0.009714609668589811,-0.025148754104471507,0.010610000000000003,0.024300000000000002,-0.011230000000000002,1.6315000000000002,0.28200000000000003,-10.9902,5.647873770673596,12.633954752570594,16.579999923706055,16.19999885559082,15.929999351501465,15.829999923706055,13.463112805648613,13.154548434729195,12.93530634801321,12.854105890648613,13.101768369759906,0.037028280245671126,-1.7000000476837158,34.95000076293945,0.0,0.0,0.0,0.0,0.0,snow covered,0.240811139345169,-9.06659126281738,100.0,469.849853515625
frame_00135.png,1769615731391447921,1769615731.3914478,42.300983624669385,-83.69778643576021,238.12696838378906,-0.004725581722457351,-0.9996345456747666,-0.009543074329309325,-0.024847005922900667,0.016960000000000003,0.016770000000000004,-0.0034100000000000007,2.8739000000000003,0.2459,-10.683200000000001,5.703132002076645,12.75756410072533,16.209999084472656,16.389999389648438,15.779999732971191,15.9399995803833,13.162668712783356,13.308830620188905,12.813505274770145,12.943426626067373,13.057107808452445,0.023479694506107446,-1.8000000715255737,35.32500076293945,0.0,0.0,0.0,0.0,0.0,snow covered,0.240811139345169,-9.06659126281738,100.0,469.849853515625
frame_00136.png,1769615731412600924,1769615731.4126008,42.30098362515228,-83.69778782467706,238.1223602294922,-0.004587665229787819,-0.9996383797785318,-0.009367493602473553,-0.0247853397212719,0.019420000000000003,-0.0005300000000000001,-0.00604,-0.0173,1.2875,-10.0517,5.73137690981935,12.820746264651296,15.949999809265137,16.440000534057617,16.059999465942383,16.06999969482422,12.951546904121534,13.34943201045971,13.040867639540291,13.048987917594452,13.097708617928996,0.021602670200355348,-1.600000023841858,35.275001525878906,0.0,0.0,0.0,0.0,0.0,snow covered,0.240811139345169,-9.06659126281738,100.0,469.849853515625
frame_00137.png,1769615731433419958,1769615731.43342,42.300983628818166,-83.69778920631973,238.1175994873047,-0.004483887343228244,-0.9996520372559554,-0.009009983329221934,-0.024382767782151066,0.04032000000000001,0.01631,-0.02492,1.9533,1.1067,-9.8713,5.769285462258886,12.905545421945394,16.28999900817871,16.40999984741211,16.1299991607666,16.19999885559082,13.22762938843197,13.325071176297227,13.097708037134742,13.154548434729195,13.201239259148283,0.02291215346079617,-1.5,35.025001525878906,0.0,0.0,0.0,0.0,0.0,snow covered,0.240811139345169,-9.06659126281738,100.0,469.849853515625
frame_00138.png,1769615731474405652,1769615731.4744055,42.3009836368645,-83.69779201250543,238.10922241210938,-0.004133804291069577,-0.999685441667493,-0.0076202716854701594,-0.02353424822662027,0.07177000000000001,0.06348000000000001,-0.028660000000000005,-0.06910000000000001,-0.0205,-9.0403,5.810966353403207,12.99878307458177,17.6299991607666,17.06999969482422,16.59000015258789,16.549999237060547,14.315721867134743,13.860997137594453,13.471233083702774,13.43875197148613,13.771676014979523,0.05945886903129358,-1.5,36.025001525878906,0.0,0.0,0.0,0.0,0.0,snow covered,0.240811139345169,-9.06659126281738,100.0,469.849853515625
frame_00139.png,1769615731494836928,1769615731.494837,42.30098364627496,-83.69779342110834,238.10484313964844,-0.004001440879780827,-0.999710650052938,-0.006874258971760814,-0.022701304041989924,0.07429000000000001,0.10455000000000002,-0.027090000000000003,2.0,0.22290000000000001,-10.0578,5.843002729487001,13.070446525698653,17.78999900817871,17.56999969482422,16.619998931884766,16.600000381469727,14.445643218431968,14.267001747594453,13.495592369080581,13.479353361756935,13.921897674215984,0.06514323338864035,-1.2000000476837158,36.70000076293945,0.0,0.0,0.0,0.0,0.0,snow covered,0.240811139345169,-9.06659126281738,100.0,469.849853515625
frame_00140.png,1769615731515469562,1769615731.5154696,42.30098364754157,-83.69779484006038,238.10073852539062,-0.003603400502081578,-0.9997260013682878,-0.006487627851576902,-0.022200188689629242,0.023430000000000003,0.05598000000000001,-0.043280000000000006,1.463,-1.2534,-11.6879,5.8918283403926095,13.179666487757844,18.229999542236328,17.94999885559082,16.719999313354492,16.65999984741211,14.802927708891678,14.575564569729195,13.576793600837517,13.528073481297227,14.120839840188905,0.0714110143306954,-1.399999976158142,36.72500228881836,0.0,0.0,0.0,0.0,0.0,snow covered,0.240811139345169,-9.06659126281738,100.0,469.849853515625
frame_00141.png,1769615731536230643,1769615731.5362306,42.300983661764164,-83.6977977066595,238.09268188476562,-0.0033868995040780008,-0.9997442066786839,-0.006105833879254214,-0.021512064447589952,0.04813000000000001,0.07669000000000001,-0.026080000000000002,1.3201,0.746,-10.4539,5.916482703627108,13.234816819051623,18.969999313354492,18.15999984741211,16.65999984741211,16.619998931884766,15.403814345837517,14.746087311297225,13.528073481297227,13.495592369080581,14.293391876878138,0.07998411102318298,-1.399999976158142,36.67499923706055,0.0,0.0,0.0,0.0,0.0,snow covered,0.240811139345169,-9.06659126281738,100.0,469.849853515625
frame_00142.png,1769615731557045626,1769615731.5570455,42.30098366067993,-83.69779914988327,238.08932495117188,-0.0029467729870834574,-0.9997599106773338,-0.005879994529453225,-0.020901272586762786,0.006300000000000001,0.040650000000000006,-0.04224000000000001,1.228,-1.1757,-10.0059,5.961316405245303,13.335107119549429,19.779998779296875,18.479999542236328,16.829999923706055,16.90999984741211,16.061541380377808,15.005930013891678,13.666115110648613,13.731075786297227,14.616165572803832,0.09606660387274696,-1.5,36.79999923706055,0.0,0.0,0.0,0.0,0.0,snow covered,0.240811139345169,-9.06659126281738,100.0,469.849853515625
frame_00143.png,1769615731577931878,1769615731.577932,42.30098365948314,-83.69780061658258,238.08615112304688,-0.002755857944984175,-0.9997730436810044,-0.006001430220714993,-0.020254609626282893,-0.01818,0.04752000000000001,-0.02645,2.9516,-1.6762000000000001,-10.5706,6.0166567403551205,13.458900128769985,18.799999237060547,18.270000457763672,17.100000381469727,16.93000030517578,15.26577271648613,14.835408821108322,13.885357971756937,13.747316342405549,14.433463962939234,0.0724103622766324,-1.8000000715255737,36.57500076293945,0.0,0.0,0.0,0.0,0.0,snow covered,0.240811139345169,-9.06659126281738,100.0,469.849853515625
frame_00144.png,1769615731619142912,1769615731.619143,42.3009836467823,-83.69780355359563,238.0793914794922,-0.0025391966023995964,-0.9997955134925035,-0.006362177547083724,-0.019026465192855144,0.0021400000000000004,0.09375000000000001,-0.00515,1.8731,-0.1626,-9.179400000000001,6.08420866443419,13.610009729819417,17.84000015258789,18.529998779296875,17.309999465942383,17.25,14.486244608702776,15.046529855377807,14.055879164540292,14.007159045000002,14.39895316840522,0.05796788204032166,-2.4000000953674316,36.650001525878906,0.0,0.0,0.0,0.0,0.0,snow covered,0.240811139345169,-9.06659126281738,100.0,469.849853515625
frame_00145.png,1769615731639577592,1769615731.6395776,42.30098363293128,-83.69780504847498,238.07608032226562,-0.002530416551251025,-0.9998065356262489,-0.00636904654676373,-0.018437015951624253,-0.009680000000000001,0.06056000000000001,-0.010160000000000002,2.1072,-2.1341,-10.8674,6.136660690506246,13.727341765021043,18.600000381469727,18.350000381469727,17.329999923706055,17.440000534057617,15.103371801756936,14.900369496756936,14.072119720648613,14.161441230459708,14.559325562405549,0.060607786389095614,-2.6000001430511475,36.57500076293945,0.0,0.0,0.0,0.0,0.0,snow covered,0.240811139345169,-9.06659126281738,100.0,469.849853515625
frame_00146.png,1769615731660214389,1769615731.6602142,42.30098362723858,-83.69780654241613,238.0723419189453,-0.0025893282342958073,-0.9998139057316058,-0.006838449578101075,-0.017851747600017488,-0.05293000000000001,0.05306000000000001,0.019180000000000003,1.4325,-0.3804,-9.7334,6.175270016414378,13.813708510517978,18.78999900817871,18.369998931884766,17.559999465942383,17.56999969482422,15.25765243843197,14.916608504080582,14.258881469540292,14.267001747594453,14.675036039911824,0.06235309864385924,-3.200000047683716,36.45000076293945,0.0,0.0,0.0,0.0,0.0,snow covered,0.240811139345169,-9.06659126281738,100.0,469.849853515625
frame_00147.png,1769615731681032933,1769615731.681033,42.30098360217592,-83.69780804924383,238.069091796875,-0.0027337907722924664,-0.9998259808363185,-0.007297958923508701,-0.016949166004782877,-0.033760000000000005,0.06267000000000002,-0.004790000000000001,1.9249,-1.7267000000000001,-9.7695,6.23909800586352,13.956487893236343,17.969999313354492,17.94999885559082,17.649999618530273,17.40999984741211,14.591805125837517,14.575564569729195,14.331962423243066,14.137080396297227,14.409103128776751,0.032430453779117074,-3.4000000953674316,36.45000076293945,0.0,0.0,0.0,0.0,0.0,snow covered,0.240811139345169,-9.06659126281738,100.0,469.849853515625
frame_00148.png,1769615731702028695,1769615731.7020288,42.300983582905694,-83.69780957031944,238.0651397705078,-0.0030108691337189524,-0.9998345889346475,-0.007894367924272918,-0.016106160064415904,-0.06136000000000001,0.08701000000000002,0.0296,1.3884,-0.2457,-8.6233,6.266420042474193,14.017605649812223,18.25,18.229999542236328,17.68000030517578,17.719999313354492,14.819168265,14.802927708891678,14.356323257405549,14.388802820837519,14.591805513033686,0.04096276336816154,-4.099999904632568,36.54999923706055,0.0,0.0,0.0,0.0,0.0,snow covered,0.240811139345169,-9.06659126281738,100.0,469.849853515625
frame_00149.png,1769615731765398897,1769615731.7653987,42.30098352273204,-83.69781418999618,238.0545196533203,-0.003603647207788385,-0.9998505121179735,-0.009521755758361061,-0.013975096117949438,-0.04861000000000001,0.07437,0.01561,2.0698000000000003,0.9186000000000001,-9.9868,6.405472505545012,14.328657666553859,18.690000534057617,18.84000015258789,18.079999923706055,18.1299991607666,15.17645275545971,15.298253828702775,14.681126635648614,14.721726477134743,14.969389924236461,0.04471683758473816,-5.900000095367432,36.22500228881836,0.0,0.0,0.0,0.0,0.0,snow covered,0.240811139345169,-9.06659126281738,100.0,469.849853515625
frame_00150.png,1769615731784426217,1769615731.7844262,42.300983504997944,-83.69781574841235,238.0509490966797,-0.0037400944343985443,-0.999852806887769,-0.009897175010951016,-0.013506375497294847,-0.036270000000000004,0.034850000000000006,0.013840000000000002,2.5398,0.3845,-10.333300000000001,6.461107588039916,14.45311000799001,18.94999885559082,18.889999389648438,18.229999542236328,18.25,15.387573789729194,15.338853670188904,14.802927708891678,14.819168265,15.087130858452445,0.04386743407556815,-6.300000190734863,36.29999923706055,0.0,0.0,0.0,0.0,0.0,snow covered,0.240811139345169,-9.06659126281738,100.0,469.849853515625
frame_00151.png,1769615731805212835,1769615731.805213,42.300983484167226,-83.69781731637815,238.04750061035156,-0.0038537731123290953,-0.9998553675513493,-0.010184940476427626,-0.013063667136236771,-0.025660000000000002,0.04897000000000001,0.00949,1.6579000000000002,1.0888,-9.754800000000001,6.495777911433214,14.530665441201414,18.84000015258789,19.189998626708984,18.270000457763672,18.329999923706055,15.298253828702775,15.582455816675035,14.835408821108322,14.884128940648614,15.150061851783686,0.04262684411038644,-6.800000190734863,36.5,0.0,0.0,0.0,0.0,0.0,snow covered,0.240811139345169,-9.06659126281738,100.0,469.849853515625
frame_00152.png,1769615731846733063,1769615731.846733,42.30098347401635,-83.69782049344686,238.04049682617188,-0.004111350181862039,-0.9998711668394804,-0.00984950480852392,-0.011988902275219362,0.034440000000000005,0.05630000000000001,-0.0032800000000000004,2.3824,0.4727,-10.369900000000001,6.579717446125924,14.718433143936926,18.8799991607666,19.209999084472656,18.479999542236328,18.56999969482422,15.330733392134745,15.598696372783357,15.005930013891678,15.079010967594453,15.25359268660106,0.03635981747721472,-7.099999904632568,36.400001525878906,0.0,0.0,0.0,0.0,0.0,snow covered,0.240811139345169,-9.06659126281738,100.0,469.849853515625
frame_00153.png,1769615731867396809,1769615731.8673968,42.30098346477656,-83.69782208937038,238.0370330810547,-0.004160029580986491,-0.9998812320333917,-0.009405328565056086,-0.011478491880705663,0.047880000000000006,0.05750000000000001,0.007820000000000002,1.2785,0.506,-10.7674,6.608621014017195,14.783088691095625,19.100000381469727,19.1299991607666,19.059999465942383,18.84000015258789,15.509376411756936,15.533735697134745,15.476895299540292,15.298253828702775,15.454565309283687,0.045421943425971376,-7.099999904632568,36.60000228881836,0.0,0.0,0.0,0.0,0.0,snow covered,0.240811139345169,-9.06659126281738,100.0,469.849853515625
frame_00154.png,1769615731888125981,1769615731.888126,42.300983469676275,-83.69782370481066,238.0335235595703,-0.004239452943389566,-0.9998916901804145,-0.008996373841270956,-0.010848972513680985,0.04451000000000001,0.06359000000000001,0.0028000000000000004,1.8408,1.8764,-9.0593,6.651059659872082,14.878021395554256,19.139999389648438,19.25,18.520000457763672,18.920000076293945,15.541855975188904,15.631177485000002,15.038411126108322,15.363214504351387,15.393664772662152,0.03465806127029611,-7.099999904632568,36.375,0.0,0.0,0.0,0.0,0.0,snow covered,0.240811139345169,-9.06659126281738,100.0,469.849853515625
frame_00155.png,1769615731908677537,1769615731.9086776,42.300983476615926,-83.69782532186929,238.03042602539062,-0.004297417077669674,-0.9999023305370243,-0.008279408231490813,-0.010407352805794724,0.07781,0.032100000000000004,-0.0010500000000000002,2.2825,1.2509000000000001,-11.3519,6.698722917753281,14.984641243639027,19.270000457763672,19.28999900817871,18.989999771118164,19.020000457763672,15.647418041108322,15.663657048431968,15.42005490194584,15.444415736108322,15.543886431898613,0.037321226392189114,-7.099999904632568,36.29999923706055,0.0,0.0,0.0,0.0,0.0,snow covered,0.240811139345169,-9.06659126281738,100.0,469.849853515625
frame_00156.png,1769615731929358141,1769615731.929358,42.3009834750102,-83.69782694752779,238.02767944335938,-0.004209458591194426,-0.9999127734900997,-0.007496656751002497,-0.01002626586836986,0.06645000000000001,0.04027000000000001,-0.009340000000000003,1.6078000000000001,-0.9454,-12.9115,6.73045649654971,15.055627355391909,19.469999313354492,19.369998931884766,19.03999900817871,18.760000228881836,15.809818955837516,15.728617724080582,15.46065474343197,15.233293153054163,15.558096144101057,0.03337415152807948,-7.0,36.5,0.0,0.0,0.0,0.0,0.0,snow covered,0.240811139345169,-9.06659126281738,100.0,469.849853515625
frame_00157.png,1769615731950273722,1769615731.9502738,42.30098348545952,-83.69782859099716,238.02667236328125,-0.004271842850440966,-0.999917949094997,-0.006876076427156575,-0.009928041563375274,0.067,0.007240000000000001,0.00013000000000000002,1.3055,0.8798,-13.0363,6.765072990749672,15.13306237592757,19.78999900817871,19.389999389648438,19.34000015258789,19.209999084472656,16.06966165843197,15.744858280188904,15.704258438702775,15.598696372783357,15.779368687526752,0.04270823020113047,-6.900000095367432,36.5,0.0,0.0,0.0,0.0,0.0,snow covered,0.240811139345169,-9.06659126281738,100.0,469.849853515625
frame_00158.png,1769615731970791740,1769615731.9707916,42.30098349308176,-83.69783023675024,238.02542114257812,-0.004304375412341577,-0.9999223050342165,-0.006150765974035507,-0.009951096688395148,0.046040000000000005,-0.006860000000000001,0.005320000000000001,1.3656000000000001,0.24880000000000002,-10.584100000000001,6.8208007815682095,15.25772210032119,19.899999618530273,19.469999313354492,19.619998931884766,19.25,16.158983168243065,15.809818955837516,15.931620029080582,15.631177485000002,15.882899909540292,0.04097451802493773,-6.900000095367432,36.45000076293945,0.0,0.0,0.0,0.0,0.0,snow covered,0.240811139345169,-9.06659126281738,100.0,469.849853515625
frame_00159.png,1769615731991357068,1769615731.991357,42.30098349126072,-83.69783189077329,238.02529907226562,-0.004314344969419293,-0.9999213105761822,-0.006060005682364002,-0.010101258051599176,-0.008640000000000002,-0.019930000000000003,-0.0048600000000000015,1.8304,-1.4463000000000001,-11.386700000000001,6.8624011188540495,15.350779558809378,19.779998779296875,19.81999969482422,19.979999542236328,19.260000228881836,16.061541380377808,16.094022492594455,16.22394384389168,15.639297763054161,16.004701369979525,0.042598606061988516,-6.900000095367432,36.625,0.0,0.0,0.0,0.0,0.0,snow covered,0.240811139345169,-9.06659126281738,100.0,469.849853515625
frame_00160.png,1769615732012675442,1769615732.0126753,42.30098349451459,-83.69783356160688,238.02593994140625,-0.004386752386218884,-0.9999174841846914,-0.006281778518790692,-0.010311182468566653,-0.01974,-0.02253,0.007960000000000002,2.181,0.6368,-10.943000000000001,6.900345415484217,15.435658673713267,19.729999542236328,19.869998931884766,19.93000030517578,19.739999771118164,16.020941538891677,16.134622334080582,16.183344002405548,16.029061816945838,16.09199242308091,0.04252061821536464,-6.900000095367432,36.45000076293945,0.0,0.0,0.0,0.0,0.0,snow covered,0.240811139345169,-9.06659126281738,100.0,469.849853515625
frame_00161.png,1769615732034614709,1769615732.0346148,42.30098350250318,-83.69783523531704,238.0264892578125,-0.004458006943208859,-0.9999157108423563,-0.006181631782210856,-0.010511175634965005,0.01794,-0.013880000000000002,-0.00048,2.0507,-0.1278,-9.9049,6.940773665861184,15.526094244111517,20.010000228881836,19.81999969482422,19.549999237060547,19.829999923706055,16.24830467805416,16.094022492594455,15.874779631486131,16.102142770648612,16.07981239319584,0.03566371170871442,-6.800000190734863,36.29999923706055,0.0,0.0,0.0,0.0,0.0,snow covered,0.240811139345169,-9.06659126281738,100.0,469.849853515625
frame_00162.png,1769615732074425919,1769615732.074426,42.30098349759136,-83.69783862206242,238.02928161621094,-0.00461072488987363,-0.9999031721673572,-0.006238499513456251,-0.011552862392783412,-0.013150000000000002,-0.05859,0.007360000000000001,1.9269,-1.0162,-10.8835,7.026734677479499,15.718383869440993,20.010000228881836,20.09000015258789,19.850000381469727,19.739999771118164,16.24830467805416,16.313265353702775,16.118383326756934,16.029061816945838,16.177253793864928,0.029193200028410676,-6.700000286102295,36.400001525878906,0.0,0.0,0.0,0.0,0.0,snow covered,0.240811139345169,-9.06659126281738,100.0,469.849853515625
frame_00163.png,1769615732094939893,1769615732.09494,42.30098350568516,-83.6978403252646,238.0304412841797,-0.004880585773004431,-0.9998948899757716,-0.006329593066347479,-0.012096492651443455,0.00116,-0.0483,0.018280000000000005,1.2305000000000001,0.8744000000000001,-8.7897,7.055243669803202,15.782156774729575,20.219999313354492,20.139999389648438,20.0,20.0,16.41882587083752,16.353865195188906,16.2401844,16.2401844,16.31326496650661,0.033652446833340594,-6.599999904632568,36.47500228881836,0.0,0.0,0.0,0.0,0.0,snow covered,0.240811139345169,-9.06659126281738,100.0,469.849853515625
frame_00164.png,1769615732115528973,1769615732.115529,42.30098349695103,-83.69784203767732,238.0320281982422,-0.005082185417581875,-0.9998877596192202,-0.006288921513550157,-0.01261304964051539,-0.00807,-0.05944000000000001,0.010840000000000002,1.8509,-2.0509,-9.3384,7.095556932010226,15.872335123490956,20.529998779296875,20.189998626708984,20.03999900817871,20.049999237060547,16.670548295377806,16.394465036675037,16.27266396343197,16.28078424148613,16.404615384242735,0.0335350946543466,-6.599999904632568,36.29999923706055,0.0,0.0,0.0,0.0,0.0,snow covered,0.240811139345169,-9.06659126281738,100.0,469.849853515625
frame_00165.png,1769615732136672071,1769615732.136672,42.30098350088006,-83.69784549365876,238.03488159179688,-0.005329824454149923,-0.9998738358125399,-0.006836265203445328,-0.013310556219556532,-0.06176000000000001,-0.07531000000000002,0.030470000000000004,1.4958,-0.2859,-11.693200000000001,7.1327532240294085,15.955540996960346,20.549999237060547,20.369998931884766,20.170000076293945,19.989999771118164,16.68678885148613,16.540626944080582,16.37822602935139,16.23206412194584,16.459426486715984,0.031580595722303074,-6.599999904632568,36.67499923706055,0.0,0.0,0.0,0.0,0.0,snow covered,0.240811139345169,-9.06659126281738,100.0,469.849853515625
frame_00166.png,1769615732156968322,1769615732.1569684,42.30098348384229,-83.69784723188432,238.03622436523438,-0.005663420725098123,-0.9998623816498987,-0.007161524864375394,-0.013851208925560885,-0.02781,-0.04274000000000001,0.02086,1.8411000000000002,-0.17750000000000002,-9.2492,7.1664020823855745,16.03081147417159,20.520000457763672,20.369998931884766,20.18000030517578,20.229999542236328,16.662429566108322,16.540626944080582,16.38634630740555,16.426946148891677,16.50408724162153,0.029522882744424397,-6.599999904632568,36.29999923706055,0.0,0.0,0.0,0.0,0.0,snow covered,0.240811139345169,-9.06659126281738,100.0,469.849853515625
frame_00167.png,1769615732177775850,1769615732.1777759,42.30098347700502,-83.69784898473354,238.03628540039062,-0.006002068161648222,-0.9998529131200289,-0.007531083209633811,-0.014191902228542238,-0.03950000000000001,-0.01837,0.030160000000000003,0.9893000000000001,-0.4912,-6.7313,7.191275650509328,16.086452153650338,20.600000381469727,20.44999885559082,20.549999237060547,20.600000381469727,16.727390241756936,16.605587619729196,16.68678885148613,16.727390241756936,16.686789238682298,0.03731942129301216,-6.599999904632568,36.275001525878906,0.0,0.0,0.0,0.0,0.0,snow covered,0.240811139345169,-9.06659126281738,100.0,469.849853515625
frame_00168.png,1769615732198440610,1769615732.1984408,42.300983473804024,-83.69785073667238,238.03672790527344,-0.0062658749574784345,-0.99983999181326,-0.008209896793893641,-0.01460572410088281,-0.07881,-0.04510000000000001,0.027440000000000003,1.2552,-0.6389,-7.4537,7.230783274286765,16.174828337583037,20.799999237060547,20.56999969482422,20.56999969482422,20.75,16.88979115648613,16.703029407594453,16.703029407594453,16.849191315,16.78626032166876,0.03780145120087793,-6.599999904632568,36.47500228881836,0.0,0.0,0.0,0.0,0.0,snow covered,0.240811139345169,-9.06659126281738,100.0,469.849853515625
frame_00169.png,1769615732219027561,1769615732.2190275,42.30098345551409,-83.69785249767351,238.03594970703125,-0.0066859173774631575,-0.9998288381006102,-0.008867708221348067,-0.014797187641802344,-0.055490000000000005,-0.018150000000000003,0.03577,1.1169,1.2224000000000002,-8.501800000000001,7.256975141175474,16.233417972301066,20.78999900817871,20.719999313354492,20.68000030517578,20.869998931884766,16.88167087843197,16.824830480837516,16.79235091740555,16.946631554080582,16.861370957688905,0.03868273375695186,-6.599999904632568,36.35000228881836,0.0,0.0,0.0,0.0,0.0,snow covered,0.240811139345169,-9.06659126281738,100.0,469.849853515625
frame_00170.png,1769615732240045000,1769615732.240045,42.3009834507928,-83.69785427258829,238.03448486328125,-0.006999916795678518,-0.9998227380868293,-0.009188442941741858,-0.014868291284311073,-0.030430000000000006,-0.009830000000000002,0.02476,1.5635000000000001,-0.016300000000000002,-9.122200000000001,7.292105809261638,16.31200316896973,20.75,20.84000015258789,20.549999237060547,20.869998931884766,16.849191315,16.922272268702773,16.68678885148613,16.946631554080582,16.85122099731737,0.033056505860260654,-6.599999904632568,36.35000228881836,0.0,0.0,0.0,0.0,0.0,snow covered,0.240811139345169,-9.06659126281738,100.0,469.849853515625
frame_00171.png,1769615732260368943,1769615732.2603688,42.300983449759876,-83.69785604754632,238.0330352783203,-0.007323867645883886,-0.9998159952746939,-0.00953943472764374,-0.01494442172369588,-0.032630000000000006,-0.0089,0.031560000000000005,1.3241,0.6266,-9.8491,7.32450613859003,16.38448076165758,20.920000076293945,20.969999313354492,20.60999870300293,20.78999900817871,16.987232944351387,17.027832785837518,16.735508971026423,16.88167087843197,16.908061394911826,0.03195588806692676,-6.599999904632568,36.45000076293945,0.0,0.0,0.0,0.0,0.0,snow covered,0.240811139345169,-9.06659126281738,100.0,469.849853515625
frame_00172.png,1769615732281046710,1769615732.2810469,42.30098343674601,-83.69785783237441,238.03167724609375,-0.007833153551160599,-0.9998110419072677,-0.009636736485831906,-0.014955116036009004,0.006910000000000001,0.004790000000000001,0.030900000000000004,1.7867000000000002,0.9668,-9.5952,7.377572175386515,16.503186302009112,21.279998779296875,21.09000015258789,20.719999313354492,20.889999389648438,17.279555210377808,17.125274573702775,16.824830480837516,16.962872110188904,17.048133093776748,0.03302070168724288,-6.5,36.375,0.0,0.0,0.0,0.0,0.0,snow covered,0.240811139345169,-9.06659126281738,100.0,469.849853515625
frame_00173.png,1769615732301954702,1769615732.3019547,42.30098343700923,-83.69785963227572,238.0300750732422,-0.008147784736517505,-0.9998075519978809,-0.009650566736277053,-0.01501130019554772,-0.006490000000000001,-0.00425,0.023770000000000003,1.0681,-0.08710000000000001,-9.3294,7.4120557852205335,16.58032406819122,21.35999870300293,21.170000076293945,20.81999969482422,20.93000030517578,17.34451588602642,17.190235249351385,16.90603171259445,16.995353222405548,17.109034017594453,0.03188779346101831,-6.400000095367432,36.275001525878906,0.0,0.0,0.0,0.0,0.0,snow covered,0.240811139345169,-9.06659126281738,100.0,469.849853515625
frame_00174.png,1769615732322604393,1769615732.3226042,42.3009834408098,-83.69786143073634,238.0287628173828,-0.008495095180482026,-0.9998047903217746,-0.009729888245459388,-0.014951383957276012,-0.00393,0.009670000000000002,0.030330000000000006,1.3225,1.4415,-9.980500000000001,7.43951138276141,16.64174059255431,21.459999084472656,21.389999389648438,20.939998626708984,20.989999771118164,17.425717117783357,17.368876720188904,17.003471951675035,17.04407334194584,17.210534782898286,0.03417876797084917,-6.300000190734863,36.29999923706055,0.0,0.0,0.0,0.0,0.0,snow covered,0.240811139345169,-9.06659126281738,100.0,469.849853515625
frame_00175.png,1769615732343280621,1769615732.3432806,42.3009834318775,-83.69786324030696,238.02735900878906,-0.008706239029440233,-0.9998035660324595,-0.009692400523238984,-0.014936134802436855,-2e-05,0.00034,0.02074,1.6815,-0.0434,-10.102,7.480062955190255,16.73245202698329,21.56999969482422,21.1299991607666,21.03999900817871,21.15999984741211,17.515038627594453,17.157754137134745,17.08467318343197,17.182114971297228,17.2348952298646,0.030028067737535028,-6.200000286102295,36.47500228881836,0.0,0.0,0.0,0.0,0.0,snow covered,0.240811139345169,-9.06659126281738,100.0,469.849853515625
frame_00176.png,1769615732366162066,1769615732.366162,42.3009834334765,-83.69786506115979,238.0260009765625,-0.00898592520375624,-0.9997983267077406,-0.009979688080732671,-0.01493200878802022,-0.037290000000000004,0.004790000000000001,0.02603,0.6548,-0.1368,-9.8483,7.502487980138728,16.782615462291528,21.65999984741211,21.75,21.19999885559082,21.219999313354492,17.588119581297228,17.661200535000003,17.214594534729194,17.230835090837516,17.423687435465986,0.038198573673744025,-6.200000286102295,36.10000228881836,0.0,0.0,0.0,0.0,0.0,snow covered,0.240811139345169,-9.06659126281738,100.0,469.849853515625
frame_00177.png,1769615732384996813,1769615732.384997,42.30098344148903,-83.69786688910033,238.02491760253906,-0.009238258981362046,-0.9997922216487503,-0.010290915044762806,-0.014975485607852388,-0.022180000000000002,-0.018480000000000003,0.015300000000000001,2.7576,1.8867,-11.047500000000001,7.5554925898298455,16.901183593893975,21.84000015258789,22.34000015258789,21.229999542236328,21.219999313354492,17.734281488702777,18.140286098702774,17.23895536889168,17.230835090837516,17.586089511783687,0.04052413927608909,-6.099999904632568,36.375,0.0,0.0,0.0,0.0,0.0,snow covered,0.240811139345169,-9.06659126281738,100.0,469.849853515625
frame_00178.png,1769615732405313610,1769615732.4053135,42.30098343593338,-83.69786872617722,238.0242462158203,-0.009398980970782955,-0.9997849281936597,-0.010244962107581088,-0.015388218380418222,0.006490000000000001,-0.04999000000000001,0.016190000000000003,1.9162000000000001,-0.1632,-11.412600000000001,7.605374571540569,17.01276659406196,21.829999923706055,21.93000030517578,21.28999900817871,21.40999984741211,17.726161210648613,17.807362442405548,17.28767548843197,17.385117276297226,17.55157910444584,0.031671069335186285,-6.099999904632568,36.150001525878906,0.0,0.0,0.0,0.0,0.0,snow covered,0.240811139345169,-9.06659126281738,100.0,469.849853515625
frame_00179.png,1769615732426116366,1769615732.4261165,42.30098344285068,-83.69787057792975,238.02410888671875,-0.009667300722708883,-0.9997745601134811,-0.010387173649131548,-0.01579490013311495,-0.016730000000000002,-0.032760000000000004,0.021370000000000004,0.7754000000000001,0.5675,-10.0372,7.628382531678992,17.064234020414005,22.029998779296875,21.619998931884766,21.350000381469727,21.479999542236328,17.88856212537781,17.55563846908058,17.336397156756938,17.44195767389168,17.55563885627675,0.028797356815130175,-5.900000095367432,36.17499923706055,0.0,0.0,0.0,0.0,0.0,snow covered,0.240811139345169,-9.06659126281738,100.0,469.849853515625
frame_00180.png,1769615732446721855,1769615732.4467218,42.30098345385829,-83.69787243481913,238.02383422851562,-0.009867987447225945,-0.9997674488559405,-0.010357487294710713,-0.016136712452223916,0.012450000000000001,-0.031540000000000006,0.012480000000000002,1.6875,0.6758000000000001,-9.3018,7.663044766480823,17.141771359931614,22.10999870300293,21.719999313354492,21.68000030517578,21.65999984741211,17.953522801026423,17.63683970083752,17.60436013740555,17.588119581297228,17.69571055514168,0.03231516647718701,-5.900000095367432,35.97500228881836,0.0,0.0,0.0,0.0,0.0,snow covered,0.240811139345169,-9.06659126281738,100.0,469.849853515625
frame_00181.png,1769615732467494524,1769615732.4674945,42.30098344998811,-83.69787429876412,238.0234375,-0.01004695385510107,-0.9997576466577801,-0.010476686505103866,-0.016551305308176983,-0.027410000000000004,-0.04394000000000001,0.021830000000000006,1.5789,-1.0212,-8.9933,7.70534891815384,17.23640320897505,21.920000076293945,22.219999313354492,21.779998779296875,21.850000381469727,17.799242164351387,18.042844310837516,17.685559820377808,17.742401766756934,17.81751201558091,0.03371404112334021,-5.599999904632568,36.10000228881836,0.0,0.0,0.0,0.0,0.0,snow covered,0.240811139345169,-9.06659126281738,100.0,469.849853515625
frame_00182.png,1769615732488132743,1769615732.488133,42.30098345710679,-83.6978761727967,238.02236938476562,-0.010300539702210787,-0.9997457240166511,-0.01085239622006861,-0.016870438303366046,-0.03202000000000001,-0.025900000000000006,0.020420000000000004,0.3184,1.2039,-8.5517,7.721105637143541,17.271650043951873,22.809999465942383,22.889999389648438,21.90999984741211,21.920000076293945,18.52192987454029,18.5868905501889,17.791121886297226,17.799242164351387,18.17479611884445,0.0522906654890706,-5.400000095367432,35.82500076293945,0.0,0.0,0.0,0.0,0.0,snow covered,0.240811139345169,-9.06659126281738,100.0,469.849853515625
frame_00183.png,1769615732508751848,1769615732.5087519,42.300983466670154,-83.69787805324833,238.02146911621094,-0.010509424835705772,-0.9997429944146189,-0.010763942763116648,-0.016959794948832114,0.023940000000000003,-0.0007300000000000002,0.011860000000000002,2.6321000000000003,1.4679,-9.3864,7.762568564318764,17.364400124267217,21.43000030517578,21.420000076293945,22.0,21.979999542236328,17.401357832405548,17.393237554351387,17.86420284,17.84796228389168,17.626690127662155,0.015105042588161768,-5.099999904632568,36.025001525878906,0.0,0.0,0.0,0.0,0.0,snow covered,0.240811139345169,-9.06659126281738,100.0,469.849853515625
frame_00184.png,1769615732529511940,1769615732.529512,42.30098346546574,-83.69787993901006,238.02008056640625,-0.010648337813800257,-0.9997370106390231,-0.010669020541058952,-0.017282779320692426,-0.00267,-0.04138000000000001,0.01801,0.2992,-1.1582000000000001,-8.9562,7.803525901414316,17.456019229909742,22.81999969482422,22.510000228881836,22.18000030517578,22.15999984741211,18.530050152594452,18.278327728054162,18.010364747405546,17.994124191297228,18.203216704837846,0.04280457446150323,-4.700000286102295,35.900001525878906,0.0,0.0,0.0,0.0,0.0,snow covered,0.240811139345169,-9.06659126281738,100.0,469.849853515625
frame_00185.png,1769615732550162587,1769615732.5501628,42.30098347764571,-83.69788182988513,238.01806640625,-0.010957362019405559,-0.9997353931098774,-0.010715176145583857,-0.017154153467412878,0.00237,0.034300000000000004,0.023200000000000005,0.0414,2.0473,-8.64,7.792405365103606,17.43114325741486,23.81999969482422,22.0,22.189998626708984,22.079999923706055,19.342059372594452,17.86420284,18.018483476675033,17.929163515648614,18.288477301229523,0.04918403980473116,-4.0,35.97500228881836,0.0,0.0,0.0,0.0,0.0,snow covered,0.240811139345169,-9.06659126281738,100.0,469.849853515625
frame_00186.png,1769615732570819095,1769615732.5708191,42.300983488806466,-83.69788374518147,238.01708984375,-0.011078405580794759,-0.9997298128708191,-0.010776163066605664,-0.017362157026883377,-0.026470000000000004,-0.05945000000000001,0.01771,1.1557,-1.6332,-9.9543,7.900772932243971,17.673555003053828,22.25,22.10999870300293,22.369998931884766,22.260000228881836,18.067205145000003,17.953522801026423,18.164645384080583,18.075325423054164,18.065174688290295,0.02215851226133049,-3.700000047683716,35.875,0.0,0.0,0.0,0.0,0.0,snow covered,0.240811139345169,-9.06659126281738,100.0,469.849853515625
frame_00187.png,1769615732591564399,1769615732.5915642,42.300983491616186,-83.69788564981292,238.0149383544922,-0.011501433921483173,-0.9997249468821325,-0.010999910689434452,-0.01722642052462216,-0.007820000000000002,0.039670000000000004,0.030310000000000004,-0.7044,2.7355,-8.3467,7.884356439133785,17.63683229295593,23.049999237060547,23.010000228881836,22.3799991607666,22.260000228881836,18.716811901486132,18.684332338054162,18.172765662134744,18.075325423054164,18.4123088311823,0.043969150771825,-3.0,35.82500076293945,0.0,0.0,0.0,0.0,0.0,snow covered,0.240811139345169,-9.06659126281738,100.0,469.849853515625
frame_00188.png,1769615732612247206,1769615732.6122472,42.300983510122855,-83.6978875703622,238.01287841796875,-0.011398992965547694,-0.9997307130303894,-0.01090468634838211,-0.0170191715063856,0.00218,-0.009580000000000002,-0.015940000000000003,4.3901,-0.9840000000000001,-9.888900000000001,7.9615412109560335,17.809489996435993,23.049999237060547,22.969999313354492,22.529998779296875,22.389999389648438,18.716811901486132,18.651851225837518,18.294566735377806,18.180885940188904,18.46102895072259,0.036583807532780656,-2.4000000953674316,36.025001525878906,0.0,0.0,0.0,0.0,0.0,snow covered,0.240811139345169,-9.06659126281738,100.0,469.849853515625
frame_00189.png,1769615732674835193,1769615732.6748352,42.300983539323624,-83.69789338240109,238.0066680908203,-0.01178260848181728,-0.9997149873280304,-0.011715838187215546,-0.01714215227592226,-0.007250000000000001,0.019420000000000003,-0.0043100000000000005,1.7788000000000002,-1.2239,-9.8068,8.033111565018519,17.969588584252527,23.149999618530273,22.78999900817871,22.649999618530273,22.689998626708984,18.798013133243067,18.50568931843197,18.392008523243067,18.424488086675034,18.53004976539828,0.03118942754409576,-1.600000023841858,35.70000076293945,0.0,0.0,0.0,0.0,0.0,snow covered,0.240811139345169,-9.06659126281738,100.0,469.849853515625
frame_00190.png,1769615732695478497,1769615732.6954784,42.30098355231597,-83.69789729023424,238.0025634765625,-0.011946587789658347,-0.9997087983424728,-0.01218434621094416,-0.01706280352828936,-0.056960000000000004,0.0054,0.01861,1.2626000000000002,-0.256,-10.821,8.067835593406796,18.0472641523154,23.299999237060547,24.18000030517578,22.719999313354492,22.78999900817871,18.91981420648613,19.63438318740555,18.448848920837516,18.50568931843197,18.87718390829029,0.04598590395588664,-1.5,35.45000076293945,0.0,0.0,0.0,0.0,0.0,snow covered,0.240811139345169,-9.06659126281738,100.0,469.849853515625
frame_00191.png,1769615732716138972,1769615732.716139,42.30098357007912,-83.69789926333019,238.00137329101562,-0.012062455254970184,-0.9997065300214429,-0.012371869897139497,-0.016979041226046297,0.0021400000000000004,0.0119,0.0048200000000000005,1.9160000000000001,2.5076,-10.9029,8.10878958834404,18.13887578175032,22.350000381469727,23.279998779296875,22.899999618530273,22.709999084472656,18.148406376756938,18.90357365037781,18.595010828243066,18.440728642783355,18.52192987454029,0.02111785192196788,-1.399999976158142,35.67499923706055,0.0,0.0,0.0,0.0,0.0,snow covered,0.240811139345169,-9.06659126281738,100.0,469.849853515625
frame_00192.png,1769615732736422376,1769615732.7364223,42.3009835816418,-83.6979012241339,237.9998779296875,-0.012123814574117264,-0.9997025880404019,-0.012395147964584527,-0.017149603273281345,-0.010840000000000002,-0.02152,0.0035100000000000005,-1.6359000000000001,-0.9247000000000001,-9.8741,8.11607999889325,18.155183992724268,23.94999885559082,23.1299991607666,22.939998626708984,23.0,19.447619889729197,18.781772577134742,18.627490391675032,18.67621206,18.883273729634745,0.040103682628733484,-1.2000000476837158,35.97500228881836,0.0,0.0,0.0,0.0,0.0,snow covered,0.240811139345169,-9.06659126281738,100.0,469.849853515625
frame_00193.png,1769615732757321858,1769615732.757322,42.30098358697672,-83.69790320837477,237.99803161621094,-0.012212012581687137,-0.999710137107672,-0.012533488259976484,-0.01653542212648631,-0.014060000000000001,0.07796000000000002,0.005770000000000001,2.4623,-0.0597,-9.7882,8.128074806917146,18.182015658585243,23.989999771118164,24.279998779296875,23.119998931884766,23.219999313354492,19.48010100194584,19.71558287037781,18.77365229908058,18.854853530837516,19.206047425560435,0.056321135467269336,-1.399999976158142,35.92499923706055,0.0,0.0,0.0,0.0,0.0,snow covered,0.240811139345169,-9.06659126281738,100.0,469.849853515625
frame_00194.png,1769615732777799551,1769615732.7777994,42.30098360397339,-83.69790520960234,237.99684143066406,-0.012256652954681979,-0.9997071645198942,-0.01267621074120034,-0.016573272072418134,-0.009000000000000001,-0.034710000000000005,0.0033000000000000004,4.7182,0.9581000000000001,-10.1525,8.238349511568085,18.428693556407115,23.6299991607666,24.28999900817871,23.19999885559082,23.19999885559082,19.187777187134742,19.72370314843197,18.838612974729198,18.838612974729198,19.147176571256278,0.03898719204646861,-1.100000023841858,35.67499923706055,0.0,0.0,0.0,0.0,0.0,snow covered,0.240811139345169,-9.06659126281738,100.0,469.849853515625
frame_00195.png,1769615732798473362,1769615732.7984734,42.30098362074052,-83.69790719801703,237.99574279785156,-0.012450990338642998,-0.99969795839822,-0.01256012620117772,-0.017064818892350557,0.019000000000000003,-0.014150000000000003,0.014830000000000003,-1.9811,1.2247000000000001,-10.725,8.22875012204227,18.407220298001235,24.59000015258789,24.51999855041504,23.40999984741211,23.260000228881836,19.967306843702776,19.910464897323646,19.009135716297227,18.88733464305416,19.44356052509445,0.05630074559414863,-0.9000000357627869,35.57500076293945,0.0,0.0,0.0,0.0,0.0,snow covered,0.240811139345169,-9.06659126281738,100.0,469.849853515625
frame_00196.png,1769615732819126227,1769615732.8191264,42.30098362729088,-83.69790920867304,237.99423217773438,-0.012410320191588164,-0.9997038161413448,-0.012259686417417707,-0.01696950306052666,0.03384,0.0024900000000000005,-0.011540000000000002,3.3323,-0.3109,-10.3686,8.272338992928535,18.50472598684156,24.689998626708984,23.969999313354492,23.420000076293945,23.19999885559082,20.048506526675034,19.463860445837515,19.017255994351387,18.838612974729198,19.342058985398285,0.045249683737664664,-0.9000000357627869,35.29999923706055,0.0,0.0,0.0,0.0,0.0,snow covered,0.240811139345169,-9.06659126281738,100.0,469.849853515625
frame_00197.png,1769615732839854631,1769615732.8398545,42.300983640776714,-83.69791123282106,237.9932098388672,-0.012525808459428855,-0.9996919899496823,-0.012282520269775018,-0.01755474433606214,-0.024540000000000003,-0.06625,0.020640000000000002,2.7386,-1.8191000000000002,-10.068800000000001,8.340437679529382,18.657058662846456,23.84000015258789,24.209999084472656,23.389999389648438,23.85999870300293,19.358299928702774,19.658742472783356,18.992895160188905,19.374538936026422,19.346119124425364,0.03693296323021691,-0.9000000357627869,34.85000228881836,0.0,0.0,0.0,0.0,0.0,snow covered,0.240811139345169,-9.06659126281738,100.0,469.849853515625
frame_00198.png,1769615732860467402,1769615732.8604674,42.30098366142139,-83.6979132552546,237.99229431152344,-0.012762067957830026,-0.9996699365104095,-0.012591374687081824,-0.018401221214994046,0.01139,-0.061610000000000005,-0.0014800000000000002,0.7069000000000001,2.1697,-10.107700000000001,8.366891053433612,18.716233273067786,23.799999237060547,24.739999771118164,23.579999923706055,23.5,19.32581881648613,20.08910791694584,19.14717734564861,19.08221667,19.411080187270144,0.03712536085998813,-1.0,34.525001525878906,0.0,0.0,0.0,0.0,0.0,snow covered,0.240811139345169,-9.06659126281738,100.0,469.849853515625
