image_filename,timestamp_ns,timestamp_sec,latitude,longitude,altitude,orientation_x,orientation_y,orientation_z,orientation_w,angular_velocity_x,angular_velocity_y,angular_velocity_z,linear_acceleration_x,linear_acceleration_y,linear_acceleration_z,vehicle_speed_mps,vehicle_speed_mph,wheel_speed_fl_rads,wheel_speed_fr_rads,wheel_speed_rl_rads,wheel_speed_rr_rads,wheel_speed_fl_mph,wheel_speed_fr_mph,wheel_speed_rl_mph,wheel_speed_rr_mph,avg_wheel_speed_mph,wheel_slip,steering_angle_deg,throttle_pedal,brake_pedal,brake_torque_actual,abs_active,esc_active,trac_active,marwis_road_condition,marwis_friction,marwis_surface_temp_c,marwis_ice_percent,marwis_water_film_height
arenacam6_1769616099331434355.png,1769616099331434355,1769616099.3314342,42.30105317313483,-83.69745016662623,238.9864044189453,0.7098490966062688,0.704193292958603,0.006329605069479501,0.013638265983909327,0.011340000000000001,0.003790000000000001,0.0034400000000000008,-0.8029000000000001,0.3004,-9.6691,0.9647310208641293,2.1580454098118054,1.149999976158142,1.1999999284744263,1.25,1.1799999475479126,0.9338105836401915,0.9744110059205746,1.015011525,0.9581708370084215,0.9703509878922969,0.5503565478833379,0.800000011920929,0.0,1788.0,1720.0,0.0,0.0,0.0,snow/ice covered,0.235438406467438,-7.96249914169312,100.0,504.802612304688
arenacam6_1769616099379993196.png,1769616099379993196,1769616099.3799932,42.30105368477472,-83.69745015565209,238.9869842529297,0.709882744133282,0.7041639136408887,0.006240027180438411,0.01344374830675986,0.01081,0.0038800000000000006,0.0019500000000000003,-0.7413000000000001,0.33130000000000004,-9.852400000000001,0.9361652358520233,2.094145462686825,1.149999976158142,1.1999999284744263,1.25,1.1799999475479126,0.9338105836401915,0.9744110059205746,1.015011525,0.9581708370084215,0.9703509878922969,0.5366363009724646,0.800000011920929,0.0,1788.0,1720.0,0.0,0.0,0.0,snow/ice covered,0.235438406467438,-7.96249914169312,100.0,504.802612304688
arenacam6_1769616099418576351.png,1769616099418576351,1769616099.4185765,42.30105417583302,-83.69745014590734,238.98773193359375,0.7099066823932173,0.7041433795609189,0.006112176083593274,0.013313324810379541,0.00768,-0.0009100000000000001,0.0024500000000000004,-0.6626000000000001,0.3175,-9.885900000000001,0.9032489117902056,2.0205136207399828,1.149999976158142,1.1999999284744263,1.25,1.1799999475479126,0.9338105836401915,0.9744110059205746,1.015011525,0.9581708370084215,0.9703509878922969,0.5197503357899065,0.800000011920929,0.0,1788.0,1720.0,0.0,0.0,0.0,snow/ice covered,0.235438406467438,-7.96249914169312,100.0,504.802612304688
arenacam6_1769616099433084864.png,1769616099433084864,1769616099.433085,42.30105417583302,-83.69745014590734,238.98773193359375,0.709904293275379,0.7041468488992321,0.00603949438384397,0.0132903755422582,0.005070000000000001,-0.003910000000000001,-0.0005700000000000001,-0.7481,-0.061000000000000006,-9.7346,0.8908106185015762,1.992689904950916,1.149999976158142,1.1999999284744263,1.25,1.1799999475479126,0.9338105836401915,0.9744110059205746,1.015011525,0.9581708370084215,0.9703509878922969,0.513044661148018,0.800000011920929,0.0,1788.0,1720.0,0.0,0.0,0.0,snow/ice covered,0.235438406467438,-7.96249914169312,100.0,504.802612304688
arenacam6_1769616099453832123.png,1769616099453832123,1769616099.4538321,42.30105417583302,-83.69745014590734,238.98773193359375,0.7099085191345078,0.7041424032947813,0.006019885743697299,0.013309069018248222,0.00027000000000000006,-0.00529,0.0006600000000000001,-0.8752000000000001,0.11520000000000001,-9.762400000000001,0.883100046702089,1.975441818469771,1.149999976158142,1.1999999284744263,1.25,1.1799999475479126,0.9338105836401915,0.9744110059205746,1.015011525,0.9581708370084215,0.9703509878922969,0.5087929298550761,0.800000011920929,0.0,1788.0,1720.0,0.0,0.0,0.0,snow/ice covered,0.235438406467438,-7.96249914169312,100.0,504.802612304688
arenacam6_1769616099474289371.png,1769616099474289371,1769616099.4742894,42.30105433398622,-83.69745014269903,238.9879608154297,0.7099176568690522,0.7041341046529127,0.005910465220918084,0.013309753230923722,0.005390000000000001,-0.0082,-6e-05,-0.602,-0.07880000000000001,-9.8579,0.8640721673198338,1.9328775939644292,1.149999976158142,1.1999999284744263,1.25,1.1799999475479126,0.9338105836401915,0.9744110059205746,1.015011525,0.9581708370084215,0.9703509878922969,0.49797597585987935,0.800000011920929,0.0,1788.0,1720.0,0.0,0.0,0.0,snow/ice covered,0.235438406467438,-7.96249914169312,100.0,504.802612304688
arenacam6_1769616099495782071.png,1769616099495782071,1769616099.4957821,42.3010546446252,-83.69745014010151,238.9885711669922,0.7099294803898212,0.7041215366972184,0.005843132954620835,0.013373564590672005,-0.00109,-0.007220000000000001,0.0032900000000000004,-0.9803000000000001,0.0422,-9.8885,0.8479065594879557,1.8967160991809877,1.149999976158142,1.1999999284744263,1.25,1.1799999475479126,0.9338105836401915,0.9744110059205746,1.015011525,0.9581708370084215,0.9703509878922969,0.4884047284085901,0.800000011920929,0.0,1788.0,1720.0,0.0,0.0,0.0,snow/ice covered,0.235438406467438,-7.96249914169312,100.0,504.802612304688
arenacam6_1769616099515718886.png,1769616099515718886,1769616099.515719,42.3010546446252,-83.69745014010151,238.9885711669922,0.7099390519298895,0.7041118547535319,0.005812124180580946,0.013388717374733735,0.0023800000000000006,-0.006440000000000001,0.0022600000000000003,-0.9952000000000001,0.34190000000000004,-9.8108,0.839108485227556,1.8770353349449291,1.149999976158142,1.1999999284744263,1.25,1.1799999475479126,0.9338105836401915,0.9744110059205746,1.015011525,0.9581708370084215,0.9703509878922969,0.48304063869912905,0.800000011920929,0.0,1788.0,1720.0,0.0,0.0,0.0,snow/ice covered,0.235438406467438,-7.96249914169312,100.0,504.802612304688
arenacam6_1769616099536543366.png,1769616099536543366,1769616099.5365434,42.301054795333236,-83.69745013981223,238.9888458251953,0.7099650124219696,0.7040856229059805,0.005677713948056879,0.013449175368537652,0.00222,-0.013130000000000003,0.0031800000000000005,-0.9133,-0.0356,-9.7799,0.8191540753385294,1.83239851728777,1.149999976158142,1.1999999284744263,1.25,1.1799999475479126,0.9338105836401915,0.9744110059205746,1.015011525,0.9581708370084215,0.9703509878922969,0.47044762439091864,0.800000011920929,0.0,1788.0,1720.0,0.0,0.0,0.0,snow/ice covered,0.235438406467438,-7.96249914169312,100.0,504.802612304688
arenacam6_1769616099557375336.png,1769616099557375336,1769616099.5573752,42.30105508986465,-83.69745014182196,238.98948669433594,0.7099956816334977,0.7040540692665422,0.00562844567165746,0.013502600132169425,-0.0008900000000000001,-0.007290000000000001,0.003980000000000001,-1.0767,0.2787,-9.7638,0.8002279818070597,1.7900619816234842,1.149999976158142,1.1999999284744263,1.25,1.1799999475479126,0.9338105836401915,0.9744110059205746,1.015011525,0.9581708370084215,0.9703509878922969,0.45792324631561426,0.800000011920929,0.0,1788.0,1720.0,0.0,0.0,0.0,snow/ice covered,0.235438406467438,-7.96249914169312,100.0,504.802612304688
arenacam6_1769616099577944187.png,1769616099577944187,1769616099.577944,42.30105523172145,-83.69745014286825,238.98973083496094,0.7100379210022377,0.7040112167323747,0.0055705412725883035,0.013539812544916712,0.00102,-0.005520000000000001,0.0033000000000000004,-0.8886000000000001,0.23270000000000002,-9.7126,0.7785775038814624,1.7416311615325986,1.149999976158142,1.1999999284744263,1.25,1.1799999475479126,0.9338105836401915,0.9744110059205746,1.015011525,0.9581708370084215,0.9703509878922969,0.4428493188888464,0.800000011920929,0.0,1788.0,1720.0,0.0,0.0,0.0,snow/ice covered,0.235438406467438,-7.96249914169312,100.0,504.802612304688
arenacam6_1769616099598927671.png,1769616099598927671,1769616099.5989275,42.301055369894826,-83.69745014442903,238.98995971679688,0.7100497005447879,0.7039989394370939,0.0055517971486673525,0.01356810878951198,-0.0013300000000000002,-0.006540000000000001,0.0029100000000000003,-1.0626,0.1849,-9.8299,0.7690645279303588,1.720351205108537,1.149999976158142,1.1999999284744263,1.25,1.1799999475479126,0.9338105836401915,0.9744110059205746,1.015011525,0.9581708370084215,0.9703509878922969,0.435957620158683,0.800000011920929,0.0,1788.0,1720.0,0.0,0.0,0.0,snow/ice covered,0.235438406467438,-7.96249914169312,100.0,504.802612304688
arenacam6_1769616099619133438.png,1769616099619133438,1769616099.6191335,42.30105550822393,-83.69745014519212,238.99014282226562,0.7100735010131606,0.7039730940687927,0.005587370846775295,0.013648709577989596,-0.006090000000000001,-0.00269,0.00051,-0.9057000000000001,0.4433,-9.6422,0.7425427392709164,1.661023555184684,1.149999976158142,1.1999999284744263,1.25,1.1799999475479126,0.9338105836401915,0.9744110059205746,1.015011525,0.9581708370084215,0.9703509878922969,0.4158114225030321,0.800000011920929,0.0,1788.0,1720.0,0.0,0.0,0.0,snow/ice covered,0.235438406467438,-7.96249914169312,100.0,504.802612304688
arenacam6_1769616099640414662.png,1769616099640414662,1769616099.6404147,42.30105550822393,-83.69745014519212,238.99014282226562,0.7100762318863946,0.7039697479168388,0.00560630107525686,0.013671441627542538,-0.005870000000000001,-0.0005200000000000001,0.0008400000000000001,-0.9454,0.37120000000000003,-9.700800000000001,0.7342623983410143,1.6425009293449486,1.149999976158142,1.1999999284744263,1.25,1.1799999475479126,0.9338105836401915,0.9744110059205746,1.015011525,0.9581708370084215,0.9703509878922969,0.40922347710373236,0.800000011920929,0.0,1788.0,1720.0,0.0,0.0,0.0,snow/ice covered,0.235438406467438,-7.96249914169312,100.0,504.802612304688
arenacam6_1769616099660639891.png,1769616099660639891,1769616099.66064,42.30105576876931,-83.69745014509465,238.990478515625,0.7100723428235307,0.7039717609669721,0.005665420472627825,0.013745207493188989,-0.009550000000000001,0.0009200000000000001,-0.00037000000000000005,-1.1698,0.3841,-9.8415,0.7138605902905601,1.5968633088445656,1.149999976158142,1.1999999284744263,1.25,1.1799999475479126,0.9338105836401915,0.9744110059205746,1.015011525,0.9581708370084215,0.9703509878922969,0.39233935521105506,0.800000011920929,0.0,1788.0,1720.0,0.0,0.0,0.0,snow/ice covered,0.235438406467438,-7.96249914169312,100.0,504.802612304688
arenacam6_1769616099683517349.png,1769616099683517349,1769616099.6835175,42.30105589712789,-83.6974501460388,238.99087524414062,0.7100506799025813,0.7039916979735976,0.005746500196581921,0.013809376873105753,-0.005320000000000001,-0.00218,-0.0022,-0.9387000000000001,0.3796,-9.789200000000001,0.6879973758636493,1.5390088499644317,1.149999976158142,1.1999999284744263,1.25,1.1799999475479126,0.9338105836401915,0.9744110059205746,1.015011525,0.9581708370084215,0.9703509878922969,0.3694961611723527,0.800000011920929,0.0,1788.0,1720.0,0.0,0.0,0.0,snow/ice covered,0.235438406467438,-7.96249914169312,100.0,504.802612304688
arenacam6_1769616099702158642.png,1769616099702158642,1769616099.7021587,42.30105601941935,-83.6974501444253,238.99107360839844,0.7100409686997693,0.7040008350980681,0.005758221924887961,0.013837985018776396,-0.005640000000000001,-0.0023100000000000004,-0.00272,-1.1067,0.3946,-9.9064,0.6779940406407267,1.5166319892708673,1.149999976158142,1.1999999284744263,1.25,1.1799999475479126,0.9338105836401915,0.9744110059205746,1.015011525,0.9581708370084215,0.9703509878922969,0.3601935111768276,0.800000011920929,0.0,1788.0,1720.0,0.0,0.0,0.0,snow/ice covered,0.235438406467438,-7.96249914169312,100.0,504.802612304688
arenacam6_1769616099722746373.png,1769616099722746373,1769616099.7227464,42.30105613795068,-83.69745014377958,238.99159240722656,0.7100153240401409,0.7040254775906796,0.005784293363987224,0.013889149782059332,-0.0034900000000000005,-0.0017200000000000004,-0.0015900000000000003,-0.9038,0.343,-9.8718,0.6510805392496986,1.4564281014692209,1.149999976158142,1.1999999284744263,1.25,1.1799999475479126,0.9338105836401915,0.9744110059205746,1.015011525,0.9581708370084215,0.9703509878922969,0.33374604148778597,0.800000011920929,0.0,1788.0,1720.0,0.0,0.0,0.0,snow/ice covered,0.235438406467438,-7.96249914169312,100.0,504.802612304688
arenacam6_1769616099743680425.png,1769616099743680425,1769616099.7436805,42.30105613795068,-83.69745014377958,238.99159240722656,0.7100111244014451,0.7040291881235218,0.005765122449205148,0.01392367981087429,-0.00217,-0.007620000000000001,-0.0012700000000000003,-1.068,0.4788,-9.8215,0.64149270466321,1.434980690769321,1.149999976158142,1.1999999284744263,1.25,1.1799999475479126,0.9338105836401915,0.9744110059205746,1.015011525,0.9581708370084215,0.9703509878922969,0.32378812193488615,0.800000011920929,0.0,1788.0,1720.0,0.0,0.0,0.0,snow/ice covered,0.235438406467438,-7.96249914169312,100.0,504.802612304688
arenacam6_1769616099763959375.png,1769616099763959375,1769616099.7639594,42.301056367816955,-83.69745014031889,238.99234008789062,0.7099926172012675,0.7040471589225763,0.0056955423458300855,0.01398722024313338,-0.0006500000000000001,-0.00534,-0.0018200000000000002,-1.153,0.22970000000000002,-9.7148,0.6104654891881174,1.3655746713844674,1.149999976158142,1.1999999284744263,1.25,1.1799999475479126,0.9338105836401915,0.9744110059205746,1.015011525,0.9581708370084215,0.9703509878922969,0.2894193131829832,0.800000011920929,0.0,1788.0,1720.0,0.0,0.0,0.0,snow/ice covered,0.235438406467438,-7.96249914169312,100.0,504.802612304688
arenacam6_1769616099785062477.png,1769616099785062477,1769616099.7850623,42.30105647497977,-83.69745013826763,238.99282836914062,0.7099912528143735,0.7040479336711366,0.005644066623641429,0.014038252470558064,0.0019000000000000002,-0.0070100000000000015,-0.0011800000000000003,-1.1972,0.5362,-9.7863,0.5884320834806672,1.3162872648212438,1.149999976158142,1.1999999284744263,1.25,1.1799999475479126,0.9338105836401915,0.9744110059205746,1.015011525,0.9581708370084215,0.9703509878922969,0.26281214304381056,0.800000011920929,0.0,1788.0,1720.0,0.0,0.0,0.0,snow/ice covered,0.235438406467438,-7.96249914169312,100.0,504.802612304688
arenacam6_1769616099805420113.png,1769616099805420113,1769616099.80542,42.30105647497977,-83.69745013826763,238.99282836914062,0.7099934644235893,0.7040461272596132,0.005603742315352065,0.014033147850460717,0.006470000000000001,-0.0049700000000000005,0.0004300000000000001,-1.2950000000000002,0.2795,-9.7935,0.57663045284112,1.289887725178415,1.149999976158142,1.1999999284744263,1.25,1.1799999475479126,0.9338105836401915,0.9744110059205746,1.015011525,0.9581708370084215,0.9703509878922969,0.24772445775613564,0.800000011920929,0.0,1788.0,1720.0,0.0,0.0,0.0,snow/ice covered,0.235438406467438,-7.96249914169312,100.0,504.802612304688
arenacam6_1769616099826122516.png,1769616099826122516,1769616099.8261225,42.301056681484994,-83.69745013380717,238.9935302734375,0.7100088490968627,0.7040315106353783,0.0055218264256254096,0.014020544552239117,0.00638,-0.0026100000000000003,0.0029900000000000005,-1.3354000000000001,0.5815,-9.581900000000001,0.5401797311340509,1.208349647763004,1.149999976158142,1.1999999284744263,1.25,1.1799999475479126,0.9338105836401915,0.9744110059205746,1.015011525,0.9581708370084215,0.9703509878922969,0.19696174887070952,0.800000011920929,0.0,1788.0,1720.0,0.0,0.0,0.0,snow/ice covered,0.235438406467438,-7.96249914169312,100.0,504.802612304688
arenacam6_1769616099847044925.png,1769616099847044925,1769616099.847045,42.301056681484994,-83.69745013380717,238.9935302734375,0.7100161259863227,0.7040250855583565,0.005480810930308483,0.013990727481779135,0.010220000000000002,-0.0015600000000000002,0.0014800000000000002,-1.3135000000000001,0.5422,-9.714,0.5282094214260328,1.1815727831647498,1.149999976158142,1.1999999284744263,1.25,1.1799999475479126,0.9338105836401915,0.9744110059205746,1.015011525,0.9581708370084215,0.9703509878922969,0.178763253759715,0.800000011920929,0.0,1788.0,1720.0,0.0,0.0,0.0,snow/ice covered,0.235438406467438,-7.96249914169312,100.0,504.802612304688
arenacam6_1769616099867740098.png,1769616099867740098,1769616099.8677402,42.30105686857602,-83.69745012838445,238.9943084716797,0.7100322627418947,0.7040117944104206,0.005362547864326523,0.013886046127224475,0.009570000000000002,-0.0012200000000000002,0.0018700000000000004,-1.5185000000000002,0.3215,-9.7963,0.48871930628409815,1.0932357649991506,1.149999976158142,1.1999999284744263,1.25,1.1799999475479126,0.9338105836401915,0.9744110059205746,1.015011525,0.9581708370084215,0.9703509878922969,0.11240464412262365,0.800000011920929,0.0,1788.0,1720.0,0.0,0.0,0.0,snow/ice covered,0.235438406467438,-7.96249914169312,100.0,504.802612304688
arenacam6_1769616099888815883.png,1769616099888815883,1769616099.8888159,42.301056955054264,-83.69745012335586,238.99444580078125,0.7100352691241035,0.7040108177447357,0.005303833413961412,0.013804146093374459,0.011230000000000002,-0.00022000000000000003,-0.0014100000000000002,-1.3115,0.4113,-9.7414,0.4635552838199261,1.0369453565881457,1.149999976158142,1.1999999284744263,1.25,1.1799999475479126,0.9338105836401915,0.9744110059205746,1.015011525,0.9581708370084215,0.9703509878922969,0.06422167597621903,0.800000011920929,0.0,1788.0,1720.0,0.0,0.0,0.0,snow/ice covered,0.235438406467438,-7.96249914169312,100.0,504.802612304688
arenacam6_1769616099929619866.png,1769616099929619866,1769616099.92962,42.30105711332869,-83.69745011504772,238.99534606933594,0.7100216930240695,0.7040272634862569,0.0051935499267127165,0.013705281552939388,0.006830000000000001,0.00222,-0.0016000000000000003,-1.494,0.375,-9.749600000000001,0.40835216073267977,0.9134592824293607,1.0,1.0199999809265137,1.1200000047683716,1.059999942779541,0.81200922,0.8282493889121533,0.9094503302719618,0.8607297267364598,0.8526096664801437,0.0,1.0,0.0,1796.0,1720.0,0.0,0.0,0.0,snow/ice covered,0.235438406467438,-7.96249914169312,100.0,504.802612304688
arenacam6_1769616099950337437.png,1769616099950337437,1769616099.9503376,42.3010571849834,-83.69745010941342,238.99557495117188,0.7100028365116619,0.7040469030440104,0.005130316055539123,0.013697091541722101,0.004850000000000001,-0.0013300000000000002,-0.0035600000000000002,-1.5535,0.2368,-9.898200000000001,0.38082892433943155,0.8518914540118481,1.0,0.9699999690055847,0.9699999690055847,1.059999942779541,0.81200922,0.7876489182322491,0.7876489182322491,0.8607297267364598,0.8120091958002396,0.0,1.100000023841858,0.0,1804.0,1720.0,0.0,0.0,0.0,snow/ice covered,0.235438406467438,-7.96249914169312,100.0,504.802612304688
arenacam6_1769616099970965732.png,1769616099970965732,1769616099.9709659,42.30105731201075,-83.69745010098958,238.99671936035156,0.7099795262766025,0.7040706303529318,0.005041220521735495,0.013718813291504997,0.0037600000000000008,-0.005860000000000001,-0.0031200000000000004,-1.6760000000000002,0.32280000000000003,-9.7799,0.33471129383984416,0.7487290816421011,1.0,0.9699999690055847,0.9699999690055847,1.059999942779541,0.81200922,0.7876489182322491,0.7876489182322491,0.8607297267364598,0.8120091958002396,0.0,1.3000000715255737,0.0,1804.0,1728.0,0.0,0.0,0.0,snow/ice covered,0.235438406467438,-7.96249914169312,100.0,504.802612304688
arenacam6_1769616099991669739.png,1769616099991669739,1769616099.9916697,42.30105731201075,-83.69745010098958,238.99671936035156,0.7099678349305194,0.7040826423535506,0.005000066075932919,0.013722442922063517,0.005370000000000001,-0.006250000000000001,-0.003790000000000001,-1.6744,0.2036,-9.8337,0.31919677090154436,0.7140240247005006,0.9899999499320984,0.9699999690055847,0.9699999690055847,1.0,0.8038890871444022,0.7876489182322491,0.7876489182322491,0.81200922,0.7977990359022251,0.0,1.5,0.0,1804.0,1728.0,0.0,0.0,0.0,snow/ice covered,0.235438406467438,-7.96249914169312,100.0,504.802612304688
arenacam6_1769616100012279794.png,1769616100012279794,1769616100.0122797,42.30105741317533,-83.69745009308053,238.99757385253906,0.709945144821741,0.7041057515033253,0.004895384882975785,0.013748354476890975,0.0029900000000000005,-0.0020900000000000003,-0.0005900000000000001,-1.826,0.2439,-9.7169,0.2685572730679597,0.6007465064166417,0.85999995470047,0.8999999761581421,0.9699999690055847,0.8700000047683716,0.698327892416364,0.7308082786401916,0.7876489182322491,0.7064480252719617,0.7308082786401916,0.0,1.7000000476837158,0.0,1804.0,1736.0,0.0,0.0,0.0,snow/ice covered,0.235438406467438,-7.96249914169312,100.0,504.802612304688
arenacam6_1769616100033227820.png,1769616100033227820,1769616100.0332277,42.30105741317533,-83.69745009308053,238.99757385253906,0.7099451962549237,0.7041057673046575,0.004842281247117381,0.013763686831698513,0.005360000000000001,-0.009680000000000001,-0.00022000000000000003,-1.7473,0.2155,-9.7528,0.2522561871508565,0.5642819552852371,0.7299999594688416,0.75,0.8100000023841858,0.7400000095367432,0.5927666976883257,0.609006915,0.6577274701359809,0.6008868305439234,0.6150969783420575,0.0,1.899999976158142,0.0,1804.0,1744.0,0.0,0.0,0.0,snow/ice covered,0.235438406467438,-7.96249914169312,100.0,504.802612304688
arenacam6_1769616100053627885.png,1769616100053627885,1769616100.053628,42.30105745824573,-83.69745009052075,238.9981689453125,0.7099427389867918,0.7041082264478741,0.004690411554036279,0.013817121545929144,0.004210000000000001,-0.010750000000000001,0.0005600000000000002,-2.0509,0.09580000000000001,-9.7456,0.1972287527116897,0.44118888609088713,0.6599999666213989,0.6800000071525574,0.7299999594688416,0.6699999570846558,0.5359260580962681,0.5521662754079425,0.5927666976883257,0.5440461425523448,0.5562262934362203,0.0,2.1000001430511475,0.0,1804.0,1744.0,0.0,0.0,0.0,snow/ice covered,0.235438406467438,-7.96249914169312,100.0,504.802612304688
arenacam6_1769616100076626552.png,1769616100076626552,1769616100.0766265,42.301057520273396,-83.69745008543242,238.99891662597656,0.7099466132472393,0.7041041234900782,0.004613804555757279,0.013852885279427966,0.0032400000000000003,-0.010450000000000001,0.0002800000000000001,-1.9959,0.17,-9.7583,0.15922965315773147,0.35618718033465585,0.5999999642372131,0.6200000047683716,0.6599999666213989,0.5999999642372131,0.4872055029602873,0.5034457202719618,0.5359260580962681,0.4872055029602873,0.5034456960722011,0.0,2.299999952316284,0.0,1804.0,1756.0,0.0,0.0,0.0,snow/ice covered,0.235438406467438,-7.96249914169312,100.0,504.802612304688
arenacam6_1769616100095350223.png,1769616100095350223,1769616100.0953503,42.301057520273396,-83.69745008543242,238.99891662597656,0.7099470967153629,0.7041036007965956,0.004585459590581793,0.013864082048177465,0.0024600000000000004,-0.005660000000000001,6e-05,-2.08,0.2147,-9.6136,0.13974784040556082,0.31260753411681524,0.5600000023841858,0.5699999928474426,0.5999999642372131,0.5600000023841858,0.4547251651359809,0.46284524959205753,0.4872055029602873,0.4547251651359809,0.46487527070607665,0.0,2.4000000953674316,0.0,1804.0,1756.0,0.0,0.0,0.0,snow/ice covered,0.235438406467438,-7.96249914169312,100.0,504.802612304688
arenacam6_1769616100115836880.png,1769616100115836880,1769616100.1158369,42.30105754499714,-83.6974500839624,238.99942016601562,0.7099684997358535,0.704081532415522,0.004485425581477905,0.013921424193838933,0.0018900000000000002,-0.008490000000000001,0.0026500000000000004,-2.1636,0.156,-9.7334,0.07895894002511136,0.17662641129977263,0.5199999809265137,0.5199999809265137,0.5600000023841858,0.5199999809265137,0.4222447789121533,0.4222447789121533,0.4547251651359809,0.4222447789121533,0.4303648754681102,0.0,2.6000001430511475,0.0,1804.0,1756.0,0.0,0.0,0.0,snow/ice covered,0.235438406467438,-7.96249914169312,100.0,504.802612304688
arenacam6_1769616100137223530.png,1769616100137223530,1769616100.1372235,42.3010575635186,-83.69745008056779,238.99998474121094,0.7099825065735657,0.7040668390618386,0.004451731126404355,0.01396096640516184,-0.0005200000000000001,-0.004240000000000001,0.0024200000000000003,-2.2337000000000002,0.3111,-9.6884,0.03667937480427083,0.0820495606746656,0.47999998927116394,0.4899999797344208,0.5099999904632568,0.47999998927116394,0.3897644168880862,0.39788450134416287,0.41412469445607664,0.3897644168880862,0.39788450739410297,0.0,2.6000001430511475,0.0,1748.0,1756.0,0.0,0.0,0.0,snow/ice covered,0.235438406467438,-7.96249914169312,100.0,504.802612304688
arenacam6_1769616100157539396.png,1769616100157539396,1769616100.1575394,42.3010575635186,-83.69745008056779,238.99998474121094,0.7099953746140408,0.7040534077875938,0.00444251660581573,0.013986817205882952,-0.0023100000000000004,-0.0049700000000000005,0.0036300000000000004,-2.2245,0.3423,-9.666400000000001,0.0157027232391652,0.03512604972261821,0.44999998807907104,0.44999998807907104,0.47999998927116394,0.44999998807907104,0.3654041393200958,0.3654041393200958,0.3897644168880862,0.3654041393200958,0.3714942087120934,0.0,2.6000001430511475,0.0,1524.0,1744.0,0.0,0.0,0.0,snow/ice covered,0.235438406467438,-7.96249914169312,100.0,504.802612304688
arenacam6_1769616100177801735.png,1769616100177801735,1769616100.1778016,42.30105756612867,-83.69745008335497,239.0004425048828,0.7100129486184101,0.7040342910882597,0.004434401767486053,0.014059368656048777,-0.0032700000000000003,0.00036,0.0005900000000000001,-2.4051,0.3643,-9.5702,-0.049641533960806936,0.11104513297828747,0.41999998688697815,0.429999977350235,0.44999998807907104,0.41999998688697815,0.3410438617521053,0.349163946208182,0.3654041393200958,0.3410438617521053,0.34916395225812213,0.0,2.6000001430511475,0.0,668.0,1748.0,0.0,0.0,0.0,snow/ice covered,0.235438406467438,-7.96249914169312,100.0,504.802612304688
arenacam6_1769616100198655536.png,1769616100198655536,1769616100.1986556,42.301057542376256,-83.69745008242089,239.00067138671875,0.7100277507704262,0.7040192238997073,0.004513741930168783,0.014041070092101864,-0.00404,0.008450000000000001,0.0012700000000000003,-1.6237000000000001,0.3326,-9.343200000000001,-0.08255308406259884,0.18466629586298985,0.3999999761581421,0.4099999964237213,0.41999998688697815,0.3999999761581421,0.32480366864019156,0.33292377729602873,0.3410438617521053,0.32480366864019156,0.3308937440821293,0.0,2.6000001430511475,0.0,184.0,1536.0,0.0,0.0,0.0,snow/ice covered,0.235438406467438,-7.96249914169312,100.0,504.802612304688
arenacam6_1769616100219412051.png,1769616100219412051,1769616100.2194118,42.30105752562355,-83.69745008414931,239.0008544921875,0.710009166745742,0.7040386811177289,0.004685310611599393,0.013948709313008944,-0.006060000000000001,0.016540000000000003,-0.0017000000000000001,-0.8047000000000001,0.21760000000000002,-9.3218,-0.11125926475762025,0.24888029970691106,0.3700000047683716,0.3799999952316284,0.3999999761581421,0.3700000047683716,0.3004434152719617,0.3085634997280383,0.32480366864019156,0.3004434152719617,0.3085634997280383,0.0,2.5,0.0,0.0,1328.0,0.0,0.0,0.0,snow/ice covered,0.235438406467438,-7.96249914169312,100.0,504.802612304688
arenacam6_1769616100260639697.png,1769616100260639697,1769616100.2606397,42.30105748496399,-83.69745008103804,239.00003051757812,0.7099811062195214,0.7040690794460877,0.004960454462704008,0.013746056553304624,-0.00041000000000000005,0.028480000000000002,-0.0034000000000000002,-0.20270000000000002,0.3618,-9.376000000000001,-0.11946637827892186,0.2672391202272515,0.32999998331069946,0.3400000035762787,0.3499999940395355,0.32999998331069946,0.26796302904813407,0.27608313770397125,0.28420322216004795,0.26796302904813407,0.2740531044900718,0.0,2.5,0.0,0.0,932.0,0.0,0.0,0.0,snow/ice covered,0.235438406467438,-7.96249914169312,100.0,504.802612304688
arenacam6_1769616100281285208.png,1769616100281285208,1769616100.281285,42.30105746564477,-83.69745008175934,238.99961853027344,0.7099211981828455,0.7041327105375383,0.005333186328281118,0.0134378363317771,-0.0039700000000000004,0.031880000000000006,-0.004300000000000001,0.8881,0.1709,-9.451500000000001,-0.09989616230474395,0.22346172130597394,0.3199999928474426,0.32999998331069946,0.32999998331069946,0.3199999928474426,0.2598429445920575,0.26796302904813407,0.26796302904813407,0.2598429445920575,0.2639029868200958,0.0,2.5,0.0,0.0,932.0,0.0,0.0,0.0,snow/ice covered,0.235438406467438,-7.96249914169312,100.0,504.802612304688
arenacam6_1769616100302269764.png,1769616100302269764,1769616100.3022697,42.30105746564477,-83.69745008175934,238.99961853027344,0.7099088022115685,0.7041457649512831,0.005435561212028224,0.01336745742536254,-0.00436,0.024470000000000006,-0.0033000000000000004,0.9637,0.33490000000000003,-9.5764,-0.08917535349889485,0.19947991525581787,0.29999998211860657,0.29999998211860657,0.3100000023841858,0.29999998211860657,0.24360275148014365,0.24360275148014365,0.2517228601359809,0.24360275148014365,0.24563277864410296,0.0,2.5,0.0,0.0,604.0,0.0,0.0,0.0,snow/ice covered,0.235438406467438,-7.96249914169312,100.0,504.802612304688
arenacam6_1769616100322583923.png,1769616100322583923,1769616100.322584,42.301057435614375,-83.6974500789977,238.9982147216797,0.7098895727172332,0.7041670825152831,0.005656348350101224,0.013172705591514337,-0.00012,0.029960000000000007,-0.00425,0.15380000000000002,0.14150000000000001,-9.8382,-0.08059522086327141,0.18028667335788637,0.28999999165534973,0.28999999165534973,0.29999998211860657,0.28999999165534973,0.23548266702406706,0.23548266702406706,0.24360275148014365,0.23548266702406706,0.2375126881380862,0.0,2.5,0.0,0.0,432.0,0.0,0.0,0.0,snow/ice covered,0.235438406467438,-7.96249914169312,100.0,504.802612304688
arenacam6_1769616100363956987.png,1769616100363956987,1769616100.363957,42.30105742481843,-83.69745007896152,238.99757385253906,0.7098543093598516,0.7042051841512393,0.006146486059397792,0.012811666827107663,0.0002800000000000001,0.025040000000000003,-0.00218,0.8991,0.3116,-9.911200000000001,-0.04573416833421068,0.10230459051352925,0.25999999046325684,0.25999999046325684,0.26999998092651367,0.25999999046325684,0.21112238945607664,0.21112238945607664,0.21924247391215326,0.21112238945607664,0.2131524105700958,0.0,2.5,0.0,0.0,216.0,0.0,0.0,0.0,snow/ice covered,0.235438406467438,-7.96249914169312,100.0,504.802612304688
arenacam6_1769616100384784325.png,1769616100384784325,1769616100.3847845,42.30105741151596,-83.69745007884242,238.9965057373047,0.7098498477235183,0.7042105063332387,0.006384505861688244,0.012648894879938517,-0.005090000000000001,0.01649,0.0023300000000000005,0.4107,0.1567,-10.2791,-0.027198531350888486,0.060841482720056496,0.25999999046325684,0.25999999046325684,0.25999999046325684,0.25999999046325684,0.21112238945607664,0.21112238945607664,0.21112238945607664,0.21112238945607664,0.21112238945607664,0.0,2.5,3.4750001430511475,0.0,216.0,0.0,0.0,0.0,snow/ice covered,0.235438406467438,-7.96249914169312,100.0,504.802612304688
arenacam6_1769616100405557830.png,1769616100405557830,1769616100.4055579,42.30105741151596,-83.69745007884242,238.9965057373047,0.7098577554828114,0.7042025159613902,0.006481446041757082,0.012600569501450646,-0.006680000000000001,0.020530000000000003,0.0024900000000000005,0.661,0.1938,-10.2348,-0.019748054616912997,0.04417521329475736,0.25,0.25,0.25999999046325684,0.25,0.203002305,0.203002305,0.21112238945607664,0.203002305,0.20503232611401917,0.0,2.5,20.200000762939453,0.0,104.0,0.0,0.0,0.0,snow/ice covered,0.235438406467438,-7.96249914169312,100.0,504.802612304688
arenacam6_1769616100426017955.png,1769616100426017955,1769616100.426018,42.30105740708426,-83.69745007907473,238.99586486816406,0.7098881955320081,0.7041708085540506,0.006569945276712069,0.012611821585521502,-0.006220000000000002,-0.00272,0.00487,0.4048,0.301,-10.3133,0.0008277771604464189,0.0018516878412890123,0.23999999463558197,0.23999999463558197,0.25,0.23999999463558197,0.1948822084440431,0.1948822084440431,0.203002305,0.1948822084440431,0.19691223258303234,0.0,2.5,24.649999618530273,0.0,0.0,0.0,0.0,0.0,snow/ice covered,0.235438406467438,-7.96249914169312,100.0,504.802612304688
arenacam6_1769616100446908406.png,1769616100446908406,1769616100.4469085,42.30105740812603,-83.69745008278463,238.99632263183594,0.7099010129612757,0.7041570873506097,0.006594677019558404,0.012643510804675396,-0.0024400000000000003,-0.00116,0.0009000000000000002,0.1279,0.3972,-10.3664,0.0051554838479738185,0.011532508038886554,0.2199999988079071,0.22999998927116394,0.22999998927116394,0.22999998927116394,0.17864202743200958,0.1867621118880862,0.1867621118880862,0.1867621118880862,0.18473209077406705,0.0,2.5,28.55000114440918,0.0,0.0,0.0,0.0,0.0,snow/ice covered,0.235438406467438,-7.96249914169312,100.0,504.802612304688
arenacam6_1769616100467670694.png,1769616100467670694,1769616100.4676707,42.30105741281103,-83.69745008443377,238.9969940185547,0.7099311656261537,0.7041252509232994,0.006544875179861083,0.01274894873202274,-0.0026400000000000004,-0.013560000000000003,0.00169,0.2985,0.5069,-10.074300000000001,0.017565070038698446,0.039292007772366105,0.2199999988079071,0.2199999988079071,0.2199999988079071,0.2199999988079071,0.17864202743200958,0.17864202743200958,0.17864202743200958,0.17864202743200958,0.17864202743200958,0.0,2.5,30.600000381469727,0.0,0.0,0.0,0.0,0.0,snow/ice covered,0.235438406467438,-7.96249914169312,100.0,504.802612304688
arenacam6_1769616100488658098.png,1769616100488658098,1769616100.4886582,42.30105741281103,-83.69745008443377,238.9969940185547,0.7099322138247822,0.7041238146380906,0.006508617738829563,0.012788406017835482,-0.00044000000000000007,-0.01076,0.00021000000000000004,0.048600000000000004,0.4398,-10.0222,0.01895671491704629,0.04240503386653753,0.2199999988079071,0.2199999988079071,0.2199999988079071,0.2199999988079071,0.17864202743200958,0.17864202743200958,0.17864202743200958,0.17864202743200958,0.17864202743200958,0.0,2.5,30.375,0.0,0.0,0.0,0.0,0.0,snow/ice covered,0.235438406467438,-7.96249914169312,100.0,504.802612304688
arenacam6_1769616100508918344.png,1769616100508918344,1769616100.5089183,42.30105741281103,-83.69745008443377,238.9969940185547,0.7099349244965435,0.7041207031515317,0.006461346295913484,0.01283313591931492,0.0007600000000000002,-0.013100000000000002,-0.00011000000000000002,-0.0303,0.36360000000000003,-10.0477,0.019436521191558063,0.043478331714243895,0.20999999344348907,0.20999999344348907,0.2199999988079071,0.20999999344348907,0.17052193087605266,0.17052193087605266,0.17864202743200958,0.17052193087605266,0.1725519550150419,0.0,2.5,30.375,0.0,0.0,0.0,0.0,0.0,snow/ice covered,0.235438406467438,-7.96249914169312,100.0,504.802612304688
arenacam6_1769616100530310670.png,1769616100530310670,1769616100.5303106,42.30105742097912,-83.69745008799873,238.99859619140625,0.7099495666509587,0.7041052174408573,0.006330149561556254,0.012937727435981705,0.0014500000000000003,-0.010340000000000002,-0.0006100000000000001,0.07010000000000001,0.3739,-9.8031,0.023428601677744406,0.052408376237013575,0.19999998807907104,0.19999998807907104,0.20999999344348907,0.19999998807907104,0.16240183432009578,0.16240183432009578,0.17052193087605266,0.16240183432009578,0.164431858459085,0.0,2.5,30.200000762939453,0.0,0.0,0.0,0.0,0.0,snow/ice covered,0.235438406467438,-7.96249914169312,100.0,504.802612304688
arenacam6_1769616100550553027.png,1769616100550553027,1769616100.550553,42.30105742491063,-83.69745008400353,238.9990234375,0.7099438951845289,0.7041103512199604,0.006233026523739034,0.013016465552416933,0.00202,-0.010940000000000002,5.000000000000001e-05,-0.18760000000000002,0.379,-9.7483,0.02285203743976629,0.05111863663051081,0.1899999976158142,0.1899999976158142,0.19999998807907104,0.1899999976158142,0.15428174986401916,0.15428174986401916,0.16240183432009578,0.15428174986401916,0.15631177097803833,0.0,2.5,30.100000381469727,0.0,0.0,0.0,0.0,0.0,snow/ice covered,0.235438406467438,-7.96249914169312,100.0,504.802612304688
arenacam6_1769616100571076205.png,1769616100571076205,1769616100.5710762,42.301057432515606,-83.69745008469363,239.00047302246094,0.7099321779892825,0.7041226101944147,0.006131312974002217,0.013040685166537728,0.004300000000000001,-0.0024100000000000002,-0.0029700000000000004,-0.2202,0.2894,-9.6053,0.01849662714420083,0.04137584512394861,0.1899999976158142,0.1899999976158142,0.1899999976158142,0.1899999976158142,0.15428174986401916,0.15428174986401916,0.15428174986401916,0.15428174986401916,0.15428174986401916,0.0,2.5,30.375,0.0,0.0,0.0,0.0,0.0,snow/ice covered,0.235438406467438,-7.96249914169312,100.0,504.802612304688
arenacam6_1769616100592051462.png,1769616100592051462,1769616100.5920515,42.301057432515606,-83.69745008469363,239.00047302246094,0.7099271772593998,0.7041280663285362,0.006116272026957246,0.013025375750024241,0.004790000000000001,5.000000000000001e-05,-0.0021000000000000003,-0.16670000000000001,0.255,-9.583,0.01781321788282869,0.03984709961081481,0.17999999225139618,0.17999999225139618,0.17999999225139618,0.17999999225139618,0.14616165330806227,0.14616165330806227,0.14616165330806227,0.14616165330806227,0.14616165330806227,0.0,2.5,30.200000762939453,0.0,0.0,0.0,0.0,0.0,snow/ice covered,0.235438406467438,-7.96249914169312,100.0,504.802612304688
arenacam6_1769616100612308763.png,1769616100612308763,1769616100.6123087,42.30105743602819,-83.69745008001667,239.00070190429688,0.7099254543915096,0.704132411237314,0.006186740704745089,0.012849937415685776,0.004000000000000001,0.016800000000000002,-0.00024,0.5101,0.22060000000000002,-9.2466,0.02543196848037668,0.05688978757249381,0.17999999225139618,0.17999999225139618,0.17999999225139618,0.17999999225139618,0.14616165330806227,0.14616165330806227,0.14616165330806227,0.14616165330806227,0.14616165330806227,0.0,2.5,30.350000381469727,0.0,0.0,0.0,0.0,0.0,snow/ice covered,0.235438406467438,-7.96249914169312,100.0,504.802612304688
arenacam6_1769616100633197885.png,1769616100633197885,1769616100.6331978,42.301057442658895,-83.69745008046368,239.00099182128906,0.7099196186417407,0.7041394769857942,0.006230364942298684,0.01276379921589017,0.0061400000000000005,0.018420000000000002,-0.0016600000000000002,1.0268000000000002,0.0839,-9.2833,0.036567168484506335,0.08179856186973161,0.17000000178813934,0.17000000178813934,0.17999999225139618,0.17000000178813934,0.13804156885198562,0.13804156885198562,0.14616165330806227,0.13804156885198562,0.14007158996600477,0.0,2.5,30.475000381469727,0.0,0.0,0.0,0.0,0.0,snow/ice covered,0.235438406467438,-7.96249914169312,100.0,504.802612304688
arenacam6_1769616100653690157.png,1769616100653690157,1769616100.65369,42.30105744925531,-83.69745008062452,239.00128173828125,0.7099219670872224,0.7041389274335024,0.006291363770172049,0.012632903930479996,0.004380000000000001,0.00824,0.00015000000000000001,0.4506,0.1296,-9.567,0.06364502607780924,0.14237010463449462,0.17000000178813934,0.17000000178813934,0.17000000178813934,0.17000000178813934,0.13804156885198562,0.13804156885198562,0.13804156885198562,0.13804156885198562,0.13804156885198562,0.0,2.5,30.375,0.0,0.0,0.0,0.0,0.0,snow/ice covered,0.235438406467438,-7.96249914169312,100.0,504.802612304688
arenacam6_1769616100675097885.png,1769616100675097885,1769616100.675098,42.301057473924914,-83.69745007909692,239.00119018554688,0.709925345308171,0.704136806253506,0.006407495372686631,0.012502246647526482,0.00217,0.022080000000000002,0.00128,0.2025,0.26930000000000004,-9.849,0.0687347685561088,0.15375555317390202,0.17000000178813934,0.1599999964237213,0.17000000178813934,0.17000000178813934,0.13804156885198562,0.12992147229602874,0.13804156885198562,0.13804156885198562,0.1360115447129964,0.0,2.6000001430511475,30.200000762939453,0.0,0.0,0.0,0.0,0.0,snow/ice covered,0.235438406467438,-7.96249914169312,100.0,504.802612304688
arenacam6_1769616100695061752.png,1769616100695061752,1769616100.6950617,42.301057473924914,-83.69745007909692,239.00119018554688,0.709930225982511,0.7041331810256719,0.0064924293689402526,0.012384909203500747,0.004810000000000001,0.02858,0.0014900000000000002,0.6591,0.1912,-9.6889,0.07613524060508331,0.17030996511913507,0.17000000178813934,0.1599999964237213,0.17000000178813934,0.17000000178813934,0.13804156885198562,0.12992147229602874,0.13804156885198562,0.13804156885198562,0.1360115447129964,0.0,2.6000001430511475,30.274999618530273,0.0,0.0,0.0,0.0,0.0,snow/ice covered,0.235438406467438,-7.96249914169312,100.0,504.802612304688
arenacam6_1769616100736640838.png,1769616100736640838,1769616100.7366407,42.30105750978426,-83.6974500787588,239.0008544921875,0.7099601512592312,0.7041060213722417,0.006736158164588408,0.012079671539560268,0.0006700000000000001,0.018750000000000003,0.0019500000000000003,1.0025,0.192,-9.667,0.12143393289891043,0.2716404218588887,0.17000000178813934,0.1599999964237213,2.059999942779541,0.17000000178813934,0.13804156885198562,0.12992147229602874,1.6727389467364597,0.13804156885198562,0.519685889184115,0.0,2.6000001430511475,30.075000762939453,0.0,0.0,0.0,0.0,0.0,snow/ice covered,0.235438406467438,-7.96249914169312,100.0,504.802612304688
arenacam6_1769616100757304664.png,1769616100757304664,1769616100.7573047,42.30105753589988,-83.6974500822,239.00083923339844,0.709979734371545,0.7040868679615134,0.006952193917370257,0.011921667064307206,-0.0007400000000000001,0.021450000000000004,0.0036000000000000008,0.5987,0.7473000000000001,-9.546000000000001,0.14754875523913633,0.3300577125446336,0.1599999964237213,0.1599999964237213,6.12999963760376,0.17000000178813934,0.12992147229602874,0.12992147229602874,4.977616224330911,0.13804156885198562,1.3438751844437387,0.0,2.6000001430511475,30.524999618530273,0.0,0.0,0.0,0.0,0.0,snow/ice covered,0.235438406467438,-7.96249914169312,100.0,504.802612304688
arenacam6_1769616100778158390.png,1769616100778158390,1769616100.7781584,42.30105759460412,-83.69745008106253,239.0000762939453,0.7099515343420404,0.7041163185279001,0.007200016276024649,0.011712755172205176,-0.007760000000000001,0.015330000000000002,-0.006550000000000001,1.9239000000000002,-0.0693,-9.3412,0.1839515623759907,0.41148860794134867,0.1599999964237213,0.1599999964237213,9.719999313354492,0.17000000178813934,0.12992147229602874,0.12992147229602874,7.892729060837517,0.13804156885198562,2.07265339357039,0.0,2.6000001430511475,30.575000762939453,0.0,0.0,0.0,0.0,0.0,snow/ice covered,0.235438406467438,-7.96249914169312,100.0,504.802612304688
arenacam6_1769616100798631252.png,1769616100798631252,1769616100.7986312,42.30105763638877,-83.6974500838779,238.99969482421875,0.7099097255811365,0.7041579644437548,0.007494826435046828,0.011557257998848944,-0.008860000000000002,0.016710000000000003,-0.009300000000000001,1.2713,0.0179,-9.715200000000001,0.22826569196842966,0.5106166569918591,0.1599999964237213,0.1599999964237213,11.429999351501465,0.17000000178813934,0.12992147229602874,0.12992147229602874,9.28126485801321,0.13804156885198562,2.4197873428643133,0.0,2.6000001430511475,30.274999618530273,0.0,0.0,0.0,0.0,0.0,snow/ice covered,0.235438406467438,-7.96249914169312,100.0,504.802612304688
arenacam6_1769616100819533374.png,1769616100819533374,1769616100.8195333,42.301057679142644,-83.69745008437032,238.9990692138672,0.7098799316405693,0.7041869530792068,0.007670537548025294,0.011505677760481524,-0.01742,0.03236000000000001,-0.007880000000000002,1.3284,0.5876,-9.1639,0.24201531866089557,0.5413737469253038,0.1599999964237213,0.1599999964237213,13.989999771118164,0.8199999928474426,0.12992147229602874,0.12992147229602874,11.36000880194584,0.6658475545920575,3.0714248252824885,0.0,2.6000001430511475,30.450000762939453,0.0,0.0,0.0,0.0,0.0,snow/ice covered,0.235438406467438,-7.96249914169312,100.0,504.802612304688
arenacam6_1769616100840466976.png,1769616100840466976,1769616100.840467,42.30105772868541,-83.69745008115581,238.99806213378906,0.7097121516765522,0.7043550672812924,0.008032169052423323,0.011317474016672376,-0.00974,0.010020000000000001,-0.025300000000000003,1.8005,-0.231,-10.1529,0.2980782769321685,0.666783220800645,0.8899999856948853,0.9599999785423279,16.809999465942383,0.8199999928474426,0.722688194184115,0.7795288337761724,13.649874554540292,0.6658475545920575,3.9544847842731587,0.0,2.6000001430511475,30.325000762939453,0.0,0.0,0.0,0.0,0.0,snow/ice covered,0.235438406467438,-7.96249914169312,100.0,504.802612304688
arenacam6_1769616100860992062.png,1769616100860992062,1769616100.860992,42.30105772868541,-83.69745008115581,238.99806213378906,0.7096620316666238,0.7044034805276534,0.008204055962121308,0.01132390820775588,-0.02467,0.023700000000000002,-0.01403,0.8128000000000001,-0.343,-9.719100000000001,0.30661971972840335,0.6858899158492546,0.8899999856948853,0.9599999785423279,19.389999389648438,0.8199999928474426,0.722688194184115,0.7795288337761724,15.744858280188904,0.6658475545920575,4.478230715685313,0.0,2.6000001430511475,30.17500114440918,0.0,0.0,0.0,0.0,0.0,snow/ice covered,0.235438406467438,-7.96249914169312,100.0,504.802612304688
arenacam6_1769616100881265044.png,1769616100881265044,1769616100.8812652,42.301057846610036,-83.69745008358458,238.9961395263672,0.7095696627751901,0.7044919306354973,0.008699035606550139,0.01124011201405193,-0.030310000000000004,0.04939000000000001,-0.014330000000000002,1.2319,-0.1003,-8.834,0.32728316571616906,0.7321128047171273,1.2400000095367432,1.2999999523162842,21.229999542236328,1.0499999523162842,1.0068914405439235,1.055611947280383,17.23895536889168,0.852609642280383,5.038517099749093,0.0,2.5,30.350000381469727,0.0,0.0,0.0,0.0,0.0,snow/ice covered,0.235438406467438,-7.96249914169312,100.0,504.802612304688
arenacam6_1769616100902653842.png,1769616100902653842,1769616100.902654,42.30105791241954,-83.69745008216347,238.9947509765625,0.7094031663042573,0.7046519663893308,0.009494187536178884,0.011073134342687106,-0.029320000000000006,0.03735,-0.013470000000000001,2.5001,-0.0927,-10.376000000000001,0.3902816081081848,0.873036540441523,1.2400000095367432,1.2999999523162842,23.029998779296875,1.0499999523162842,1.0068914405439235,1.055611947280383,18.700571345377806,0.852609642280383,5.403921093870625,0.0,2.5,30.524999618530273,0.0,292.0,0.0,0.0,0.0,snow/ice covered,0.235438406467438,-7.96249914169312,100.0,504.802612304688
arenacam6_1769616100923007219.png,1769616100923007219,1769616100.9230072,42.30105791241954,-83.69745008216347,238.9947509765625,0.7093486364125666,0.7047037870409463,0.009674846187952857,0.011112241044020334,-0.030650000000000004,0.020300000000000002,-0.015280000000000002,2.2315,0.1713,-10.933,0.4128344941731318,0.9234859933956455,1.4900000095367432,1.5,23.309999465942383,1.350000023841858,1.2098937455439234,1.21801383,18.92793448454029,1.0962124663598085,5.613013631611006,0.0,2.4000000953674316,30.450000762939453,0.0,372.0,0.0,0.0,0.0,snow/ice covered,0.235438406467438,-7.96249914169312,100.0,504.802612304688
arenacam6_1769616100943366607.png,1769616100943366607,1769616100.9433668,42.30105806864808,-83.69745008849459,238.9927215576172,0.7092246110710925,0.7048221057092189,0.010164737548836462,0.011087311001481059,-0.01289,0.01353,-0.011330000000000002,2.1346000000000003,0.5036,-10.013200000000001,0.47129405404828806,1.0542565212627775,1.4900000095367432,1.5,22.03999900817871,1.350000023841858,1.2098937455439234,1.21801383,17.896682403431967,1.0962124663598085,5.355200611333925,4.07959922782315,2.299999952316284,30.274999618530273,0.0,380.0,0.0,0.0,0.0,snow/ice covered,0.235438406467438,-7.96249914169312,100.0,504.802612304688
arenacam6_1769616100964792754.png,1769616100964792754,1769616100.9647927,42.30105815612806,-83.6974500888418,238.9921875,0.7091626589194131,0.7048842088553461,0.010333033906109165,0.010945488157975984,-0.0017000000000000001,0.022180000000000002,-0.004850000000000001,2.3207,-0.8741,-11.6518,0.5121902958756273,1.1457389604560257,1.75,1.709999918937683,19.28999900817871,1.5699999332427979,1.4210161350000001,1.3885357003766514,15.663657048431968,1.2748544211925366,4.937015826250289,3.3090232562967605,2.299999952316284,30.625,0.0,380.0,0.0,0.0,0.0,snow/ice covered,0.235438406467438,-7.96249914169312,100.0,504.802612304688
arenacam6_1769616100985036693.png,1769616100985036693,1769616100.9850368,42.30105815612806,-83.6974500888418,238.9921875,0.7091539536504176,0.7048919911040004,0.01040672288009198,0.010938510790594037,-0.009040000000000001,0.011380000000000001,-0.0027400000000000002,1.8291000000000002,-0.4524,-10.812000000000001,0.5305343754437238,1.1867735658050838,1.75,1.709999918937683,16.559999465942383,1.5699999332427979,1.4210161350000001,1.3885357003766514,13.446872249540291,1.2748544211925366,4.38281962652737,2.6930546422763904,2.200000047683716,31.075000762939453,0.0,376.0,0.0,0.0,0.0,snow/ice covered,0.235438406467438,-7.96249914169312,100.0,504.802612304688
arenacam6_1769616101005488355.png,1769616101005488355,1769616101.0054884,42.30105835594775,-83.69745009835994,238.99253845214844,0.7091933836775155,0.7048531038892244,0.010493876734799646,0.010803936173333955,0.021270000000000004,0.014360000000000001,0.0027800000000000004,2.3761,0.8103,-10.3255,0.592802735905826,1.3260641520571785,1.96999990940094,1.8899999856948853,13.9399995803833,1.7599999904632568,1.599658089832728,1.534697414184115,11.319408186067372,1.4291362194560766,3.970724977385073,1.9943686896483266,2.200000047683716,31.700000762939453,0.0,376.0,0.0,0.0,0.0,snow/ice covered,0.235438406467438,-7.96249914169312,100.0,504.802612304688
arenacam6_1769616101026147820.png,1769616101026147820,1769616101.0261478,42.3010584650304,-83.69745010207025,238.9929962158203,0.7092152980842212,0.7048334624663165,0.01031070974860206,0.010823142590428483,0.0064600000000000005,-0.014180000000000002,0.007170000000000001,1.4641000000000002,-0.6538,-10.743400000000001,0.6338665157843,1.4179213638185322,2.299999952316284,2.059999942779541,11.989999771118164,1.7599999904632568,1.867621167280383,1.6727389467364597,9.73599036194584,1.4291362194560766,3.67637167385469,1.5927895352066912,2.200000047683716,32.32500076293945,0.0,348.0,0.0,0.0,0.0,snow/ice covered,0.235438406467438,-7.96249914169312,100.0,504.802612304688
arenacam6_1769616101047030410.png,1769616101047030410,1769616101.0470304,42.3010584650304,-83.69745010207025,238.9929962158203,0.709276622378198,0.7047720938638087,0.010286790824336513,0.010823612757962401,0.0036600000000000005,-0.0037600000000000008,0.016890000000000002,1.6169,0.2631,-10.982000000000001,0.6500492593256878,1.4541211901560043,2.700000047683716,2.059999942779541,10.899999618530273,2.059999942779541,2.192424932719617,1.6727389467364597,8.850900188243065,1.6727389467364597,3.5972007536089006,1.4737970796113475,2.1000001430511475,32.400001525878906,0.0,308.0,0.0,0.0,0.0,snow/ice covered,0.235438406467438,-7.96249914169312,100.0,504.802612304688
arenacam6_1769616101067492207.png,1769616101067492207,1769616101.067492,42.3010587085526,-83.69745011784009,238.9952392578125,0.7094210549766,0.7046312266692741,0.00994298210407921,0.010850726488114462,0.018150000000000003,-0.018260000000000002,0.010190000000000001,1.6754,-0.09390000000000001,-10.2603,0.7097166705913314,1.5875936091125729,2.8899998664855957,2.5199999809265137,10.199999809265137,2.240000009536743,2.3467065373850726,2.046263218912153,8.282493889121533,1.8189006605439235,3.6235910764906705,1.2824424687097171,2.0,32.97500228881836,0.0,268.0,0.0,0.0,0.0,snow/ice covered,0.235438406467438,-7.96249914169312,100.0,504.802612304688
arenacam6_1769616101088470725.png,1769616101088470725,1769616101.0884707,42.30105883778177,-83.6974501200313,238.9965057373047,0.7095534876841285,0.7044993779661747,0.009806156856910117,0.01087721693540573,0.00529,-0.00321,0.019370000000000002,1.7261000000000002,0.7065,-10.2757,0.7371031496884217,1.6488555196640182,3.3399999141693115,4.029999732971191,9.029999732971191,2.240000009536743,2.7121107251046896,3.272396939770146,7.332443039770145,1.8189006605439235,3.783962841297226,1.2949026134614094,2.0,33.5,0.0,228.0,0.0,0.0,0.0,snow/ice covered,0.235438406467438,-7.96249914169312,100.0,504.802612304688
arenacam6_1769616101108822039.png,1769616101108822039,1769616101.108822,42.30105897892973,-83.6974501250841,238.99810791015625,0.7096165887724725,0.7044379091954287,0.009579733360834982,0.01094338777654897,0.011590000000000001,-0.01938,0.004980000000000001,2.2948,0.42350000000000004,-10.028500000000001,0.7834077671689155,1.7524361706908338,4.110000133514404,4.960000038146973,8.369999885559082,2.3899998664855957,3.3373580026149274,4.027565762175694,6.796517078472919,1.9407019273850727,4.025535692662154,1.297108311268897,2.0,34.025001525878906,0.0,196.0,0.0,0.0,0.0,snow/ice covered,0.235438406467438,-7.96249914169312,100.0,504.802612304688
arenacam6_1769616101129571836.png,1769616101129571836,1769616101.129572,42.30105926860535,-83.69745012823937,239.0009307861328,0.7097119089600494,0.7043434158580318,0.009348768207037866,0.011043520758045667,0.0089,-0.005270000000000001,0.00446,1.857,1.256,-9.4108,0.8324226496503291,1.8620795219088073,6.039999961853027,6.369999885559082,7.730000019073486,2.559999942779541,4.904535657824306,5.17249863847292,6.276831286087847,2.07874355673646,4.608152284780383,1.4747344195357412,2.0,35.10000228881836,0.0,172.0,0.0,0.0,0.0,snow/ice covered,0.235438406467438,-7.96249914169312,100.0,504.802612304688
arenacam6_1769616101150601376.png,1769616101150601376,1769616101.1506014,42.30105926860535,-83.69745012823937,239.0009307861328,0.7096990148722907,0.7043573783165591,0.009259119255837904,0.011057152026164276,0.010730000000000002,-0.014560000000000002,-0.003980000000000001,2.388,0.6751,-9.3063,0.8565551627304809,1.916062505718322,7.669999599456787,7.62999963760376,7.139999866485596,2.700000047683716,6.2281103921552186,6.195630054330912,5.797745722385073,2.192424932719617,5.103477775397705,1.663523637755459,2.0,36.07500076293945,0.0,144.0,0.0,0.0,0.0,snow/ice covered,0.235438406467438,-7.96249914169312,100.0,504.802612304688
arenacam6_1769616101170856685.png,1769616101170856685,1769616101.1708567,42.30105958804377,-83.69745012370261,239.0032196044922,0.7096400393093539,0.7044197526183895,0.00899229672741106,0.011088973335309763,0.00834,-0.012480000000000002,-0.0038100000000000005,1.2403,0.5001,-9.4426,0.9028010710467014,2.019511827867208,10.069999694824219,9.84000015258789,6.96999979019165,2.700000047683716,8.176932597594453,7.990170848702774,5.659704093033686,2.192424932719617,6.004808118012632,1.973395864858225,2.1000001430511475,36.85000228881836,0.0,124.0,0.0,0.0,0.0,snow/ice covered,0.235438406467438,-7.96249914169312,100.0,504.802612304688
arenacam6_1769616101192510083.png,1769616101192510083,1769616101.1925101,42.30105958804377,-83.69745012370261,239.0032196044922,0.7096141429659633,0.7044465309527573,0.00895173740295187,0.011077884670633097,0.007510000000000001,-0.004430000000000001,-0.008060000000000001,1.3057,0.8453,-9.2844,0.9160544356775876,2.049158809344623,12.809999465942383,12.90999984741211,6.819999694824219,2.879999876022339,10.401837674540293,10.483038906297226,5.537902632594451,2.3385864529289964,7.190341416590242,2.508923458641017,2.1000001430511475,38.0,0.0,124.0,0.0,0.0,0.0,snow/ice covered,0.235438406467438,-7.96249914169312,100.0,504.802612304688
arenacam6_1769616101212299506.png,1769616101212299506,1769616101.2122996,42.30105975553537,-83.69745011672843,239.00401306152344,0.7095271178724618,0.7045371007828823,0.008804523544956972,0.011010131206964533,0.017790000000000004,-0.010770000000000002,-0.013160000000000002,1.5110000000000001,0.5295,-9.1762,0.9484170768256321,2.1215520958343297,13.579999923706055,14.059999465942383,6.769999980926514,2.879999876022339,11.027085145648613,11.416849199540291,5.497302403912153,2.3385864529289964,7.569955800507514,2.5681215725841153,2.1000001430511475,38.54999923706055,0.0,84.0,0.0,0.0,0.0,snow/ice covered,0.235438406467438,-7.96249914169312,100.0,504.802612304688
arenacam6_1769616101232977186.png,1769616101232977186,1769616101.2329772,42.301060106862316,-83.69745010670472,239.00514221191406,0.709395929377382,0.7046700742035037,0.00869651392868765,0.011039590133569708,-0.0029300000000000003,-0.0004000000000000001,-0.012320000000000001,1.1557,0.48160000000000003,-9.355,0.9949010945264447,2.2255340543899855,14.789999961853027,15.869999885559082,8.75,3.5,12.009616332824306,12.88658622847292,7.105080675000001,2.8420322700000002,8.710828876574306,2.9140398051387835,2.200000047683716,39.375,0.0,68.0,0.0,0.0,0.0,snow/ice covered,0.235438406467438,-7.96249914169312,100.0,504.802612304688
arenacam6_1769616101254186483.png,1769616101254186483,1769616101.2541864,42.301060106862316,-83.69745010670472,239.00514221191406,0.7093470796676941,0.7047190434211321,0.008695460252507945,0.011053478073242654,-0.0016200000000000001,-0.0022500000000000003,-0.014260000000000002,1.6416000000000002,0.4354,-9.2867,1.0116245661629695,2.262943457032593,14.029999732971191,15.809999465942383,11.670000076293945,3.869999885559082,11.392489139770145,12.837865334540291,9.476147659351389,3.14247558847292,9.212244430533687,3.070912334068541,2.200000047683716,40.5,0.0,68.0,0.0,0.0,0.0,snow/ice covered,0.235438406467438,-7.96249914169312,100.0,504.802612304688
arenacam6_1769616101274453990.png,1769616101274453990,1769616101.274454,42.301060290846166,-83.69745010072215,239.00547790527344,0.709178702219927,0.7048865355498956,0.00866082920580202,0.011204033005751969,-0.013950000000000002,-0.014220000000000002,-0.012240000000000003,1.1437000000000002,-0.08600000000000001,-9.850200000000001,1.0538567457373267,2.3574143088096555,13.1899995803833,15.65999984741211,14.469999313354492,4.529999732971191,10.710401271067372,12.716064261297227,11.749772855837517,3.678401549770146,9.713659984493065,3.120472141105246,2.4000000953674316,40.900001525878906,0.0,196.0,0.0,0.0,0.0,snow/ice covered,0.235438406467438,-7.96249914169312,100.0,504.802612304688
arenacam6_1769616101295638689.png,1769616101295638689,1769616101.2956388,42.30106067395828,-83.69745009667811,239.005859375,0.7090858319626318,0.7049782311847017,0.008759419896945514,0.011236059301224396,-0.00863,0.00262,-0.014630000000000002,1.4941,0.1227,-9.5896,1.0791611668503214,2.414018780574158,12.889999389648438,15.989999771118164,14.839999198913574,5.670000076293945,10.466798350188904,12.98402724194584,12.050216174310437,4.604092339351387,10.026283526449143,3.1533577149985796,2.4000000953674316,41.72500228881836,0.0,276.0,0.0,0.0,0.0,snow/ice covered,0.235438406467438,-7.96249914169312,100.0,504.802612304688
arenacam6_1769616101315780065.png,1769616101315780065,1769616101.3157802,42.30106067395828,-83.69745009667811,239.005859375,0.7089925694753568,0.7050712985410728,0.008859637459531305,0.011203000777579264,-0.00444,0.01665,-0.014250000000000002,1.3242,0.1792,-9.2761,1.1046936962816498,2.4711335169602737,12.710000038146973,15.979999542236328,13.809999465942383,5.449999809265137,10.320637217175694,12.975906963891678,11.213846894540291,4.4254500941215325,9.733960292432299,2.939066920352399,2.6000001430511475,42.20000076293945,0.0,276.0,0.0,0.0,0.0,snow/ice covered,0.235438406467438,-7.96249914169312,100.0,504.802612304688
arenacam6_1769616101337323717.png,1769616101337323717,1769616101.3373237,42.30106108110983,-83.69745008875348,239.00559997558594,0.7089051211507024,0.7051598813434272,0.008947965189149453,0.01109075601593559,0.006260000000000001,0.011430000000000003,-0.01165,1.7517,0.9711000000000001,-9.124500000000001,1.1423676403814416,2.555407869474862,11.9399995803833,15.639999389648438,13.679999351501465,4.210000038146973,9.695389746067372,12.699823705188903,11.108285603013211,3.4185588471756936,9.230514475361295,2.612149193724668,3.1000001430511475,42.70000076293945,0.0,260.0,0.0,0.0,0.0,snow/ice covered,0.235438406467438,-7.96249914169312,100.0,504.802612304688
arenacam6_1769616101357308992.png,1769616101357308992,1769616101.3573089,42.30106108110983,-83.69745008875348,239.00559997558594,0.7088447569809101,0.7052221509978545,0.008929713589659743,0.011004020076333295,0.014900000000000002,0.009900000000000003,-0.017240000000000002,1.7191,-0.0088,-9.6978,1.1598517490785407,2.594518771583751,11.59000015258789,15.619999885559082,14.649999618530273,3.679999828338623,9.411186983702773,12.68358392347292,11.895934763243066,2.988193790209379,9.244724865157036,2.563175170058166,3.299999952316284,42.875,0.0,256.0,0.0,0.0,0.0,snow/ice covered,0.235438406467438,-7.96249914169312,100.0,504.802612304688
arenacam6_1769616101378611797.png,1769616101378611797,1769616101.3786118,42.30106128746416,-83.69745008657392,239.00535583496094,0.7087146033685184,0.7053565999773237,0.009032281699718096,0.010681560182406761,0.016530000000000003,0.028240000000000005,-0.012920000000000001,1.1178000000000001,0.4526,-9.3102,1.1911740989941955,2.6645849890040756,11.539999961853027,16.010000228881836,15.279999732971191,3.819999933242798,9.370586367824306,13.00026779805416,12.407500664770147,3.101875166192537,9.470057499210286,2.554045953981692,3.6000001430511475,43.32500076293945,0.0,252.0,0.0,0.0,0.0,snow/ice covered,0.235438406467438,-7.96249914169312,100.0,504.802612304688
arenacam6_1769616101398642048.png,1769616101398642048,1769616101.398642,42.301061724097636,-83.6974500789872,239.00466918945312,0.70860718472654,0.7054668879360947,0.00910940453461106,0.01045688905523226,0.005800000000000001,0.013100000000000002,-0.013580000000000002,1.5931000000000002,-0.31470000000000004,-10.237300000000001,1.2252124256383818,2.740726683407522,11.09000015258789,16.239999771118164,15.649999618530273,3.68999981880188,9.005182373702773,13.18702954694584,12.707943983243066,2.9963138746654563,9.474117444639283,2.4567903111229588,4.0,43.400001525878906,0.0,260.0,0.0,0.0,0.0,snow/ice covered,0.235438406467438,-7.96249914169312,100.0,504.802612304688
arenacam6_1769616101419782938.png,1769616101419782938,1769616101.4197829,42.301061724097636,-83.6974500789872,239.00466918945312,0.7085512637794817,0.7055243136659072,0.009243995766116613,0.010251729855296186,0.0068800000000000016,0.028130000000000006,-0.008520000000000002,1.2966,1.1565,-10.753300000000001,1.248413724971962,2.792626597938781,10.309999465942383,16.170000076293945,15.4399995803833,3.6599998474121094,8.371814624540292,13.130189149351388,12.53742201606737,2.971953621297226,9.25284485281407,2.3133125852355385,4.300000190734863,43.72500228881836,0.0,264.0,0.0,0.0,0.0,snow/ice covered,0.235438406467438,-7.96249914169312,100.0,504.802612304688
arenacam6_1769616101440204392.png,1769616101440204392,1769616101.4402044,42.30106217765402,-83.69745007140334,239.00460815429688,0.7084240655418237,0.7056563405577255,0.009199739305954377,0.009991856112630914,0.018910000000000003,0.011300000000000003,-0.024900000000000002,1.5592000000000001,-1.4053,-11.3085,1.2819182002924503,2.867574098962194,9.75,16.44999885559082,15.719999313354492,3.819999933242798,7.917089895,13.357550739729195,12.764784380837519,3.101875166192537,9.285325045439812,2.238041886624751,4.599999904632568,44.150001525878906,0.0,264.0,0.0,0.0,0.0,snow/ice covered,0.235438406467438,-7.96249914169312,100.0,504.802612304688
arenacam6_1769616101460667479.png,1769616101460667479,1769616101.4606674,42.30106241942065,-83.69745006951368,239.00515747070312,0.7083665105002929,0.7057130141977737,0.009308424853165758,0.009969033066673051,0.012620000000000003,0.0012700000000000003,-0.01429,1.9258000000000002,0.7246,-9.5215,1.3450361306456977,3.0087651220865874,9.319999694824219,17.18000030517578,16.520000457763672,4.190000057220459,7.567925682594453,13.950318647405549,13.414392686108322,3.4023186782635406,9.583738923592966,2.185273205023932,4.700000286102295,44.95000076293945,0.0,252.0,0.0,0.0,0.0,snow/ice covered,0.235438406467438,-7.96249914169312,100.0,504.802612304688
arenacam6_1769616101481368154.png,1769616101481368154,1769616101.481368,42.30106241942065,-83.69745006951368,239.00515747070312,0.7082973772036832,0.705783142420231,0.009201128099969827,0.010016015350198934,0.008480000000000001,-0.02151,-0.020040000000000002,2.0796,-0.8858,-11.1029,1.3658709125603543,3.055371279142759,8.079999923706055,17.079999923706055,17.219999313354492,4.089999675750732,6.5610344356486126,13.869117415648613,13.982798210837517,3.321117446506605,9.433516877160336,2.087519000246374,4.800000190734863,45.29999923706055,0.0,248.0,0.0,0.0,0.0,snow/ice covered,0.235438406467438,-7.96249914169312,100.0,504.802612304688
arenacam6_1769616101502057229.png,1769616101502057229,1769616101.5020573,42.30106291084391,-83.69745007837363,239.00738525390625,0.7083024704720832,0.7057721555433865,0.009309676100420959,0.010324955868707538,-0.024130000000000006,-0.02807,0.004280000000000001,2.4253,0.8517,-10.8909,1.402327414419408,3.136922286411351,6.940000057220459,17.40999984741211,17.829999923706055,4.119999885559082,5.63534403326354,14.137080396297227,14.478124330648614,3.3454778934729195,9.399006663420575,1.9962510401152045,4.700000286102295,46.04999923706055,0.0,268.0,0.0,0.0,0.0,snow/ice covered,0.235438406467438,-7.96249914169312,100.0,504.802612304688
arenacam6_1769616101523171930.png,1769616101523171930,1769616101.523172,42.30106291084391,-83.69745007837363,239.00738525390625,0.7082969052531711,0.7057771940276129,0.009303661846113387,0.010367655257713784,-0.00505,-0.00693,-0.0019500000000000003,1.8788,1.1415,-9.3915,1.4211589052281606,3.1790472014610818,5.319999694824219,18.18000030517578,19.279998779296875,4.429999828338623,4.319888802594452,14.762327867405547,15.65553677037781,3.5972007052093797,9.583738536396798,2.014657514991327,4.5,46.32500076293945,0.0,372.0,0.0,0.0,0.0,snow/ice covered,0.235438406467438,-7.96249914169312,100.0,504.802612304688
arenacam6_1769616101543362046.png,1769616101543362046,1769616101.5433621,42.301063426867174,-83.69745009268078,239.0107421875,0.7082682362243652,0.7058028816679947,0.00915422831564988,0.010705040342115384,-0.01352,-0.009580000000000002,0.0024900000000000005,1.1965000000000001,0.09090000000000001,-10.266,1.464640397002275,3.2763126896702692,4.449999809265137,18.529998779296875,20.049999237060547,4.420000076293945,3.6134408741215327,15.046529855377807,16.28078424148613,3.5890808143513873,9.632458946334214,1.9400304118419274,4.400000095367432,47.07500076293945,0.0,372.0,0.0,0.0,0.0,snow/ice covered,0.235438406467438,-7.96249914169312,100.0,504.802612304688
arenacam6_1769616101564553040.png,1769616101564553040,1769616101.564553,42.30106369380839,-83.69745009603486,239.01226806640625,0.7082546840630053,0.7058148125609317,0.009108182854445144,0.010853288786320265,-0.00455,-0.00676,-0.004220000000000001,1.9884000000000002,0.42510000000000003,-9.440100000000001,1.5004498568729792,3.356416302833442,4.289999961853027,18.53999900817871,20.899999618530273,4.869999885559082,3.4835195228243068,15.05465013343197,16.970992388243065,3.9544848084729196,9.865911713243065,1.9394183626489936,4.200000286102295,47.70000076293945,0.0,388.0,0.0,0.0,0.0,snow/ice covered,0.235438406467438,-7.96249914169312,100.0,504.802612304688
arenacam6_1769616101584803116.png,1769616101584803116,1769616101.584803,42.30106369380839,-83.69745009603486,239.01226806640625,0.7082262769124738,0.7058423474721827,0.009032721207459675,0.010978668099681711,-0.0070100000000000015,-0.028400000000000005,-0.008610000000000001,1.8891,-0.6235,-9.968300000000001,1.519593361704867,3.3992391745320854,4.619999885559082,18.59000015258789,21.8799991607666,4.849999904632568,3.7514825034729196,15.095251523702775,17.766761052134743,3.9382446395607666,10.137934929717801,1.9824129486602884,4.099999904632568,47.57500076293945,0.0,396.0,0.0,0.0,0.0,snow/ice covered,0.235438406467438,-7.96249914169312,100.0,504.802612304688
arenacam6_1769616101605480548.png,1769616101605480548,1769616101.6054804,42.30106424421418,-83.69745010670106,239.01535034179688,0.7082329605054142,0.705833958966892,0.008996288947994929,0.011115880892860024,0.00638,0.0030800000000000003,-0.0027800000000000004,1.5352000000000001,0.46990000000000004,-9.394,1.5561247991717009,3.4809578082591446,4.679999828338623,19.35999870300293,23.049999237060547,4.730000019073486,3.8002030102093793,15.720497446026421,18.716811901486132,3.8408036260878466,10.519578995952445,2.022035765843819,4.099999904632568,48.20000076293945,0.0,396.0,0.0,0.0,0.0,snow/ice covered,0.235438406467438,-7.96249914169312,100.0,504.802612304688
arenacam6_1769616101626352968.png,1769616101626352968,1769616101.6263528,42.301064528013505,-83.69745011138096,239.0166473388672,0.708183631229728,0.7058832204634086,0.008993851215728226,0.011132572334945509,-0.004000000000000001,-0.005170000000000001,-0.0030100000000000005,2.0546,-0.1267,-8.878,1.5982465428330779,3.5751816215250254,4.779999732971191,20.049999237060547,24.25,4.989999771118164,3.8814038547701455,16.28078424148613,19.691223585,4.051925821945839,10.976334375800528,2.070147348519451,4.099999904632568,48.32500076293945,0.0,416.0,0.0,0.0,0.0,snow/ice covered,0.235438406467438,-7.96249914169312,100.0,504.802612304688
arenacam6_1769616101646878547.png,1769616101646878547,1769616101.6468785,42.301065110867505,-83.69745012128709,239.01866149902344,0.7081643259957612,0.7059024295891971,0.009042643252738333,0.011103057688838385,0.00708,0.024300000000000002,-0.015790000000000002,0.8389000000000001,1.1856,-9.5779,1.6168404211207466,3.616775011621843,4.809999942779541,20.44999885559082,25.029998779296875,4.880000114440918,3.90576430173646,16.605587619729196,20.32458978537781,3.962605086527081,11.199636698342639,2.0965809767969144,4.099999904632568,48.67499923706055,0.0,416.0,0.0,0.0,0.0,snow/ice covered,0.235438406467438,-7.96249914169312,100.0,504.802612304688
arenacam6_1769616101668601406.png,1769616101668601406,1769616101.6686013,42.301065110867505,-83.69745012128709,239.01866149902344,0.7081292490787476,0.705939700269551,0.009118496520017895,0.010906842059912075,0.017310000000000002,0.03867,-0.009830000000000002,1.3494000000000002,1.0738,-8.6472,1.6307144189632332,3.6478103123556154,5.0,21.15999984741211,25.639999389648438,4.980000019073486,4.0600461,17.182114971297228,20.819915905188903,4.043805931087847,11.526470726893495,2.1598328147304744,4.0,48.95000076293945,0.0,452.0,0.0,0.0,0.0,snow/ice covered,0.235438406467438,-7.96249914169312,100.0,504.802612304688
arenacam6_1769616101688468049.png,1769616101688468049,1769616101.688468,42.30106540935599,-83.69745012400107,239.01930236816406,0.7080683157715814,0.7060037570728637,0.00914879808228836,0.010688998692419271,0.006450000000000001,0.0029000000000000007,-0.011510000000000001,2.2463,-0.6613,-9.122,1.6805226121807988,3.759228252091716,5.46999979019165,22.020000457763672,25.869998931884766,5.170000076293945,4.441690263033686,17.880443396108323,21.006677654080583,4.198087729351387,11.881724760643493,2.160681917633558,3.9000000953674316,49.0,0.0,668.0,0.0,0.0,0.0,snow/ice covered,0.235438406467438,-7.96249914169312,100.0,504.802612304688
arenacam6_1769616101709116555.png,1769616101709116555,1769616101.7091167,42.3010660247623,-83.69745012972484,239.02001953125,0.7079914449695709,0.7060835853857821,0.00951171201511348,0.01017897996851837,0.021290000000000003,0.05965000000000001,-0.013610000000000002,1.5025000000000002,0.9569000000000001,-9.481900000000001,1.7021165171713475,3.8075325219212743,5.670000076293945,22.719999313354492,26.1299991607666,5.769999980926514,4.604092339351387,18.448848920837516,21.217800237134743,4.685293183912153,12.239008670308948,2.214419995061044,3.6000001430511475,49.125,0.0,660.0,0.0,0.0,0.0,snow/ice covered,0.235438406467438,-7.96249914169312,100.0,504.802612304688
arenacam6_1769616101729685960.png,1769616101729685960,1769616101.729686,42.3010660247623,-83.69745012972484,239.02001953125,0.7079228501987238,0.7061543581258803,0.009592912131025751,0.009961762052345165,0.01948,0.042510000000000006,-0.019300000000000005,2.8934,-0.3242,-9.7291,1.7311051273390237,3.872378303549756,6.039999961853027,23.420000076293945,26.15999984741211,6.299999713897705,4.904535657824306,19.017255994351387,21.24216107129723,5.115657853682299,12.569902644288804,2.246042008025442,3.200000047683716,49.22500228881836,0.0,660.0,0.0,0.0,0.0,snow/ice covered,0.235438406467438,-7.96249914169312,100.0,504.802612304688
arenacam6_1769616101750310215.png,1769616101750310215,1769616101.7503102,42.3010660247623,-83.69745012972484,239.02001953125,0.7078248078763666,0.7062513613635095,0.009925499532622237,0.009723188057510043,-0.01429,0.03465000000000001,-0.011800000000000001,0.9148000000000001,0.29150000000000004,-9.9247,1.770187356011651,3.9598029041567027,6.159999847412109,23.649999618530273,26.010000228881836,6.549999713897705,5.001976671297226,19.204017743243067,21.120359998054163,5.318660158682299,12.661253642819188,2.1974454156615617,2.6000001430511475,49.57500076293945,0.0,756.0,0.0,0.0,0.0,snow/ice covered,0.235438406467438,-7.96249914169312,100.0,504.802612304688
arenacam6_1769616101792037825.png,1769616101792037825,1769616101.792038,42.301066985460594,-83.69745013315585,239.02085876464844,0.7076904792079157,0.7063902720714818,0.010138288833561531,0.00917519813278399,0.021590000000000005,0.02248,-0.017190000000000004,3.3993,-0.9390000000000001,-10.0182,1.8407278408663346,4.1175977363475385,6.029999732971191,25.029998779296875,25.969999313354492,8.420000076293945,4.896415379770145,20.32458978537781,21.08787888583752,6.837117694351387,13.286500436334215,2.226760185690172,1.0,49.60000228881836,0.0,880.0,0.0,0.0,0.0,snow/ice covered,0.235438406467438,-7.96249914169312,100.0,504.802612304688
arenacam6_1769616101812371237.png,1769616101812371237,1769616101.8123713,42.30106765793229,-83.69745013060965,239.02151489257812,0.7076060737885879,0.7064728087233106,0.010328216119579122,0.009118268688899018,-0.005460000000000001,0.017270000000000004,-0.005940000000000001,1.3123,1.5426,-9.6897,1.877937043697949,4.200832490529691,5.75,25.56999969482422,25.420000076293945,9.809999465942383,4.669053015,20.763075507594454,20.641274434351388,7.965810014540291,13.509803242871532,2.2159823733338286,0.0,50.400001525878906,0.0,900.0,0.0,0.0,0.0,snow/ice covered,0.235438406467438,-7.96249914169312,100.0,504.802612304688
arenacam6_1769616101833213442.png,1769616101833213442,1769616101.8332133,42.30106765793229,-83.69745013060965,239.02151489257812,0.7075252325248231,0.7065549452294458,0.010373568120151796,0.008974619600085505,0.013950000000000002,0.027070000000000004,-0.022760000000000002,2.1673,0.6728000000000001,-9.388300000000001,1.8994368034059945,4.248926163011006,5.759999752044678,25.760000228881836,23.920000076293945,14.09999942779541,4.677172905857993,20.917357693054164,19.423260604351388,11.449329537364598,14.116780185157035,2.3224348090702445,-0.800000011920929,51.150001525878906,0.0,896.0,0.0,0.0,0.0,snow/ice covered,0.235438406467438,-7.96249914169312,100.0,504.802612304688
arenacam6_1769616101853873252.png,1769616101853873252,1769616101.8538733,42.30106800337138,-83.69745013875256,239.02206420898438,0.7073670288196952,0.7067105441844909,0.010474143904362224,0.009076650633800358,-0.016440000000000003,-0.005550000000000001,-0.007250000000000001,2.1365000000000003,0.011600000000000001,-10.359300000000001,1.9683338959354226,4.403044825173785,6.009999752044678,25.979999542236328,22.43000030517578,16.520000457763672,4.880175210857993,21.09599916389168,18.213367052405548,13.414392686108322,14.400983528315885,2.270687467449866,-1.7000000476837158,52.04999923706055,0.0,940.0,0.0,0.0,0.0,snow/ice covered,0.235438406467438,-7.96249914169312,100.0,504.802612304688
arenacam6_1769616101874992579.png,1769616101874992579,1769616101.8749926,42.30106871710338,-83.69745014382623,239.02317810058594,0.7072850286268065,0.7067910220007811,0.010437994737019236,0.009240550056052947,-0.006820000000000001,-0.0036200000000000004,-0.010870000000000001,0.9237000000000001,0.3524,-10.1769,1.9915467805076923,4.454970655188878,6.089999675750732,25.84000015258789,20.689998626708984,18.119998931884766,4.9451358865066055,20.982318368702774,16.800469646675033,14.713606199080584,14.36038252524125,2.2234516536074493,-2.299999952316284,53.22500228881836,0.0,928.0,0.0,0.0,0.0,snow/ice covered,0.235438406467438,-7.96249914169312,100.0,504.802612304688
arenacam6_1769616101895084819.png,1769616101895084819,1769616101.8950849,42.30106871710338,-83.69745014382623,239.02317810058594,0.70723371963159,0.7068418801147938,0.010466944516158398,0.009244750096386797,-0.004600000000000001,0.0037600000000000008,-0.014450000000000003,1.3303,-0.6552,-9.4191,2.004636477014548,4.484251520892923,6.440000057220459,25.719999313354492,19.399999618530273,18.869998931884766,5.229339423263541,20.884876580837517,15.752978558243067,15.322613114080582,14.297451919106177,2.1883697541254796,-2.9000000953674316,54.04999923706055,0.0,652.0,0.0,0.0,0.0,snow/ice covered,0.235438406467438,-7.96249914169312,100.0,504.802612304688
arenacam6_1769616101916171872.png,1769616101916171872,1769616101.9161718,42.30106908255881,-83.69745014982716,239.02389526367188,0.7072315334966409,0.706841208474686,0.010392603650172848,0.009542422093244667,-0.0036000000000000008,-0.020220000000000002,0.00253,1.0338,0.6214000000000001,-9.765500000000001,2.0556243105155887,4.598308245164741,6.759999752044678,25.1299991607666,18.479999542236328,19.369998931884766,5.489182125857993,20.405791017134746,15.005930013891678,15.728617724080582,14.15738022024125,2.078823659794482,-3.1000001430511475,54.20000076293945,0.0,376.0,0.0,0.0,0.0,snow/ice covered,0.235438406467438,-7.96249914169312,100.0,504.802612304688
arenacam6_1769616101936565317.png,1769616101936565317,1769616101.9365652,42.30106945089521,-83.69745015524548,239.0243682861328,0.7072133752494318,0.7068594815828823,0.01037658288237068,0.009552051736186836,0.00099,-0.0035900000000000003,-0.005230000000000001,0.9364,-0.0838,-9.3594,2.0649174000659754,4.619096328903583,6.659999847412109,24.75,18.059999465942383,18.979999542236328,5.407981281297226,20.097228195,14.66488607954029,15.411934623891678,13.895507544932297,2.0082740335988225,-3.299999952316284,54.17499923706055,0.0,376.0,0.0,0.0,0.0,snow/ice covered,0.235438406467438,-7.96249914169312,100.0,504.802612304688
arenacam6_1769616101957127575.png,1769616101957127575,1769616101.9571276,42.30106982762187,-83.69745016569503,239.0249481201172,0.707262729118584,0.7068108823961249,0.010289640582595436,0.009588108407025455,0.00321,-0.006200000000000001,0.00786,1.8037,0.10640000000000001,-10.243,2.1079025557492455,4.715251543057717,6.089999675750732,24.420000076293945,17.18000030517578,17.520000457763672,4.9451358865066055,19.82926521435139,13.950318647405549,14.226401906108324,13.237780413592967,1.8074388593505688,-3.1000001430511475,54.54999923706055,0.0,468.0,0.0,0.0,0.0,snow/ice covered,0.235438406467438,-7.96249914169312,100.0,504.802612304688
arenacam6_1769616101978061275.png,1769616101978061275,1769616101.9780612,42.3010705888832,-83.69745018242325,239.02645874023438,0.7073287234935036,0.706746083899358,0.01012289599497346,0.009673509737799466,0.008040000000000002,-0.023280000000000002,0.012480000000000002,0.7267,0.8955000000000001,-10.215200000000001,2.1325991450798147,4.770496331594841,6.210000038146973,24.25,16.760000228881836,15.869999885559082,5.0425772871756935,19.691223585,13.609274713054162,12.88658622847292,12.807415453425694,1.684713405731517,-3.0,54.79999923706055,0.0,488.0,0.0,0.0,0.0,snow/ice covered,0.235438406467438,-7.96249914169312,100.0,504.802612304688
arenacam6_1769616101998770818.png,1769616101998770818,1769616101.998771,42.301070980546974,-83.69745019334019,239.0276336669922,0.7074579125025778,0.7066198025963248,0.009972702673761047,0.009607383494295326,0.005030000000000001,-0.00192,0.013750000000000002,1.6723000000000001,0.5081,-10.028500000000001,2.1731865820647682,4.8612879928839625,6.309999942779541,23.5,15.949999809265137,14.960000038146973,5.12377813173646,19.08221667,12.951546904121534,12.147657962175694,12.326299917008422,1.5356037196421757,-2.700000047683716,55.025001525878906,0.0,504.0,0.0,0.0,0.0,snow/ice covered,0.235438406467438,-7.96249914169312,100.0,504.802612304688
arenacam6_1769616102020317288.png,1769616102020317288,1769616102.020317,42.301070980546974,-83.69745019334019,239.0276336669922,0.7075098712133485,0.7065685842738904,0.009865898043944532,0.009658255983768536,0.00795,-0.022470000000000004,0.014210000000000002,1.6192,0.35200000000000004,-10.268600000000001,2.1892730445558675,4.897272444288802,6.449999809265137,23.059999465942383,14.65999984741211,14.019999504089355,5.237459314121533,18.724932179540293,11.904055041297227,11.384368861715986,11.81270384916876,1.412098567835394,-2.6000001430511475,54.92499923706055,0.0,516.0,0.0,0.0,0.0,snow/ice covered,0.235438406467438,-7.96249914169312,100.0,504.802612304688
arenacam6_1769616102039912381.png,1769616102039912381,1769616102.0399125,42.30107177010874,-83.69745021133302,239.03013610839844,0.7075814844164324,0.7064987531045248,0.009721736674342436,0.009666571720342944,0.006950000000000001,-0.00821,0.01071,1.4462000000000002,-0.0194,-10.6669,2.2144508798077993,4.953593751077259,6.539999961853027,22.84000015258789,13.25,13.119999885559082,5.310540267824307,18.546290708702777,10.759122165,10.65356087347292,11.317378503750001,1.2846803901286434,-2.4000000953674316,55.04999923706055,0.0,516.0,0.0,0.0,0.0,snow/ice covered,0.235438406467438,-7.96249914169312,100.0,504.802612304688
arenacam6_1769616102060569658.png,1769616102060569658,1769616102.0605695,42.301072176093115,-83.69745021928976,239.03182983398438,0.7077047369128683,0.7063784199144088,0.009461948883147454,0.009695604862187537,0.017910000000000002,-0.01958,0.004050000000000001,1.3409,0.5743,-10.0794,2.2528336604136796,5.0394537283257765,6.46999979019165,22.719999313354492,11.739999771118164,12.420000076293945,5.253699483033686,18.448848920837516,9.532988056945838,10.085154574351387,10.830172758792106,1.1490767338368122,-2.4000000953674316,55.375,0.0,580.0,0.0,0.0,0.0,snow/ice covered,0.235438406467438,-7.96249914169312,100.0,504.802612304688
arenacam6_1769616102081638390.png,1769616102081638390,1769616102.0816383,42.301072176093115,-83.69745021928976,239.03182983398438,0.7077310554850673,0.7063541946160282,0.009367626517568808,0.009630805976759327,0.022580000000000003,-0.00425,0.007100000000000001,0.9821000000000001,0.8045,-9.935400000000001,2.262638712594925,5.061387041752092,6.579999923706055,22.06999969482422,10.779999732971191,11.179999351501465,5.343020605648613,17.921043237594454,8.753459174770146,9.07826255301321,10.273946392756605,1.0298677631260715,-2.4000000953674316,55.150001525878906,0.0,580.0,0.0,0.0,0.0,snow/ice covered,0.235438406467438,-7.96249914169312,100.0,504.802612304688
arenacam6_1769616102102013981.png,1769616102102013981,1769616102.102014,42.30107299337415,-83.69745023251852,239.03529357910156,0.7078210778740435,0.7062679190923956,0.009089974083690942,0.009608358303191362,0.010520000000000002,-0.014550000000000002,0.006220000000000002,0.8312,0.9132,-10.076400000000001,2.3023971797828997,5.15032434734356,6.739999771118164,21.739999771118164,10.229999542236328,9.420000076293945,5.4729419569458395,17.653080256945838,8.306853948891678,7.649126914351387,9.770500769283686,0.8970651381059381,-2.5,54.85000228881836,0.0,672.0,0.0,0.0,0.0,snow/ice covered,0.235438406467438,-7.96249914169312,100.0,504.802612304688
arenacam6_1769616102123327865.png,1769616102123327865,1769616102.1233277,42.30107341353087,-83.69745023652963,239.03732299804688,0.7078593683230525,0.7062340831101713,0.008911855850378585,0.009439987082977209,0.027320000000000004,-0.00338,0.0028700000000000006,1.9096000000000002,0.43810000000000004,-10.2875,2.3316135599491035,5.215679636792548,6.849999904632568,21.559999465942383,8.380000114440918,7.019999980926514,5.562263079560767,17.506918349540292,6.804637356527081,5.700304708912154,8.893530873635074,0.7051528262775489,-2.5,55.10000228881836,0.0,636.0,0.0,0.0,0.0,snow/ice covered,0.235438406467438,-7.96249914169312,100.0,504.802612304688
arenacam6_1769616102143547002.png,1769616102143547002,1769616102.1435468,42.30107341353087,-83.69745023652963,239.03732299804688,0.7078631644516048,0.706232583974084,0.008777173834489374,0.009393559779339321,0.025700000000000004,-0.012570000000000003,0.0005700000000000001,1.8137,0.21860000000000002,-10.0944,2.3497982943275546,5.256357796513081,6.87999963760376,21.139999389648438,6.920000076293945,6.949999809265137,5.586623139330912,17.165874415188906,5.619103864351388,5.643463924121533,8.503766335748184,0.6178058391286343,-2.6000001430511475,54.85000228881836,0.0,636.0,0.0,0.0,0.0,snow/ice covered,0.235438406467438,-7.96249914169312,100.0,504.802612304688
arenacam6_1769616102164040870.png,1769616102164040870,1769616102.164041,42.301074261775184,-83.69745024290238,239.0414581298828,0.7079173439260148,0.7061841541401856,0.00842273958650538,0.009275347319918663,0.022350000000000005,-0.0019100000000000002,0.0022800000000000003,1.4497,0.7517,-9.810400000000001,2.3881727509397925,5.34219915348726,6.980000019073486,20.75,6.759999752044678,6.909999847412109,5.667824371087846,16.849191315,5.489182125857993,5.610983586297227,8.404295349560766,0.5731901990352872,-2.6000001430511475,54.92499923706055,0.0,700.0,0.0,0.0,0.0,snow/ice covered,0.235438406467438,-7.96249914169312,100.0,504.802612304688
arenacam6_1769616102185146985.png,1769616102185146985,1769616102.1851468,42.301074261775184,-83.69745024290238,239.0414581298828,0.7078974299183106,0.7062061645386009,0.008297911458763118,0.009231822580167623,0.024450000000000003,-0.011290000000000001,-0.005170000000000001,1.9877,0.8409000000000001,-9.6205,2.408176018155178,5.386945262052044,7.099999904632568,20.229999542236328,7.029999732971191,6.929999828338623,5.765265384560767,16.426946148891677,5.7084245997701455,5.627223755209379,8.381964972107992,0.5559773794536494,-2.6000001430511475,55.25,0.0,680.0,0.0,0.0,0.0,snow/ice covered,0.235438406467438,-7.96249914169312,100.0,504.802612304688
arenacam6_1769616102205871710.png,1769616102205871710,1769616102.2058716,42.30107513698116,-83.69745024883754,239.04624938964844,0.7078403642858873,0.7062685013795896,0.007925059987699575,0.009166028084296252,0.013320000000000002,-0.011050000000000003,-0.00335,1.4618,0.1072,-10.0138,2.4615186431859293,5.506269513688333,7.12999963760376,19.959999084472656,7.210000038146973,7.25,5.789625444330912,16.207703287783357,5.854586507175694,5.887066845,8.43474552107249,0.5318439281085132,-2.6000001430511475,55.400001525878906,0.0,684.0,0.0,0.0,0.0,snow/ice covered,0.235438406467438,-7.96249914169312,100.0,504.802612304688
arenacam6_1769616102226504472.png,1769616102226504472,1769616102.2265046,42.301075583757324,-83.6974502457877,239.04830932617188,0.7078142143202333,0.7062967381812139,0.007773059687011865,0.00913975841644946,0.02035,-0.01264,-0.00502,2.185,0.46940000000000004,-9.715900000000001,2.5027212777506813,5.598437335051609,7.179999828338623,19.389999389648438,7.5,7.409999847412109,5.83022606020938,15.744858280188904,6.090069150000001,6.016988196297226,8.420535421673877,0.5040867509498081,-2.5,55.42499923706055,0.0,692.0,0.0,0.0,0.0,snow/ice covered,0.235438406467438,-7.96249914169312,100.0,504.802612304688
arenacam6_1769616102247040965.png,1769616102247040965,1769616102.247041,42.301076496481855,-83.69745024782502,239.05294799804688,0.7077516616122403,0.7063572619420254,0.007478194062858899,0.009543615689882472,-0.012940000000000002,-0.05246000000000001,0.006640000000000001,-0.0177,1.8835000000000002,-9.689,2.542377380715229,5.6871456580171245,7.25,18.889999389648438,7.569999694824219,7.539999961853027,5.887066845,15.338853670188904,6.146909547594452,6.122549487824307,8.373844887651916,0.47241611015314394,-2.200000047683716,55.32500076293945,0.0,692.0,0.0,0.0,0.0,snow/ice covered,0.235438406467438,-7.96249914169312,100.0,504.802612304688
arenacam6_1769616102268204923.png,1769616102268204923,1769616102.2682047,42.301076496481855,-83.69745024782502,239.05294799804688,0.7077450083952235,0.7063662792341853,0.007428595307560123,0.009407370740785242,0.026770000000000006,0.01238,-0.00144,0.25320000000000004,1.181,-8.8772,2.545235180158382,5.693538383903491,7.609999656677246,18.399999618530273,7.559999942779541,7.480000019073486,6.179389885418758,14.940969338243065,6.13878965673646,6.073828981087847,8.333244465371532,0.46363191103284657,-2.1000001430511475,55.35000228881836,0.0,688.0,0.0,0.0,0.0,snow/ice covered,0.235438406467438,-7.96249914169312,100.0,504.802612304688
arenacam6_1769616102288417077.png,1769616102288417077,1769616102.288417,42.301076496481855,-83.69745024782502,239.05294799804688,0.7076843165309561,0.706428433833468,0.007271349690424592,0.009428864268110317,0.019190000000000006,-0.025100000000000004,-0.0177,1.7736,-1.7007,-10.3373,2.5632555958902064,5.733848972670638,7.779999732971191,17.940000534057617,7.589999675750732,7.440000057220459,6.317431514770146,14.56744584045971,6.163149716506606,6.041348643263541,8.27234392875,0.44272093111950506,-2.0,55.04999923706055,0.0,672.0,0.0,0.0,0.0,snow/ice covered,0.235438406467438,-7.96249914169312,100.0,504.802612304688
arenacam6_1769616102309271076.png,1769616102309271076,1769616102.309271,42.301077423807854,-83.6974502607398,239.05703735351562,0.707721182208703,0.7063883902294081,0.007344901343674985,0.009603271654638581,-0.0034700000000000004,-0.011100000000000002,0.016810000000000002,1.3010000000000002,1.0984,-9.104000000000001,2.588164608665001,5.789568939707087,7.929999828338623,17.43000030517578,7.71999979019165,7.759999752044678,6.4392329752093795,14.153320952405549,6.268711008033685,6.301191345857993,8.290614070376652,0.4319915967346785,-2.0,55.150001525878906,0.0,672.0,0.0,0.0,0.0,snow/ice covered,0.235438406467438,-7.96249914169312,100.0,504.802612304688
arenacam6_1769616102329752203.png,1769616102329752203,1769616102.3297522,42.30107789270539,-83.69745027188112,239.0587921142578,0.7076857108306817,0.7064273381110866,0.007240218505022432,0.009430264649357674,0.01872,-0.006550000000000001,-0.008730000000000002,2.148,-1.1031,-9.0393,2.629220284900908,5.881408024106237,7.849999904632568,17.010000228881836,7.829999923706055,7.859999656677246,6.374272299560767,13.812277018054163,6.358032130648613,6.382392190418759,8.231743409670575,0.3996212090592888,-1.899999976158142,55.20000076293945,0.0,648.0,0.0,0.0,0.0,snow/ice covered,0.235438406467438,-7.96249914169312,100.0,504.802612304688
arenacam6_1769616102350295806.png,1769616102350295806,1769616102.3502958,42.301078852990365,-83.69745029210641,239.0606689453125,0.7077964332788872,0.7063186149208722,0.007281412780049177,0.009230616548902953,0.007490000000000002,0.009470000000000001,0.008890000000000002,1.8119,-0.30310000000000004,-8.7699,2.676306682100035,5.986737469456853,7.919999599456787,16.670000076293945,7.960000038146973,7.949999809265137,6.431112697155218,13.536193759351388,6.463593422175694,6.455473144121533,8.221593255700958,0.37330111728564946,-1.899999976158142,55.0,0.0,652.0,0.0,0.0,0.0,snow/ice covered,0.235438406467438,-7.96249914169312,100.0,504.802612304688
arenacam6_1769616102371121766.png,1769616102371121766,1769616102.3711216,42.301078852990365,-83.69745029210641,239.0606689453125,0.7078228501185471,0.7062929484162758,0.007333168201111187,0.009127349650086925,0.0073500000000000015,0.02186,0.007480000000000001,1.8481,0.2364,-9.487300000000001,2.6950198147799074,6.0285976244737665,8.229999542236328,16.43000030517578,8.019999504089355,7.949999809265137,6.682835508891679,13.341311732405547,6.512313541715985,6.455473144121533,8.247983481783686,0.3681429737987612,-1.8000000715255737,55.275001525878906,0.0,616.0,0.0,0.0,0.0,snow/ice covered,0.235438406467438,-7.96249914169312,100.0,504.802612304688
arenacam6_1769616102391984466.png,1769616102391984466,1769616102.3919845,42.301079338988984,-83.6974503073103,239.06149291992188,0.7079285753569005,0.7061889095317072,0.007397847599352624,0.008923457763914878,0.010360000000000001,0.023690000000000003,0.016810000000000002,1.6839000000000002,-0.0922,-9.849,2.7284085575220125,6.103286238663291,8.309999465942383,16.260000228881836,8.119999885559082,8.029999732971191,6.747796184540291,13.203270103054162,6.59351477347292,6.520433819770146,8.26625372020938,0.3543939112414645,-1.8000000715255737,55.25,0.0,620.0,0.0,0.0,0.0,snow/ice covered,0.235438406467438,-7.96249914169312,100.0,504.802612304688
arenacam6_1769616102433194305.png,1769616102433194305,1769616102.4331942,42.30108033619647,-83.69745033589331,239.06243896484375,0.7081191505492188,0.7059982236965842,0.0077467040241101645,0.008588675071484815,-0.008960000000000003,0.021580000000000005,0.013850000000000001,2.0645000000000002,0.5081,-9.9722,2.799005995925691,6.2612084725260155,8.609999656677246,15.579999923706055,8.309999465942383,8.289999961853027,6.9913991054187585,12.651103585648613,6.747796184540291,6.731556402824307,8.280463819607991,0.322502493878363,-1.8000000715255737,55.125,0.0,608.0,0.0,0.0,0.0,snow/ice covered,0.235438406467438,-7.96249914169312,100.0,504.802612304688
arenacam6_1769616102453720733.png,1769616102453720733,1769616102.4537208,42.30108084046137,-83.69745035181062,239.0631103515625,0.7082201501278623,0.7058959938157108,0.00795922604475716,0.008468505686753643,-0.005730000000000001,0.008740000000000001,0.011600000000000003,1.6023,0.4847,-10.210600000000001,2.8522186501605327,6.380241987290102,8.539999961853027,15.25999927520752,8.300000190734863,8.420000076293945,6.934558707824307,12.391260108661823,6.739676680878468,6.837117694351387,8.225653297928996,0.28923845119277386,-1.7000000476837158,55.20000076293945,0.0,588.0,0.0,0.0,0.0,snow/ice covered,0.235438406467438,-7.96249914169312,100.0,504.802612304688
arenacam6_1769616102495160132.png,1769616102495160132,1769616102.49516,42.301081875956,-83.69745037627982,239.06423950195312,0.7083043668521054,0.7058090532406246,0.0082815477857173,0.008361831622574529,-0.015570000000000002,0.022180000000000002,0.006120000000000001,1.7568000000000001,0.321,-9.3527,2.905032487692051,6.498383373017857,8.679999351501465,14.839999198913574,8.649999618530273,8.720000267028809,7.04823950301321,12.050216174310437,7.023879443243065,7.080720615229854,8.300763933949142,0.2773582993602695,-1.100000023841858,55.17499923706055,0.0,548.0,0.0,0.0,0.0,snow/ice covered,0.235438406467438,-7.96249914169312,100.0,504.802612304688
arenacam6_1769616102515931640.png,1769616102515931640,1769616102.5159316,42.30108240044229,-83.6974503887851,239.0651092529297,0.7083401249431082,0.7057688353210836,0.008622947060750525,0.008382318837324406,-0.014180000000000002,0.01327,0.0022500000000000003,2.1046,0.4772,-10.4174,2.9674706976730763,6.638053902452811,8.90999984741211,14.630000114440918,8.9399995803833,8.899999618530273,7.235002026297226,11.879694981527082,7.259362086067371,7.226881748243065,8.400235210533687,0.2654665560081903,-0.699999988079071,55.025001525878906,0.0,532.0,0.0,0.0,0.0,snow/ice covered,0.235438406467438,-7.96249914169312,100.0,504.802612304688
arenacam6_1769616102536572244.png,1769616102536572244,1769616102.5365722,42.30108347756186,-83.69745041019002,239.0668487548828,0.7083745018909408,0.7057316262768123,0.008796379792756374,0.008429735819653337,-0.015140000000000002,0.01563,0.006490000000000001,1.6335000000000002,0.37470000000000003,-9.874,3.00167444434527,6.714565631533708,9.0,14.460000038146973,9.039999961853027,8.819999694824219,7.30808298,11.741653352175694,7.340563317824307,7.161921072594452,8.388055180648614,0.24923273387271297,-0.10000000149011612,55.10000228881836,0.0,520.0,0.0,0.0,0.0,snow/ice covered,0.235438406467438,-7.96249914169312,100.0,504.802612304688
arenacam6_1769616102557166607.png,1769616102557166607,1769616102.5571666,42.30108402247665,-83.69745041997588,239.0679473876953,0.7083846606450868,0.7057180277497676,0.009031634228298068,0.008465663287035904,-0.005790000000000001,0.006300000000000001,0.00075,1.7012,0.9646,-10.563500000000001,3.0577337269429776,6.839966883147825,9.15999984741211,14.139999389648438,9.529999732971191,9.050000190734863,7.438004331297226,11.481809875188905,7.738447649770146,7.348683595878468,8.501736363033686,0.24294993064660828,0.699999988079071,55.10000228881836,0.0,504.0,0.0,0.0,0.0,snow/ice covered,0.235438406467438,-7.96249914169312,100.0,504.802612304688
arenacam6_1769616102577959542.png,1769616102577959542,1769616102.5779595,42.30108457592494,-83.69745042595711,239.06910705566406,0.7083843720729767,0.7057186312564245,0.009039839522447607,0.008430670302045822,0.0038500000000000006,0.0061600000000000005,-0.00011000000000000002,1.8072000000000001,0.6278,-10.699200000000001,3.0756588174828714,6.880064235180135,9.469999313354492,13.90999984741211,9.539999961853027,9.1899995803833,7.689726755837517,11.295048126297226,7.746567927824307,7.462364391067371,8.548426800256607,0.24249229484596385,1.899999976158142,55.10000228881836,0.0,488.0,0.0,0.0,0.0,snow/ice covered,0.235438406467438,-7.96249914169312,100.0,504.802612304688
arenacam6_1769616102598517239.png,1769616102598517239,1769616102.5985172,42.30108514021025,-83.69745043357283,239.07061767578125,0.7083862401462897,0.7057192418972554,0.00899205794534018,0.008272199300903005,0.01162,0.006300000000000001,0.0020000000000000005,1.8306,0.35400000000000004,-9.8871,3.134883207725032,7.012545642688434,9.769999504089355,13.719999313354492,9.269999504089355,9.34999942779541,7.933329676715984,11.140765940837518,7.527325066715985,7.592285742364598,8.548426606658522,0.21901903277755624,2.9000000953674316,55.375,0.0,488.0,0.0,0.0,0.0,snow/ice covered,0.235438406467438,-7.96249914169312,100.0,504.802612304688
arenacam6_1769616102620324461.png,1769616102620324461,1769616102.6203244,42.30108514021025,-83.69745043357283,239.07061767578125,0.7083916035683147,0.7057153626449305,0.008962849115416324,0.008174977466641834,0.01794,0.009550000000000001,0.0014600000000000004,1.9074,0.86,-9.704600000000001,3.1538120111701318,7.054888240266915,10.210000038146973,13.25,9.479999542236328,9.389999389648438,8.290614167175693,10.759122165,7.697847033891678,7.624766080188904,8.59308736156407,0.21803309548089436,3.799999952316284,55.125,0.0,472.0,0.0,0.0,0.0,snow/ice covered,0.235438406467438,-7.96249914169312,100.0,504.802612304688
arenacam6_1769616102639998905.png,1769616102639998905,1769616102.639999,42.30108628061882,-83.69745044272227,239.07359313964844,0.7083829578981296,0.7057288835345515,0.008789126404438396,0.007942239080962268,0.029120000000000004,-0.0006300000000000001,-0.0018300000000000002,2.4104,-0.1819,-9.9891,3.2036185702264817,7.166302524482426,10.920000076293945,12.880000114440918,9.619999885559082,9.4399995803833,8.867140744351389,10.458678846527082,7.81152860347292,7.665366696067372,8.70067872260469,0.21410988342737902,4.800000190734863,55.04999923706055,0.0,464.0,0.0,0.0,0.0,snow/ice covered,0.235438406467438,-7.96249914169312,100.0,504.802612304688
arenacam6_1769616102661048344.png,1769616102661048344,1769616102.6610484,42.30108686676213,-83.69745044500219,239.07489013671875,0.7084141913856499,0.7057016150956371,0.008702715411468932,0.007669852625197021,0.025690000000000004,0.017210000000000003,0.0018100000000000002,1.6475000000000002,1.5711000000000002,-8.9604,3.256275608743246,7.284093160222118,12.359999656677246,12.460000038146973,9.90999984741211,9.699999809265137,10.03643368041876,10.117634912175694,8.047011246297227,7.876489279121533,9.019392279503304,0.23823131872578504,5.700000286102295,55.35000228881836,0.0,456.0,0.0,0.0,0.0,snow/ice covered,0.235438406467438,-7.96249914169312,100.0,504.802612304688
arenacam6_1769616102681572841.png,1769616102681572841,1769616102.681573,42.30108686676213,-83.69745044500219,239.07489013671875,0.708380616610862,0.7057379677514855,0.008656089077207113,0.007476296269246678,0.03413000000000001,0.02084,-0.009680000000000001,2.5649,0.7211000000000001,-9.5481,3.28170258258241,7.340971775081897,13.34000015258789,12.09000015258789,9.969999313354492,9.819999694824219,10.832203118702774,9.817191593702775,8.095731365837517,7.973930292594452,9.17976409270938,0.2504835019076162,6.400000095367432,55.25,0.0,456.0,0.0,0.0,0.0,snow/ice covered,0.235438406467438,-7.96249914169312,100.0,504.802612304688
arenacam6_1769616102702329648.png,1769616102702329648,1769616102.7023296,42.30108805282124,-83.69745045187867,239.07785034179688,0.7083136040454804,0.7058099451649469,0.008504590971956907,0.007199414056491167,0.013690000000000003,0.0024500000000000004,-0.00338,2.1572,0.3623,-10.659,3.3527232101418467,7.499840657694703,14.059999465942383,12.09999942779541,10.109999656677246,10.079999923706055,11.416849199540291,9.825311097364597,8.20941293541876,8.185052875648612,9.409156526993065,0.2545808579732209,6.900000095367432,54.79999923706055,0.0,300.0,0.0,0.0,0.0,snow/ice covered,0.235438406467438,-7.96249914169312,100.0,504.802612304688
arenacam6_1769616102723041623.png,1769616102723041623,1769616102.7230415,42.30108805282124,-83.69745045187867,239.07785034179688,0.7082806206986885,0.7058440993186262,0.008492007943620199,0.007110246187265342,0.014990000000000002,0.01055,-0.008510000000000002,2.2204,0.3811,-9.9771,3.374640093446465,7.548867410634136,14.549999237060547,12.619999885559082,10.1899995803833,10.300000190734863,11.81473353148613,10.24755626347292,8.274373611067372,8.363695120878468,9.675089631726223,0.2816610897280915,7.200000286102295,55.0,0.0,312.0,0.0,0.0,0.0,snow/ice covered,0.235438406467438,-7.96249914169312,100.0,504.802612304688
arenacam6_1769616102743436123.png,1769616102743436123,1769616102.743436,42.30108927320979,-83.6974504609624,239.08123779296875,0.7082149297995421,0.7059110780568446,0.008488602186583507,0.007007618609108583,0.006120000000000001,0.007480000000000001,-0.006450000000000001,2.1201000000000003,0.1024,-9.4879,3.4206313940655897,7.651747190641081,14.789999961853027,12.989999771118164,10.389999389648438,10.40999984741211,12.009616332824306,10.54799958194584,8.436775300188904,8.453015856297226,9.86185176781407,0.2888365914488376,7.300000190734863,55.400001525878906,0.0,212.0,0.0,0.0,0.0,snow/ice covered,0.235438406467438,-7.96249914169312,100.0,504.802612304688
arenacam6_1769616102766217470.png,1769616102766217470,1769616102.7662175,42.301089896138805,-83.69745046240418,239.0828094482422,0.7081103931543207,0.7060148139043528,0.008578366754687239,0.007011795651420571,-0.009900000000000003,0.00458,-0.009040000000000001,2.0951,0.12250000000000001,-9.9603,3.489427774222859,7.8056405652700835,15.029999732971191,13.559999465942383,10.800000190734863,10.429999351501465,12.204498359770147,11.01084458954029,8.769699730878468,8.46925563801321,10.11357457955053,0.29567515887795554,7.300000190734863,55.32500076293945,0.0,152.0,0.0,0.0,0.0,snow/ice covered,0.235438406467438,-7.96249914169312,100.0,504.802612304688
arenacam6_1769616102784912303.png,1769616102784912303,1769616102.7849123,42.301089896138805,-83.69745046240418,239.0828094482422,0.7080671204207674,0.7060571278903999,0.00865088503169666,0.0070318790071028075,-0.012660000000000001,0.007220000000000001,-0.011320000000000002,2.2704,-0.2671,-9.744900000000001,3.5118204472901855,7.855731631361308,15.5,14.380000114440918,10.949999809265137,10.899999618530273,12.586142910000001,11.67669267652708,8.891500804121533,8.850900188243065,10.50130914472292,0.3367703528465833,7.200000286102295,55.20000076293945,0.0,196.0,0.0,0.0,0.0,snow/ice covered,0.235438406467438,-7.96249914169312,100.0,504.802612304688
arenacam6_1769616102805483608.png,1769616102805483608,1769616102.8054836,42.30109116534134,-83.69745047717898,239.0863037109375,0.7079325133897083,0.7061889518181729,0.008869585535306132,0.007074692086056553,-0.005410000000000001,0.009720000000000003,-0.014450000000000003,2.3256,-0.0495,-10.1027,3.5777446560637824,8.003200130935317,15.979999542236328,15.299999237060547,11.619999885559082,11.399999618530273,12.975906963891678,12.42374044648613,9.435547043472921,9.256904798243067,11.02302481302345,0.377327148226045,7.200000286102295,55.04999923706055,0.0,196.0,0.0,0.0,0.0,snow/ice covered,0.235438406467438,-7.96249914169312,100.0,504.802612304688
arenacam6_1769616102826345146.png,1769616102826345146,1769616102.8263452,42.301091812498825,-83.69745048155863,239.08807373046875,0.7078592377347496,0.7062616501075951,0.008943520251908067,0.007056527926669077,-0.0028500000000000005,0.0075200000000000015,-0.007720000000000001,2.3742,-0.0436,-10.5671,3.6231839731121496,8.104845156813493,16.119998931884766,16.25,12.359999656677246,12.389999389648438,13.089587759080583,13.195149825,10.03643368041876,10.060793740188904,11.595491251172062,0.43068633969201625,7.099999904632568,55.20000076293945,0.0,268.0,0.0,0.0,0.0,snow/ice covered,0.235438406467438,-7.96249914169312,100.0,504.802612304688
arenacam6_1769616102846962364.png,1769616102846962364,1769616102.8469625,42.30109313083859,-83.69745050114832,239.0926055908203,0.7077414063757369,0.7063809084082149,0.0088609248271698,0.007042581123899728,0.00693,-0.005260000000000001,-0.0101,1.9768000000000001,0.4303,-10.408800000000001,3.6936251894868253,8.26241793137066,16.53999900817871,16.84000015258789,13.380000114440918,13.829999923706055,13.43063169343197,13.674235388702774,10.86468345652708,11.230087450648613,12.29990949732761,0.4886573881269604,7.0,55.25,0.0,320.0,0.0,0.0,0.0,snow/ice covered,0.235438406467438,-7.96249914169312,100.0,504.802612304688
arenacam6_1769616102868227940.png,1769616102868227940,1769616102.868228,42.30109313083859,-83.69745050114832,239.0926055908203,0.7077086677764722,0.7064152008966265,0.008807244057318208,0.006959737663478392,0.019800000000000005,0.003920000000000001,-0.008790000000000001,2.1532,0.3304,-10.177900000000001,3.7148441805174253,8.30988354116665,17.69999885559082,17.59000015258789,14.679999351501465,15.729999542236328,14.372562264729195,14.283242303702774,11.92029482301321,12.772904658891678,13.337251012584213,0.6049865135308208,6.900000095367432,55.20000076293945,0.0,304.0,0.0,0.0,0.0,snow/ice covered,0.235438406467438,-7.96249914169312,100.0,504.802612304688
arenacam6_1769616102888254501.png,1769616102888254501,1769616102.8882544,42.30109313083859,-83.69745050114832,239.0926055908203,0.7076670838626503,0.7064583993113493,0.008748338157228943,0.006877138886580932,0.02008,0.0034500000000000004,-0.011970000000000001,2.5947,-0.3022,-10.017000000000001,3.7404483428132473,8.367158515972665,18.31999969482422,18.350000381469727,16.690000534057617,16.229999542236328,14.876008662594453,14.900369496756936,13.55243431545971,13.178909268891678,14.126930435925695,0.6883784870285165,6.900000095367432,55.375,0.0,328.0,0.0,0.0,0.0,snow/ice covered,0.235438406467438,-7.96249914169312,100.0,504.802612304688
arenacam6_1769616102908874820.png,1769616102908874820,1769616102.9088748,42.3010944876008,-83.69745052297813,239.09747314453125,0.7075404435593514,0.7065868262254598,0.008576655225428591,0.0069295539259314025,-0.00103,-0.011970000000000001,-0.013560000000000003,2.3284000000000002,-0.2931,-9.8289,3.810314634675858,8.523445218891814,19.03999900817871,18.93000030517578,19.260000228881836,17.65999984741211,15.46065474343197,15.37133478240555,15.639297763054161,14.340082701297225,15.202842497547227,0.7836499334624507,6.900000095367432,55.32500076293945,0.0,212.0,0.0,0.0,0.0,snow/ice covered,0.235438406467438,-7.96249914169312,100.0,504.802612304688
arenacam6_1769616102929737034.png,1769616102929737034,1769616102.9297369,42.30109517208164,-83.6974505370005,239.09979248046875,0.7074663615305506,0.706660353996762,0.008493839677634991,0.007095497123218662,-0.0059900000000000005,-0.01921,-0.008480000000000001,1.8765,0.2003,-9.449200000000001,3.850970261584363,8.614389416948525,18.969999313354492,19.399999618530273,21.279998779296875,19.369998931884766,15.403814345837517,15.752978558243067,17.279555210377808,15.728617724080582,16.041241459634744,0.8621449162809073,6.800000190734863,55.525001525878906,0.0,268.0,0.0,0.0,0.0,snow/ice covered,0.235438406467438,-7.96249914169312,100.0,504.802612304688
arenacam6_1769616102950255964.png,1769616102950255964,1769616102.9502559,42.30109517208164,-83.6974505370005,239.09979248046875,0.7073107715474899,0.7068146358610816,0.008459966930697317,0.0072781828083984465,-0.011550000000000003,-0.00234,-0.014970000000000002,1.2921,-0.6139,-9.0638,3.8900204160877934,8.701742269563429,19.209999084472656,19.85999870300293,22.299999237060547,21.69999885559082,15.598696372783357,16.12650205602642,18.107804986486133,17.620599144729194,16.863400640006276,0.9379338203327783,6.800000190734863,55.275001525878906,0.0,240.0,0.0,0.0,0.0,snow/ice covered,0.235438406467438,-7.96249914169312,100.0,504.802612304688
arenacam6_1769616102991761080.png,1769616102991761080,1769616102.9917612,42.301097271189185,-83.6974505813901,239.10562133789062,0.7071763277246131,0.7069426221202841,0.0086677098042684,0.0076577635362206475,-0.021900000000000003,-0.013940000000000003,-0.009680000000000001,1.9183000000000001,1.0576,-9.4063,3.945596663904015,8.826063001353448,19.309999465942383,19.59000015258789,24.209999084472656,25.369998931884766,15.679897604540292,15.907260743702773,19.658742472783356,20.600673044080583,17.96164346627675,1.0350685762748795,6.5,55.35000228881836,0.0,36.0,0.0,0.0,0.0,snow/ice covered,0.235438406467438,-7.96249914169312,100.0,504.802612304688
arenacam6_1769616103012294015.png,1769616103012294015,1769616103.0122938,42.30109798134522,-83.69745059402786,239.10719299316406,-0.706945241759617,-0.707171838824203,-0.008717237063610352,-0.007773371559938592,-0.011850000000000001,0.011220000000000003,-0.02441,1.3911,-0.6279,-9.594700000000001,3.9768079946969035,8.895880875657292,20.639999389648438,19.6299991607666,25.35999870300293,25.65999984741211,16.759869805188906,15.939740307134743,20.59255276602642,20.83615646129723,18.532079834911826,1.0832203234221638,6.5,55.400001525878906,0.0,52.0,0.0,0.0,0.0,snow/ice covered,0.235438406467438,-7.96249914169312,100.0,504.802612304688
arenacam6_1769616103034175624.png,1769616103034175624,1769616103.0341756,42.301099416817706,-83.69745062440153,239.10972595214844,-0.7068496271122503,-0.7072650488636643,-0.008840268302845159,-0.007848882945060975,-0.0089,1e-05,-0.008450000000000001,1.8103,0.7048,-9.3454,4.015014643941946,8.981346857619497,22.489999771118164,19.729999542236328,26.469999313354492,25.760000228881836,18.262087171945836,16.020941538891677,21.49388349583752,20.917357693054164,19.173567474932298,1.1348209549067838,6.400000095367432,55.45000076293945,0.0,48.0,0.0,0.0,0.0,snow/ice covered,0.235438406467438,-7.96249914169312,100.0,504.802612304688
arenacam6_1769616103053746102.png,1769616103053746102,1769616103.0537462,42.301099416817706,-83.69745062440153,239.10972595214844,-0.7067924408421339,-0.707322464756778,-0.008856093699775084,-0.00780679340039059,0.00412,0.008190000000000001,-0.015200000000000002,1.3931,1.3103,-9.1987,4.028710821880879,9.011984385898215,23.029998779296875,19.869998931884766,26.809999465942383,26.439998626708984,18.700571345377806,16.134622334080582,21.76996675454029,21.469522661675033,19.518670773918426,1.1658571451212099,6.099999904632568,55.57500076293945,0.0,48.0,0.0,0.0,0.0,snow/ice covered,0.235438406467438,-7.96249914169312,100.0,504.802612304688
arenacam6_1769616103074473594.png,1769616103074473594,1769616103.0744734,42.30110088249513,-83.69745065519207,239.1124267578125,-0.7065575316684064,-0.7075616089319838,-0.00872171679064258,-0.00754689767088749,0.014580000000000003,0.00267,-0.018550000000000004,2.1616,-0.9516,-10.3884,4.085981884109417,9.14009631583972,24.25,19.959999084472656,26.510000228881836,26.959999084472656,19.691223585,16.207703287783357,21.526364608054163,21.891767827783358,19.829264827155217,1.169480948771978,6.099999904632568,55.47500228881836,0.0,0.0,0.0,0.0,0.0,snow/ice covered,0.235438406467438,-7.96249914169312,100.0,504.802612304688
arenacam6_1769616103095219212.png,1769616103095219212,1769616103.0952191,42.30110088249513,-83.69745065519207,239.1124267578125,-0.7065187841046197,-0.7076008788316434,-0.008717501701975312,-0.007497276044785148,0.007620000000000001,0.006550000000000001,-0.011020000000000002,1.9734,-0.19890000000000002,-9.9489,4.1056001531027535,9.183981206481674,25.599998474121094,19.69999885559082,26.3799991607666,26.65999984741211,20.78743479297226,15.996580704729196,21.420802542134744,21.64816568129723,19.963245930283357,1.1737028290295415,6.0,55.57500076293945,0.0,0.0,0.0,0.0,0.0,snow/ice covered,0.235438406467438,-7.96249914169312,100.0,504.802612304688
arenacam6_1769616103115773622.png,1769616103115773622,1769616103.1157737,42.30110161837628,-83.69745066513998,239.11366271972656,-0.7063006923019141,-0.7078241980709574,-0.008479512316940751,-0.007234262222919487,0.036370000000000006,0.007730000000000001,-0.028980000000000002,1.6736,0.2934,-10.5055,4.146995827514053,9.276580846399288,26.209999084472656,19.079999923706055,26.43000030517578,25.920000076293945,21.282760912783356,15.493135855648614,21.46140393240555,21.047279044351388,19.821144936297227,1.136686486593907,5.800000190734863,55.70000076293945,0.0,8.0,0.0,0.0,0.0,snow/ice covered,0.235438406467438,-7.96249914169312,100.0,504.802612304688
arenacam6_1769616103136710484.png,1769616103136710484,1769616103.1367104,42.30110312334106,-83.69745069756327,239.1173858642578,-0.7061134622152014,-0.7080121876390971,-0.008321007176233524,-0.007299415903639565,-0.0068000000000000005,-0.027110000000000002,-0.024240000000000005,2.4964,-1.1808,-10.764100000000001,4.197297089913759,9.389101752311685,26.959999084472656,18.239999771118164,26.059999465942383,25.81999969482422,21.891767827783358,14.811047986945841,21.160959839540293,20.966077812594452,19.707463366715984,1.0989721792996674,5.800000190734863,55.57500076293945,0.0,32.0,0.0,0.0,0.0,snow/ice covered,0.235438406467438,-7.96249914169312,100.0,504.802612304688
arenacam6_1769616103157199467.png,1769616103157199467,1769616103.1571994,42.30110387815977,-83.69745071184583,239.119140625,-0.7059040773378136,-0.7082219754382865,-0.008070317272367416,-0.007479109790913525,0.009640000000000001,-0.013990000000000002,-0.03087,1.6771,-0.5313,-10.0973,4.241947834635638,9.488982789209844,27.099998474121094,17.989999771118164,25.459999084472656,26.099998474121094,22.00544862297226,14.60804568194584,20.673753997783358,21.19343940297226,19.62017192641843,1.06767915616087,5.599999904632568,55.95000076293945,0.0,32.0,0.0,0.0,0.0,snow/ice covered,0.235438406467438,-7.96249914169312,100.0,504.802612304688
arenacam6_1769616103178473913.png,1769616103178473913,1769616103.178474,42.30110387815977,-83.69745071184583,239.119140625,-0.7057729018530763,-0.7083519568784834,-0.008031239651541571,-0.007590479956535637,-0.010110000000000001,-0.02091,-0.037160000000000006,1.7425000000000002,-0.6904,-10.0784,4.259374892502128,9.527966072033712,27.639999389648438,17.260000228881836,25.44999885559082,25.78999900817871,22.443934345188907,14.01527932305416,20.665633719729193,20.94171697843197,19.51664109160106,1.0483533362787572,5.700000286102295,56.07500076293945,0.0,68.0,0.0,0.0,0.0,snow/ice covered,0.235438406467438,-7.96249914169312,100.0,504.802612304688
arenacam6_1769616103198598916.png,1769616103198598916,1769616103.1985989,42.301105420878656,-83.69745074729182,239.1240234375,-0.7056242050788933,-0.7084975393709716,-0.007983175771921928,-0.007873170686140782,-0.014380000000000002,-0.022660000000000003,-0.023180000000000003,2.4059,0.0173,-10.6685,4.300453593037151,9.619856660408525,27.56999969482422,16.809999465942383,25.510000228881836,25.229999542236328,22.38709394759445,13.649874554540292,20.714355388054162,20.486992248891678,19.309579034770145,1.007262656442755,5.599999904632568,56.125,0.0,112.0,0.0,0.0,0.0,snow/ice covered,0.235438406467438,-7.96249914169312,100.0,504.802612304688
arenacam6_1769616103219263938.png,1769616103219263938,1769616103.219264,42.30110619301974,-83.69745076744144,239.12635803222656,-0.7053474252054809,-0.7087659877261479,-0.007922387823750026,-0.00854518400895206,-0.030760000000000003,-0.016700000000000003,-0.01794,0.4329,0.36920000000000003,-9.487,4.339291448689529,9.706734613231557,28.15999984741211,16.78999900817871,25.03999900817871,25.079999923706055,22.866179511297226,13.63363399843197,20.332710063431968,20.365191175648615,19.299428687202443,0.9882514003107473,5.599999904632568,55.92499923706055,0.0,80.0,0.0,0.0,0.0,snow/ice covered,0.235438406467438,-7.96249914169312,100.0,504.802612304688
arenacam6_1769616103239891205.png,1769616103239891205,1769616103.2398913,42.301106978787175,-83.69745078714975,239.12899780273438,-0.7052422234952546,-0.7088685083522099,-0.007995338481040703,-0.00865555478037322,-0.025870000000000004,-0.005030000000000001,-0.029470000000000003,1.5553000000000001,0.0786,-9.196100000000001,4.355013114906268,9.741903037258428,29.01999855041504,16.78999900817871,25.09000015258789,25.170000076293945,23.56450638732365,13.63363399843197,20.373311453702776,20.43827212935139,19.50243099220245,1.001911835666436,5.599999904632568,56.04999923706055,0.0,112.0,0.0,0.0,0.0,snow/ice covered,0.235438406467438,-7.96249914169312,100.0,504.802612304688
arenacam6_1769616103260675972.png,1769616103260675972,1769616103.2606761,42.301107770983265,-83.69745080950534,239.13136291503906,-0.7049391791931007,-0.7091622186370039,-0.00815027123015821,-0.009125479454506343,-0.028160000000000004,-0.012810000000000002,-0.022510000000000002,1.5361,0.3331,-9.623700000000001,4.411615862168547,9.86851998671931,30.10999870300293,16.239999771118164,24.76999855041504,25.119998931884766,24.44959656102642,13.18702954694584,20.113467202323648,20.397670739080585,19.536941012344123,0.979723508554091,5.599999904632568,55.75,0.0,140.0,0.0,0.0,0.0,snow/ice covered,0.235438406467438,-7.96249914169312,100.0,504.802612304688
arenacam6_1769616103281479383.png,1769616103281479383,1769616103.2814794,42.301107770983265,-83.69745080950534,239.13136291503906,-0.7048238494689676,-0.7092739270057901,-0.008214125276801381,-0.009293322090016706,-0.03268,-0.014360000000000001,-0.03230000000000001,1.2699,0.4036,-9.723600000000001,4.424403848217537,9.897125944231737,31.239999771118164,15.769999504089355,24.40999984741211,24.60999870300293,25.36716784694584,12.805384996715986,19.821144936297227,19.98354585102642,19.494310907746367,0.9696941331850062,5.599999904632568,55.525001525878906,0.0,156.0,0.0,0.0,0.0,snow/ice covered,0.235438406467438,-7.96249914169312,100.0,504.802612304688
arenacam6_1769616103301956084.png,1769616103301956084,1769616103.3019562,42.30110936473503,-83.69745085147528,239.13621520996094,-0.7044578991966041,-0.7096324205300009,-0.00841371291487494,-0.009492387856859458,-0.01649,-0.00619,-0.030980000000000004,2.3103000000000002,-0.48100000000000004,-9.7003,4.475570737450565,10.011583205432668,32.630001068115234,15.239999771118164,24.719999313354492,24.260000228881836,26.49586171591942,12.375020326945839,20.07286736083752,19.69934386305416,19.660773316689237,0.9638026187527013,5.5,55.900001525878906,0.0,212.0,0.0,0.0,0.0,snow/ice covered,0.235438406467438,-7.96249914169312,100.0,504.802612304688
arenacam6_1769616103323108976.png,1769616103323108976,1769616103.323109,42.30111017388344,-83.6974508711306,239.13864135742188,-0.7042296962022261,-0.7098562791411646,-0.008427006921343561,-0.00967385678668088,-0.009440000000000002,-0.01276,-0.031140000000000004,1.2352,1.2156,-10.0739,4.504969225715376,10.077345859771754,34.45000076293945,12.779999732971191,24.19999885559082,24.239999771118164,27.973718248513872,10.377477614770147,19.650622194729195,19.68310330694584,19.421230341239763,0.9272168100102941,5.5,55.75,0.0,264.0,0.0,0.0,0.0,snow/ice covered,0.235438406467438,-7.96249914169312,100.0,504.802612304688
arenacam6_1769616103343489452.png,1769616103343489452,1769616103.3434896,42.30111017388344,-83.6974508711306,239.13864135742188,-0.7040892133925359,-0.7099954417584078,-0.008421222228260201,-0.009692021602640297,-0.0018100000000000002,-0.0028700000000000006,-0.03955,1.4179000000000002,0.5104000000000001,-10.0554,4.519351640268072,10.109518458181261,35.72999954223633,13.179999351501465,23.94999885559082,24.139999389648438,29.01308905889168,10.702280993013211,19.447619889729197,19.601902075188907,19.69122300420575,0.9477904002707831,5.300000190734863,55.97500228881836,0.0,316.0,0.0,0.0,0.0,snow/ice covered,0.235438406467438,-7.96249914169312,100.0,504.802612304688
