image_filename,timestamp_ns,timestamp_sec,latitude,longitude,altitude,orientation_x,orientation_y,orientation_z,orientation_w,angular_velocity_x,angular_velocity_y,angular_velocity_z,linear_acceleration_x,linear_acceleration_y,linear_acceleration_z,vehicle_speed_mps,vehicle_speed_mph,wheel_speed_fl_rads,wheel_speed_fr_rads,wheel_speed_rl_rads,wheel_speed_rr_rads,wheel_speed_fl_mph,wheel_speed_fr_mph,wheel_speed_rl_mph,wheel_speed_rr_mph,avg_wheel_speed_mph,wheel_slip,steering_angle_deg,throttle_pedal,brake_pedal,brake_torque_actual,abs_active,esc_active,trac_active,marwis_road_condition,marwis_friction,marwis_surface_temp_c,marwis_ice_percent,marwis_water_film_height
frame_00000.png,1771859416252914818,1771859416.252915,42.300142525541766,-83.69858998658991,236.34170532226562,-0.706507317163293,-0.7076330802312797,0.009295194758526724,0.00405387611039959,-0.00015000000000000001,0.008020000000000001,-0.0021200000000000004,2.9647,-0.3003,-9.793700000000001,1.2269786325931222,2.744677582392859,3.049999952316284,3.169999837875366,3.169999837875366,3.0399999618530273,2.4766280822803832,2.5740690957533023,2.5740690957533023,2.4685079978243065,2.523318567902823,0.0806502796212046,5.700000286102295,33.25,0.0,0.0,0.0,0.0,0.0,,,,,
frame_00001.png,1771859416299853711,1771859416.2998538,42.30014321426466,-83.69859000179487,236.34239196777344,-0.7064858291956891,-0.7076582544505858,0.00898743524918141,0.004098055791628019,-0.00506,0.011120000000000001,-0.0027100000000000006,2.9142,-0.1459,-9.8818,1.3689828642398887,3.0623325283327767,3.569999933242798,3.5,3.4499998092651367,3.5299999713897705,2.8988728611925363,2.8420322700000002,2.8014316541215325,2.86639252336823,2.8521823271705746,0.06862422653904733,5.700000286102295,33.07500076293945,0.0,0.0,0.0,0.0,0.0,,,,,
frame_00002.png,1771859416348004588,1771859416.3480046,42.3001437203549,-83.69859001410721,236.3429718017578,-0.7064457184734946,-0.7076997975241961,0.008830420902117775,0.004179366144672213,-0.0018000000000000004,0.011740000000000002,-0.004540000000000001,2.7701000000000002,-0.334,-10.0229,1.4812688161960612,3.3135094657016175,3.990000009536743,3.9800000190734863,3.9099998474121094,3.990000009536743,3.239916795543923,3.231796711087847,3.174955926297226,3.239916795543923,3.22164655711823,0.027723750161050484,5.599999904632568,33.25,0.0,0.0,0.0,0.0,0.0,,,,,
frame_00003.png,1771859416389073057,1771859416.3890731,42.30014427126718,-83.69859002260972,236.34365844726562,-0.7063608628443024,-0.7077842685684366,0.008798149804846264,0.004284059862708977,0.007390000000000002,0.0017100000000000001,-0.0068000000000000005,2.8249,-0.4642,-10.037,1.595306356312169,3.5686046006889436,4.25,4.25,4.150000095367432,4.269999980926514,3.451039185,3.451039185,3.369838340439234,3.4672793539121534,3.4347990160878465,0.03749521159482475,5.599999904632568,33.400001525878906,0.0,0.0,0.0,0.0,0.0,,,,,
frame_00004.png,1771859416439705390,1771859416.4397054,42.3001451766138,-83.69859004120343,236.34532165527344,-0.7062878770355973,-0.7078556995287306,0.008819652136120917,0.004467340756904211,0.013010000000000002,0.0027500000000000003,-0.003920000000000001,3.0499,-0.4702,-9.8401,1.7723317828663718,3.964599858365102,4.630000114440918,4.650000095367432,4.739999771118164,4.659999847412109,3.7596027815270805,3.775842950439234,3.848923516945839,3.7839628412972264,3.792083022552345,0.04351431215656103,5.599999904632568,32.92499923706055,0.0,0.0,0.0,0.0,0.0,,,,,
frame_00005.png,1771859416499018897,1771859416.499019,42.30014617667868,-83.69859006069947,236.34695434570312,-0.7062677847883719,-0.7078734730782279,0.00886708869991103,0.004726205696032765,0.0068000000000000005,0.0013900000000000002,-0.0010500000000000002,2.8183000000000002,-0.3206,-9.7424,1.9486682201770174,4.359053888442777,5.259999752044678,5.21999979019165,5.210000038146973,5.239999771118164,4.271168295857993,4.238687958033686,4.230568067175693,4.254928126945839,4.248838112003303,0.025284334458835517,5.700000286102295,33.0,0.0,0.0,0.0,0.0,0.0,,,,,
frame_00006.png,1771859416549758251,1771859416.5497582,42.300146903796396,-83.6985900731513,236.34754943847656,-0.706259739814666,-0.7078807996207237,0.008817866453990752,0.00491921502319751,0.0012700000000000003,0.00272,-0.0041600000000000005,3.0932,-0.5608000000000001,-9.6434,2.10091184162851,4.69961373501248,5.619999885559082,5.609999656677246,5.62999963760376,5.559999942779541,4.56349172347292,4.555371445418758,4.571611614330912,4.5147712167364595,4.551311499989763,0.031556260447077614,5.700000286102295,33.10000228881836,0.0,0.0,0.0,0.0,0.0,,,,,
frame_00007.png,1771859416600030334,1771859416.6000302,42.300148069768376,-83.69859009140043,236.34825134277344,-0.7061947467959365,-0.7079449629146903,0.008798326368026702,0.0050496073770489374,0.0060300000000000015,-0.0009200000000000001,-0.006220000000000002,2.8778,-0.33240000000000003,-9.9632,2.252081804517835,5.037771871798126,6.069999694824219,6.059999942779541,6.039999961853027,6.059999942779541,4.928895717594452,4.92077582673646,4.904535657824306,4.92077582673646,4.918745757222919,0.02362673769360721,5.700000286102295,33.0,0.0,0.0,0.0,0.0,0.0,,,,,
frame_00008.png,1771859416651115618,1771859416.6511154,42.30014889535729,-83.69859010277305,236.34913635253906,-0.7060885498159194,-0.7080474508798731,0.008988065220676671,0.005194401308552625,0.014190000000000001,-0.0061400000000000005,-0.0076700000000000015,3.0344,-0.5029,-9.949200000000001,2.400634786272652,5.3700759788047465,6.460000038146973,6.429999828338623,6.5,6.440000057220459,5.245579592175694,5.221219145209379,5.2780599299999995,5.229339423263541,5.243549522662153,0.023561390312163703,5.700000286102295,32.95000076293945,0.0,0.0,0.0,0.0,0.0,,,,,
frame_00009.png,1771859416700987619,1771859416.7009876,42.3001502219561,-83.69859012120553,236.3509063720703,-0.7059736561618121,-0.708156951836381,0.00931150382637997,0.005312651675060133,0.01165,-0.0067,-0.0041800000000000006,2.9703,-0.4413,-9.9245,2.545789142872117,5.694777565256354,6.87999963760376,6.839999675750732,6.839999675750732,6.889999866485596,5.586623139330912,5.554142801506606,5.554142801506606,5.5947434173850725,5.572413039932299,0.021487147464827504,5.700000286102295,32.92499923706055,0.0,0.0,0.0,0.0,0.0,,,,,
frame_00010.png,1771859416743060590,1771859416.7430606,42.30015115922553,-83.69859013590106,236.3522491455078,-0.7059094041126783,-0.708218498458329,0.00951451336365049,0.005286365686012387,0.008290000000000002,-0.00792,-0.006170000000000001,2.8174,-0.35250000000000004,-9.889000000000001,2.657547900280705,5.944775200053921,7.21999979019165,7.190000057220459,7.159999847412109,7.210000038146973,5.862706398033686,5.83834633826354,5.813985891297226,5.854586507175694,5.842406283692537,0.01721998106176594,5.700000286102295,32.875,0.0,0.0,0.0,0.0,0.0,,,,,
frame_00011.png,1771859416792557710,1771859416.7925577,42.30015213983901,-83.69859015724616,236.35427856445312,-0.7058109426678221,-0.7083154976193352,0.00967549904376035,0.005143321970117504,0.00288,-0.006550000000000001,-0.009580000000000002,2.9890000000000003,-0.5593,-9.840900000000001,2.7990204307719897,6.261240762411095,7.559999942779541,7.589999675750732,7.62999963760376,7.599999904632568,6.13878965673646,6.163149716506606,6.195630054330912,6.171269994560767,6.167209855533686,0.015017935014081637,5.800000190734863,32.75,0.0,0.0,0.0,0.0,0.0,,,,,
frame_00012.png,1771859416842917876,1771859416.842918,42.300153681823915,-83.69859019178078,236.3567657470703,-0.7057134998879763,-0.7084102460858444,0.009893094700692957,0.005050345899020561,0.00727,-0.006860000000000001,-0.0056300000000000005,2.6477,-0.3895,-9.879800000000001,2.938205435185246,6.572589266183285,8.029999732971191,7.980000019073486,7.980000019073486,8.039999961853027,6.520433819770146,6.479833591087846,6.479833591087846,6.528554097824307,6.502163774942536,0.01071503001155052,5.800000190734863,33.0,0.0,0.0,0.0,0.0,0.0,,,,,
frame_00013.png,1771859416892984366,1771859416.8929844,42.30015475430507,-83.69859021436909,236.3584747314453,-0.705605181231104,-0.70851289922585,0.010218223175963747,0.005136902328022276,0.013840000000000002,-0.0046500000000000005,-0.006970000000000001,2.7411000000000003,-0.4027,-9.765,3.0760382313537526,6.880912961244464,8.34000015258789,8.460000038146973,8.399999618530273,8.429999351501465,6.772157018702774,6.869598032175693,6.820877138243064,6.845237198013211,6.826967346783686,0.007839891997561538,5.800000190734863,33.10000228881836,0.0,0.0,0.0,0.0,0.0,,,,,
frame_00014.png,1771859416943811345,1771859416.9438114,42.30015644425151,-83.69859024855799,236.3603057861328,-0.7054812201764754,-0.7086312339842642,0.010521581145292962,0.00522671315969274,0.01259,-0.0035500000000000006,-0.009590000000000001,2.8194000000000004,-0.6344000000000001,-9.6259,3.212222601406002,7.185549225989143,8.819999694824219,8.819999694824219,8.779999732971191,8.789999961853027,7.161921072594452,7.161921072594452,7.129440734770146,7.137561012824307,7.147710973195839,0.005265881786245173,5.800000190734863,32.875,0.0,0.0,0.0,0.0,0.0,,,,,
frame_00015.png,1771859416994401183,1771859416.9944012,42.300158221231975,-83.69859028432376,236.361572265625,-0.7053692573459281,-0.7087382688212305,0.01074651453404359,0.005365587098226014,0.013510000000000003,0.0034500000000000004,-0.00768,2.6513,-0.6587000000000001,-9.9097,3.3439694675287845,7.4802590606938395,9.170000076293945,9.139999389648438,9.09999942779541,9.170000076293945,7.446124609351387,7.421763775188904,7.389283437364598,7.446124609351387,7.425824107814068,0.007277148082451841,5.800000190734863,32.85000228881836,0.0,0.0,0.0,0.0,0.0,,,,,
frame_00016.png,1771859417045343029,1771859417.045343,42.30015945428488,-83.69859030868392,236.36231994628906,-0.705269754033268,-0.7088314920770057,0.01103758206931299,0.005537297879176988,0.01786,-0.00525,-0.006300000000000001,2.6367000000000003,-0.44430000000000003,-9.9753,3.474500602670499,7.772249378137747,9.510000228881836,9.539999961853027,9.510000228881836,9.550000190734863,7.722207868054161,7.746567927824307,7.722207868054161,7.754688205878468,7.736417967452773,0.004610172543583423,5.800000190734863,33.10000228881836,0.0,0.0,0.0,0.0,0.0,,,,,
frame_00017.png,1771859417095243764,1771859417.0952437,42.300161372053516,-83.69859034806923,236.36492919921875,-0.7051798714825976,-0.7089122564035889,0.011459257089612061,0.00578333844015438,0.022850000000000006,-0.006860000000000001,-0.005650000000000001,2.4930000000000003,-0.15180000000000002,-10.338600000000001,3.601325357074616,8.055948744254492,9.869999885559082,9.9399995803833,9.899999618530273,9.920000076293945,8.014530908472919,8.071371306067372,8.038890968243065,8.055131524351388,8.044981176783686,0.0013614246836696278,5.800000190734863,33.20000076293945,0.0,0.0,0.0,0.0,0.0,,,,,
frame_00018.png,1771859417154940994,1771859417.1549408,42.30016337198857,-83.69859038818831,236.3689727783203,-0.7050456703087724,-0.70903311095836,0.012080122228028659,0.006059784692512043,0.01821,-0.010010000000000002,-0.007220000000000001,2.5122,-0.1516,-10.1272,3.7528233553108774,8.394840676429114,10.369999885559082,10.289999961853027,10.300000190734863,10.300000190734863,8.42053551847292,8.355574842824307,8.363695120878468,8.363695120878468,8.375875150763541,0.002259188279632756,5.800000190734863,33.125,0.0,0.0,0.0,0.0,0.0,,,,,
frame_00019.png,1771859417195927170,1771859417.1959274,42.30016475360401,-83.69859041893022,236.37228393554688,-0.7049299063359421,-0.7091426783303894,0.012390491211544938,0.006079856177451664,0.005330000000000001,-0.009970000000000001,-0.007140000000000001,2.3456,-0.33290000000000003,-9.8961,3.850764587581983,8.613929336545642,10.639999389648438,10.679999351501465,10.679999351501465,10.679999351501465,8.639777605188904,8.67225794301321,8.67225794301321,8.67225794301321,8.664137858557133,0.005828759448777417,5.700000286102295,32.775001525878906,0.0,0.0,0.0,0.0,0.0,,,,,
frame_00020.png,1771859417247811335,1771859417.2478113,42.30016616263643,-83.6985904533336,236.3756866455078,-0.7047710878645947,-0.7092982986467812,0.012599871824454757,0.005905969602406881,-0.0033700000000000006,-0.010830000000000001,-0.007880000000000002,2.1184000000000003,-0.6112000000000001,-9.689300000000001,3.9730995862713576,8.887585388513852,10.979999542236328,10.969999313354492,11.210000038146973,11.050000190734863,8.915860863891679,8.907740585837518,9.102623387175694,8.972702035878468,8.974731718195839,0.009805399990262089,5.599999904632568,32.54999923706055,0.0,0.0,0.0,0.0,0.0,,,,,
frame_00021.png,1771859417299976730,1771859417.2999766,42.30016834849014,-83.69859051840672,236.3792266845703,-0.7046306604723186,-0.7094437103348525,0.012366986501794124,0.005684349877207967,-0.01831,0.0005000000000000001,-0.007140000000000001,2.1168,-0.6872,-9.0549,4.119868605813601,9.215898879088678,11.309999465942383,11.399999618530273,11.5,11.529999732971191,9.18382384454029,9.256904798243067,9.33810603,9.362466089770146,9.285325190638375,0.007533319588307107,5.400000095367432,32.32500076293945,0.0,0.0,0.0,0.0,0.0,,,,,
frame_00022.png,1771859417350161370,1771859417.3501613,42.300169849532885,-83.6985905670299,236.37966918945312,-0.704494198473703,-0.70958424986349,0.012000998890852026,0.005838894431729632,-0.014330000000000002,0.016040000000000002,-0.007510000000000001,1.8043,-0.9288000000000001,-10.2735,4.231439843419239,9.465477043338234,11.739999771118164,11.789999961853027,11.739999771118164,11.75,9.532988056945838,9.573588672824306,9.532988056945838,9.541108335,9.545168280428996,0.008419146412366825,5.099999904632568,32.29999923706055,0.0,0.0,0.0,0.0,0.0,,,,,
frame_00023.png,1771859417398123417,1771859417.3981235,42.30017215831704,-83.69859064563137,236.38021850585938,-0.7044067560677885,-0.7096758832407176,0.011618496420215292,0.0060227313982968,-0.00909,0.029160000000000005,-0.006580000000000001,2.2399,-0.5719000000000001,-10.1155,4.3257009546524605,9.676333493500275,12.019999504089355,12.09000015258789,11.979999542236328,12.069999694824219,9.760350421715986,9.817191593702775,9.727870083891679,9.800951037594453,9.776590784226222,0.01036108261391482,4.700000286102295,32.70000076293945,0.0,0.0,0.0,0.0,0.0,,,,,
frame_00024.png,1771859417448917891,1771859417.448918,42.30017374334492,-83.69859069644778,236.3818817138672,-0.7042124393681939,-0.7098744662267394,0.011295377468642053,0.005957926337263859,-0.0024300000000000007,-0.007030000000000001,-0.014010000000000002,2.3888000000000003,-0.1842,-10.6506,4.4651151129878714,9.98819460084709,12.369999885559082,12.329999923706055,12.34000015258789,12.369999885559082,10.04455395847292,10.012073620648613,10.020193898702775,10.04455395847292,10.030343859074307,0.004219907592073042,4.400000095367432,32.04999923706055,0.0,0.0,0.0,0.0,0.0,,,,,
frame_00025.png,1771859417498885911,1771859417.4988859,42.30017617809058,-83.69859076818112,236.38641357421875,-0.7040848736454852,-0.7100015798512588,0.011273359714047089,0.005929474942630046,0.00632,0.0008000000000000001,-0.012790000000000001,2.6475,0.002,-10.484300000000001,4.554056190387808,10.187150454526103,12.670000076293945,12.649999618530273,12.639999389648438,12.649999618530273,10.288156879351387,10.271916323243065,10.263796045188904,10.271916323243065,10.273946392756606,0.008520139033770767,4.300000190734863,32.17499923706055,0.0,0.0,0.0,0.0,0.0,,,,,
frame_00026.png,1771859417549889183,1771859417.5498893,42.30017783626048,-83.6985908143409,236.390380859375,-0.7039059080502776,-0.7101725437735488,0.011630164529062768,0.006014146252646018,0.014000000000000002,-0.00234,-0.008220000000000002,2.3388,-0.6046,-9.7864,4.684923379569993,10.4798925046953,12.969999313354492,12.949999809265137,12.969999313354492,12.979999542236328,10.531759025837516,10.515519244121531,10.531759025837516,10.539879303891679,10.52972914992206,0.004755453856461956,4.200000286102295,32.35000228881836,0.0,0.0,0.0,0.0,0.0,,,,,
frame_00027.png,1771859417599410601,1771859417.5994108,42.30018039023448,-83.69859088327067,236.39691162109375,-0.703835528240426,-0.7102355909657672,0.011945452758587877,0.006185521030633866,0.015380000000000001,0.00109,-0.0032600000000000003,2.0604,-0.4907,-9.3399,4.787741096688759,10.709889568826952,13.269999504089355,13.229999542236328,13.329999923706055,13.359999656677246,10.775361946715984,10.742881608891679,10.824082840648614,10.848442900418759,10.797692324168759,0.008198287645969051,3.9000000953674316,31.975000381469727,0.0,0.0,0.0,0.0,0.0,,,,,
frame_00028.png,1771859417650328941,1771859417.6503289,42.300182131336115,-83.69859093144457,236.40057373046875,-0.7038015346163138,-0.7102642912075124,0.01210073039969301,0.006450490756970141,0.014190000000000001,0.0048400000000000006,-0.00319,1.7701,-0.24180000000000001,-9.329600000000001,4.890285854193894,10.93927603868049,13.619999885559082,13.519999504089355,13.59000015258789,13.569999694824219,11.059565483472921,10.978364251715986,11.035205423702774,11.018964867594454,11.023025006621534,0.0076558053425943625,3.5,31.875,0.0,0.0,0.0,0.0,0.0,,,,,
frame_00029.png,1771859417700491925,1771859417.7004921,42.300184796670266,-83.69859101090617,236.404541015625,-0.7037521164592784,-0.7103121897317114,0.012037206321936637,0.006682616373154942,0.0021600000000000005,0.011150000000000002,-0.006540000000000001,1.6760000000000002,-0.249,-9.356200000000001,4.992587001495273,11.168117567124836,13.84999942779541,13.84000015258789,13.84999942779541,13.84999942779541,11.246327232364598,11.238207728702776,11.246327232364598,11.246327232364598,11.244297356449144,0.006821184399827109,2.799999952316284,31.950000762939453,0.0,0.0,0.0,0.0,0.0,,,,,
frame_00030.png,1771859417751797974,1771859417.751798,42.30018661239629,-83.69859106847073,236.40640258789062,-0.703671697234763,-0.710394363902973,0.011775532591214928,0.006879467845079841,-0.00255,0.017530000000000004,-0.005600000000000001,1.6142,-0.12710000000000002,-9.7843,5.089056241214568,11.383913468222516,14.1899995803833,14.15999984741211,14.149999618530273,14.109999656677246,11.522410491067372,11.498050431297225,11.489930153243066,11.457449815418759,11.491960222756607,0.009491178480554684,2.1000001430511475,32.10000228881836,0.0,0.0,0.0,0.0,0.0,,,,,
frame_00031.png,1771859417810641131,1771859417.810641,42.30018938401779,-83.69859115498265,236.40933227539062,-0.7035571198706253,-0.7105106737354461,0.011441751837021397,0.00714478146993959,-0.0004500000000000001,0.017150000000000002,-0.007420000000000001,1.994,-0.6466000000000001,-10.287700000000001,5.211120953790951,11.656964906373132,14.5,14.449999809265137,14.50999927520752,14.429999351501465,11.77413369,11.733533074121533,11.782253193661825,11.71729251801321,11.751803118949141,0.00813575517621737,1.8000000715255737,32.04999923706055,0.0,0.0,0.0,0.0,0.0,,,,,
frame_00032.png,1771859417861906598,1771859417.8619068,42.30019222071088,-83.69859124846506,236.41357421875,-0.7035159473398709,-0.7105549987703613,0.011266104365251984,0.007069685521086179,-0.008820000000000001,0.0004000000000000001,-0.0031300000000000004,1.9771,-0.6106,-10.1813,5.311595942329683,11.881721427234963,14.739999771118164,14.739999771118164,14.779999732971191,14.799999237060547,11.96901571694584,11.96901571694584,12.001496054770147,12.01773583648613,11.989315831286989,0.009055455870678911,1.8000000715255737,32.125,0.0,0.0,0.0,0.0,0.0,,,,,
frame_00033.png,1771859417911403187,1771859417.9114032,42.300194144347195,-83.6985913147986,236.41708374023438,-0.7034897742868048,-0.7105860781953548,0.011124176213085165,0.006768726056371004,-0.010320000000000001,-0.006090000000000001,-0.0023100000000000004,1.9926000000000001,-0.4318,-10.0716,5.410332016472193,12.102588100927308,15.029999732971191,14.979999542236328,14.969999313354492,15.0,12.204498359770147,12.16389774389168,12.155777465837517,12.180138300000001,12.176077967374836,0.0060722438733494186,1.8000000715255737,32.0,0.0,0.0,0.0,0.0,0.0,,,,,
frame_00034.png,1771859417962342067,1771859417.9623423,42.30019708702201,-83.69859141455031,236.4233856201172,-0.703461997108087,-0.7106149164627993,0.011213468154766301,0.006474353806545008,-0.004000000000000001,-0.01352,-0.0029700000000000004,1.8775000000000002,-0.3215,-9.9923,5.507286184388696,12.319468757306451,15.229999542236328,15.289999961853027,15.269999504089355,15.219999313354492,12.36690004889168,12.415620942824306,12.399380386715984,12.358779770837517,12.38517028731737,0.005333146364120044,1.8000000715255737,32.07500076293945,0.0,0.0,0.0,0.0,0.0,,,,,
frame_00035.png,1771859418012315657,1771859418.0123158,42.30019908438226,-83.6985914792797,236.42799377441406,-0.7034516892309567,-0.710622850437433,0.011508075728481401,0.006200769897246733,0.0019300000000000003,-0.015640000000000005,-1e-05,1.7838,-0.32030000000000003,-9.8134,5.601707412974899,12.530683380380072,15.5,15.489999771118164,15.529999732971191,15.519999504089355,12.586142910000001,12.578022631945839,12.610502969770145,12.602382691715986,12.594262800857994,0.005073898888664857,1.899999976158142,32.0,0.0,0.0,0.0,0.0,0.0,,,,,
frame_00036.png,1771859418063211363,1771859418.0632112,42.300202122625784,-83.69859158475238,236.43490600585938,-0.7034324913717633,-0.7106403811675649,0.011746830659748268,0.00591529424317902,0.0008100000000000001,-0.013630000000000001,-0.004190000000000001,1.5948,-0.4773,-10.1137,5.689527525788764,12.727131703537918,15.789999961853027,15.789999961853027,15.789999961853027,15.739999771118164,12.821625552824306,12.821625552824306,12.821625552824306,12.781024936945839,12.81147539885469,0.006627078062948442,1.899999976158142,32.10000228881836,0.0,0.0,0.0,0.0,0.0,,,,,
frame_00037.png,1771859418113317371,1771859418.1133175,42.300204183927505,-83.69859165578043,236.43959045410156,-0.703424999128665,-0.7106478819137848,0.011907766741001517,0.005573474995989765,-0.0036300000000000004,-0.018290000000000004,-0.00335,1.7938,-0.8345,-10.069600000000001,5.780685961242516,12.931047654141834,15.949999809265137,15.979999542236328,16.020000457763672,16.010000228881836,12.951546904121534,12.975906963891678,13.008388076108323,13.00026779805416,12.984027435543924,0.004097098921843409,1.899999976158142,32.0,0.0,0.0,0.0,0.0,0.0,,,,,
frame_00038.png,1771859418164532752,1771859418.1645327,42.300207319687466,-83.69859176762702,236.4469757080078,-0.7033843129077059,-0.7106902599608349,0.012000655036964654,0.005083997525515785,-0.012520000000000002,-0.023160000000000004,-0.004110000000000001,1.6902000000000001,-0.7803,-9.7834,5.871485763370238,13.134161363513421,16.18000030517578,16.279998779296875,16.299999237060547,16.279998779296875,13.138309427405549,13.219509110377807,13.23574966648613,13.219509110377807,13.203269328661824,0.005261696063852548,1.899999976158142,31.575000762939453,0.0,0.0,0.0,0.0,0.0,,,,,
frame_00039.png,1771859418214209543,1771859418.2142096,42.300210513483876,-83.69859187961136,236.453857421875,-0.7033056540363921,-0.7107696225151705,0.01213017417829692,0.00453426780073342,-0.009040000000000001,-0.024970000000000003,-0.0072000000000000015,1.6747,-0.78,-9.4633,5.961459667055593,13.335427587623338,16.440000534057617,16.520000457763672,16.529998779296875,16.549999237060547,13.34943201045971,13.414392686108322,13.422511415377807,13.43875197148613,13.40627202085799,0.005312498063459452,1.8000000715255737,31.700000762939453,0.0,0.0,0.0,0.0,0.0,,,,,
frame_00040.png,1771859418257484631,1771859418.2574844,42.300212673400864,-83.6985919545785,236.4580535888672,-0.7032370349311907,-0.7108400014775321,0.012146533743479177,0.004077587353791744,-0.008640000000000002,-0.014270000000000003,-0.008100000000000001,1.8464,0.2185,-9.4122,6.029683013719662,13.488039120710063,16.75,16.729999542236328,16.779998779296875,16.760000228881836,13.601154435,13.58491387889168,13.625513720377807,13.609274713054162,13.605214186830914,0.008687331425435697,1.8000000715255737,31.75,0.0,0.0,0.0,0.0,0.0,,,,,
frame_00041.png,1771859418309025479,1771859418.3090255,42.300214855131195,-83.69859203090691,236.4620819091797,-0.7031271827384955,-0.7109490078927064,0.012287129097299876,0.003563639873600259,-0.00251,-0.016290000000000002,-0.00941,1.8226,0.0383,-9.925500000000001,6.115833178269096,13.680751869797271,16.93000030517578,16.94999885559082,16.93000030517578,17.059999465942383,13.747316342405549,13.763555349729195,13.747316342405549,13.852876859540292,13.777766223520146,0.0070913027767904625,1.7000000476837158,31.30000114440918,0.0,0.0,0.0,0.0,0.0,,,,,
frame_00042.png,1771859418357809590,1771859418.3578098,42.300218173569576,-83.69859215575646,236.4684600830078,-0.7030325986610165,-0.7110411841551005,0.012521761227477685,0.0029673474708004394,-0.012750000000000003,-0.022340000000000006,-0.008150000000000001,1.6064,-0.4738,-9.6361,6.202502323065059,13.874625546557155,17.219999313354492,17.219999313354492,17.18000030517578,17.219999313354492,13.982798210837517,13.982798210837517,13.950318647405549,13.982798210837517,13.974678319979525,0.007211205310488295,1.7000000476837158,31.17500114440918,0.0,0.0,0.0,0.0,0.0,,,,,
frame_00043.png,1771859418407721771,1771859418.4077218,42.300220420864314,-83.69859224255899,236.47256469726562,-0.7029953789855589,-0.7110777119262182,0.012659297884125623,0.0023930950264966834,-0.010610000000000003,-0.019420000000000003,9e-05,1.482,-0.37820000000000004,-9.750300000000001,6.28581886127704,14.060999643545063,17.399999618530273,17.389999389648438,17.479999542236328,17.520000457763672,14.128960118243066,14.120839840188903,14.193920793891678,14.226401906108324,14.167530664607993,0.007576347611375866,1.600000023841858,31.05000114440918,0.0,0.0,0.0,0.0,0.0,,,,,
frame_00044.png,1771859418458765307,1771859418.4587653,42.30022382856414,-83.69859237405498,236.47824096679688,-0.7030118704801697,-0.7110604571318659,0.012776596085582138,0.002023576008192541,-0.00792,-0.008620000000000001,0.0028000000000000004,1.6199000000000001,-0.0901,-9.569,6.362761378463385,14.233115437939885,17.760000228881836,17.6299991607666,17.709999084472656,17.709999084472656,14.421283933054161,14.315721867134743,14.380682542783356,14.380682542783356,14.374592721438903,0.00994000815323224,1.5,30.825000762939453,0.0,0.0,0.0,0.0,0.0,,,,,
frame_00045.png,1771859418508869163,1771859418.5088692,42.300226127326354,-83.69859246217923,236.48162841796875,-0.7030207622896623,-0.7110492815833408,0.012926825540351503,0.0019037150327458538,-0.0026500000000000004,-0.0041400000000000005,-0.00079,1.5124,0.0664,-9.8706,6.440546675448601,14.407116480177995,17.84000015258789,17.93000030517578,17.94999885559082,17.899999618530273,14.486244608702776,14.559325562405549,14.575564569729195,14.534964728243066,14.539024867270147,0.00915577987265094,1.399999976158142,29.899999618530273,0.0,0.0,0.0,0.0,0.0,,,,,
frame_00046.png,1771859418559638714,1771859418.5596387,42.30022961928456,-83.69859258992436,236.4869842529297,-0.7029671720716106,-0.711100536526844,0.01302611988163146,0.001871401000944319,0.00404,-0.007220000000000001,-0.0026100000000000003,1.554,-0.0473,-10.0251,6.537548827185507,14.62410447348435,18.139999389648438,18.19999885559082,18.209999084472656,18.15999984741211,14.729846755188905,14.778566874729195,14.786687152783356,14.746087311297225,14.760297023499671,0.009312881363932999,1.399999976158142,29.149999618530273,0.0,0.0,0.0,0.0,0.0,,,,,
frame_00047.png,1771859418609272435,1771859418.6092722,42.300231972301226,-83.69859267154087,236.4913787841797,-0.7028745963957244,-0.711186886698027,0.013315080989661911,0.0017951458308254062,0.011040000000000001,-0.014690000000000002,-0.006300000000000001,1.621,-0.15230000000000002,-9.664900000000001,6.6201528346229335,14.808884681881425,18.399999618530273,18.3799991607666,18.389999389648438,18.3799991607666,14.940969338243065,14.924728782134743,14.932849060188905,14.924728782134743,14.930818990675364,0.00823386172647594,1.3000000715255737,15.125,0.0,0.0,0.0,0.0,0.0,,,,,
frame_00048.png,1771859418660193320,1771859418.6601932,42.30023555415385,-83.69859279241028,236.49749755859375,-0.7027597361047029,-0.711290270524434,0.013860085343393861,0.0016740375143780848,0.014430000000000002,-0.01602,-0.00854,1.5711000000000002,-0.6504,-9.6831,6.70069071206605,14.989043081449031,18.619998931884766,18.649999618530273,18.56999969482422,18.56999969482422,15.119610809080582,15.143971643243065,15.079010967594453,15.079010967594453,15.10540109687814,0.007762871505327609,1.2000000476837158,0.4749999940395355,0.0,0.0,0.0,0.0,0.0,,,,,
frame_00049.png,1771859418710445152,1771859418.7104452,42.30023797475818,-83.69859287484488,236.50131225585938,-0.7026932203020797,-0.7113443283597832,0.014491563762224989,0.0012162366492994524,0.016530000000000003,-0.024700000000000003,-0.0035800000000000007,0.9008,-0.4404,-9.6066,6.771904401903291,15.148343832793548,18.84000015258789,18.78999900817871,18.719999313354492,18.770000457763672,15.298253828702775,15.25765243843197,15.200812040837517,15.241413431108322,15.249532934770146,0.006679878876101337,1.100000023841858,0.0,0.0,0.0,0.0,0.0,0.0,,,,,
frame_00050.png,1771859418761820546,1771859418.7618206,42.30024163618848,-83.69859300371365,236.50650024414062,-0.7026624795166235,-0.7113549439670168,0.015449301324099638,0.000950085169906467,0.029330000000000002,-0.030380000000000004,0.0012200000000000002,0.4274,-0.5742,-9.466700000000001,6.830931757867973,15.280384486445186,18.889999389648438,18.889999389648438,18.93000030517578,18.939998626708984,15.338853670188904,15.338853670188904,15.37133478240555,15.379453511675035,15.357123908614597,0.00502208712336289,1.0,0.0,0.0,0.0,0.0,0.0,0.0,,,,,
frame_00051.png,1771859418811336382,1771859418.8113365,42.30024409595235,-83.69859309306719,236.50930786132812,-0.7026696681594864,-0.7113321998591392,0.016166637980057047,0.0006918877197258034,0.00783,-0.028490000000000005,0.00251,0.4096,-0.4066,-9.7829,6.869353983041441,15.366332698824722,18.959999084472656,19.020000457763672,19.020000457763672,18.969999313354492,15.395694067783356,15.444415736108322,15.444415736108322,15.403814345837517,15.42208497145938,0.003628209393053304,0.800000011920929,0.0,0.0,0.0,0.0,0.0,0.0,,,,,
frame_00052.png,1771859418862201326,1771859418.8622015,42.30024780072797,-83.69859323119417,236.5132293701172,-0.702671472609325,-0.71132005894813,0.016627380361847674,0.0003248713183177339,0.00131,-0.0234,0.0008700000000000001,0.2549,0.15130000000000002,-9.699200000000001,6.897997775663442,15.43040714429258,19.119998931884766,19.10999870300293,19.149999618530273,19.100000381469727,15.525615419080582,15.517495141026421,15.549976253243067,15.509376411756936,15.52561580627675,0.006170197655438147,0.6000000238418579,0.0,0.0,0.0,0.0,0.0,0.0,,,,,
frame_00053.png,1771859418912374097,1771859418.912374,42.30025027704551,-83.69859332210328,236.51629638671875,-0.7026315012179176,-0.7113433182815757,0.017310571343850806,3.3943507614954834e-05,0.01794,-0.02313,-0.0033300000000000005,0.2174,0.10260000000000001,-9.607700000000001,6.918084651190341,15.475340279633723,19.170000076293945,19.149999618530273,19.229999542236328,19.189998626708984,15.566216809351387,15.549976253243067,15.614936928891678,15.582455816675035,15.578396452040293,0.006659380055260967,0.30000001192092896,0.0,0.0,0.0,0.0,0.0,0.0,,,,,
frame_00054.png,1771859418963068755,1771859418.9630687,42.300254008051624,-83.69859345213004,236.5210723876953,-0.7025018038855999,-0.7114509184545578,0.018131181272819402,-0.0002577465739577771,0.014140000000000002,-0.03533000000000001,-0.0074,-0.0257,0.0925,-10.2499,6.931997645852511,15.506462813913316,19.209999084472656,19.229999542236328,19.149999618530273,19.239999771118164,15.598696372783357,15.614936928891678,15.549976253243067,15.62305720694584,15.596666690465986,0.0058171794325481575,0.30000001192092896,0.0,0.0,0.0,0.0,0.0,0.0,,,,,
frame_00055.png,1771859419013170603,1771859419.0131707,42.300256500702396,-83.69859353653969,236.52471923828125,-0.7024097701426509,-0.7115178314195367,0.019044678897470437,-0.00043656142785020196,0.012980000000000002,-0.028750000000000005,0.0017400000000000002,-0.7058,0.055400000000000005,-10.003300000000001,6.9300792045677015,15.502171375865675,19.260000228881836,19.369998931884766,19.229999542236328,19.299999237060547,15.639297763054161,15.728617724080582,15.614936928891678,15.671777326486131,15.663657435628139,0.010416996164412853,0.30000001192092896,0.0,0.0,0.0,0.0,0.0,0.0,,,,,
frame_00056.png,1771859419064253323,1771859419.0642533,42.30026023788906,-83.698593653269,236.53028869628906,-0.7023214526615128,-0.711574985453743,0.020139265658468502,-0.00016488379536812341,0.04030000000000001,-0.020110000000000003,-0.00135,-0.5971000000000001,-0.2257,-9.3847,6.932407645008063,15.50737995742434,19.260000228881836,19.34000015258789,19.299999237060547,19.35999870300293,15.639297763054161,15.704258438702775,15.671777326486131,15.720497446026421,15.683957743567372,0.011386693730844884,0.30000001192092896,0.0,0.0,0.0,0.0,0.0,0.0,,,,,
frame_00057.png,1771859419114296152,1771859419.114296,42.3002639759353,-83.69859376408196,236.5343780517578,-0.7022776514089971,-0.7115827244928012,0.021351635145374748,0.0004839540104663827,0.03960000000000001,-0.015770000000000003,0.0023000000000000004,-0.2197,-0.5578000000000001,-8.985800000000001,6.93289549838488,15.508471256157074,19.299999237060547,19.270000457763672,19.34000015258789,19.35999870300293,15.671777326486131,15.647418041108322,15.704258438702775,15.720497446026421,15.685987813080912,0.011446425246676781,0.30000001192092896,0.0,0.0,0.0,0.0,0.0,0.0,,,,,
frame_00058.png,1771859419165716091,1771859419.165716,42.30026646698735,-83.69859384054821,236.53590393066406,-0.7022845070754847,-0.7115475082300544,0.02225829913304015,0.001087553698938556,0.025320000000000002,0.00131,0.006370000000000001,-0.6993,-0.4781,-9.1706,6.922073954287581,15.484264111304062,19.299999237060547,19.34000015258789,19.28999900817871,19.329999923706055,15.671777326486131,15.704258438702775,15.663657048431968,15.696138160648614,15.683957743567372,0.012896552966797216,0.30000001192092896,0.0,0.0,0.0,0.0,0.0,0.0,,,,,
frame_00059.png,1771859419215500460,1771859419.2155006,42.30027019522328,-83.69859396055939,236.53590393066406,-0.7022426508722605,-0.7115803157262637,0.02249050334722441,0.0017002429238366383,0.012410000000000001,0.018480000000000003,0.00042000000000000007,-0.4933,-0.9622,-9.82,6.909742270539935,15.456678874661604,19.35999870300293,19.329999923706055,19.35999870300293,19.28999900817871,15.720497446026421,15.696138160648614,15.720497446026421,15.663657048431968,15.700197525283357,0.015754914273399184,0.30000001192092896,0.0,0.0,0.0,0.0,0.0,0.0,,,,,
frame_00060.png,1771859419266410922,1771859419.266411,42.300272674105,-83.69859404603952,236.53521728515625,-0.7021991419326813,-0.7116303731922837,0.022210269777039354,0.0022980286438791723,0.0083,0.028090000000000004,-0.00321,-0.6673,-0.49400000000000005,-9.5203,6.902227916141498,15.439869714733563,19.399999618530273,19.350000381469727,19.34000015258789,19.399999618530273,15.752978558243067,15.712378716756936,15.704258438702775,15.752978558243067,15.73064856798646,0.018832986199062304,0.30000001192092896,0.0,0.0,0.0,0.0,0.0,0.0,,,,,
frame_00061.png,1771859419316313920,1771859419.3163137,42.300276390265836,-83.6985941819317,236.53370666503906,-0.7021247170123359,-0.7117159467387985,0.02173167875439231,0.003004506042400663,0.011940000000000001,0.03674,-0.00801,-0.2136,-0.46540000000000004,-9.7651,6.90189199446388,15.439118278096034,19.35999870300293,19.329999923706055,19.279998779296875,19.329999923706055,15.720497446026421,15.696138160648614,15.65553677037781,15.696138160648614,15.692077634425365,0.016384313648805486,0.30000001192092896,0.0,0.0,0.0,0.0,0.0,0.0,,,,,
frame_00062.png,1771859419367413421,1771859419.3674135,42.3002788703336,-83.69859427646927,236.53338623046875,-0.7020762169746436,-0.711775346522002,0.0212704765944206,0.0035225654718478243,0.00203,0.02262,-0.005420000000000001,0.0275,-0.6312,-10.3307,6.903877723299251,15.443560234357028,19.34000015258789,19.34000015258789,19.279998779296875,19.35999870300293,15.704258438702775,15.704258438702775,15.65553677037781,15.720497446026421,15.696137773452445,0.016354877713593056,0.4000000059604645,0.0,0.0,0.0,0.0,0.0,0.0,,,,,
frame_00063.png,1771859419426892444,1771859419.4268925,42.300282590776135,-83.69859442712877,236.534423828125,-0.7020716395518237,-0.7117891794112028,0.02089072749829065,0.0038928800049438535,-0.0005000000000000001,0.01137,0.0032600000000000003,0.17200000000000001,-0.7842,-10.539900000000001,6.913753230039889,15.465651150405431,19.31999969482422,19.260000228881836,19.34000015258789,19.35999870300293,15.688017882594451,15.639297763054161,15.704258438702775,15.720497446026421,15.688017882594451,0.014378103451737973,0.5,0.0,0.0,0.0,0.0,0.0,0.0,,,,,
frame_00064.png,1771859419470628709,1771859419.4706285,42.300285074673596,-83.6985945277822,236.5361328125,-0.7021277951369486,-0.7117384529609947,0.020740904168287624,0.0038404123605171136,-0.007000000000000001,0.0007300000000000002,0.0023000000000000004,0.112,-0.2487,-9.7133,6.917619425113471,15.474299596813328,19.28999900817871,19.299999237060547,19.309999465942383,19.369998931884766,15.663657048431968,15.671777326486131,15.679897604540292,15.728617724080582,15.685987425884743,0.01367996191019909,0.699999988079071,0.0,0.0,0.0,0.0,0.0,0.0,,,,,
frame_00065.png,1771859419518380019,1771859419.51838,42.30028880057631,-83.69859467799263,236.53939819335938,-0.702101430236941,-0.7117696601993516,0.020538348416314356,0.003963423175888034,0.00039000000000000005,0.02025,0.0006300000000000001,-0.4116,0.0675,-9.687000000000001,6.910466971064748,15.458299986253579,19.28999900817871,19.44999885559082,19.369998931884766,19.469999313354492,15.663657048431968,15.793578399729196,15.728617724080582,15.809818955837516,15.748918032019816,0.018800129770069916,0.800000011920929,0.0,0.0,0.0,0.0,0.0,0.0,,,,,
frame_00066.png,1771859419569250729,1771859419.5692508,42.300291272443125,-83.69859477001187,236.5409698486328,-0.7019660838680787,-0.7119217096614798,0.019787862426600817,0.004420057937978017,-0.009340000000000003,0.031490000000000004,-0.013010000000000002,0.0409,-0.7682,-9.6621,6.913504294263851,15.46509429601058,19.389999389648438,19.579999923706055,19.399999618530273,19.389999389648438,15.744858280188904,15.899140465648614,15.752978558243067,15.744858280188904,15.785458896067372,0.020715334412117592,0.800000011920929,0.0,0.0,0.0,0.0,0.0,0.0,,,,,
frame_00067.png,1771859419619230046,1771859419.61923,42.300294992211875,-83.69859490970074,236.54281616210938,-0.7018455216880699,-0.7120551579643771,0.019162382590489354,0.004808200929949046,0.006090000000000001,0.01837,-0.007490000000000002,-0.0704,-0.5889,-10.2294,6.924991525914705,15.49079054397964,19.389999389648438,19.420000076293945,19.510000228881836,19.389999389648438,15.744858280188904,15.769219114351388,15.842300068054161,15.744858280188904,15.77530893569584,0.018366938143565235,0.800000011920929,0.0,0.0,0.0,0.0,0.0,0.0,,,,,
frame_00068.png,1771859419670270046,1771859419.67027,42.30029748105036,-83.69859500221798,236.54481506347656,-0.7017379250700057,-0.7121650699923872,0.0189656588504248,0.005010128296828824,0.012520000000000002,0.0033200000000000005,-0.006050000000000001,0.2212,-0.1296,-10.269300000000001,6.941677219743533,15.5281154399331,19.399999618530273,19.35999870300293,19.420000076293945,19.40999984741211,15.752978558243067,15.720497446026421,15.769219114351388,15.761098836297226,15.750948488729524,0.014350295736684988,0.800000011920929,0.0,0.0,0.0,0.0,0.0,0.0,,,,,
frame_00069.png,1771859419720050005,1771859419.7200499,42.30030121653248,-83.69859514467686,236.54879760742188,-0.7016827159290787,-0.71221153192662,0.01922166683235109,0.0051601822947477055,0.0048000000000000004,-0.007750000000000001,-0.0020700000000000002,0.0654,-0.0646,-9.925600000000001,6.949239186586212,15.545031106042162,19.35999870300293,19.420000076293945,19.43000030517578,19.399999618530273,15.720497446026421,15.769219114351388,15.77733939240555,15.752978558243067,15.755008627756606,0.013507693891511656,0.699999988079071,0.0,0.0,0.0,0.0,0.0,0.0,,,,,
frame_00070.png,1771859419771366746,1771859419.7713666,42.30030371033483,-83.69859524407428,236.55177307128906,-0.7016972680446419,-0.712196672971743,0.01926436720240754,0.005072197054192392,-0.017620000000000004,-0.0032500000000000007,0.004190000000000001,-0.3165,-0.0137,-9.968300000000001,6.946267369091722,15.538383328616039,19.459999084472656,19.35999870300293,19.44999885559082,19.369998931884766,15.801698677783357,15.720497446026421,15.793578399729196,15.728617724080582,15.761098061904889,0.014333198543164434,0.6000000238418579,0.0,0.0,0.0,0.0,0.0,0.0,,,,,
frame_00071.png,1771859419821103054,1771859419.821103,42.30030745072854,-83.69859539794308,236.55638122558594,-0.7017305345414812,-0.7121723056640217,0.019009042535074423,0.004849766924098239,-0.006780000000000001,0.0023500000000000005,0.0029700000000000004,0.0298,0.3022,-9.744200000000001,6.952884099117883,15.553184556680758,19.420000076293945,19.329999923706055,19.469999313354492,19.44999885559082,15.769219114351388,15.696138160648614,15.809818955837516,15.793578399729196,15.767188657641679,0.013759503732564961,0.30000001192092896,0.0,0.0,0.0,0.0,0.0,0.0,,,,,
frame_00072.png,1771859419872208812,1771859419.8722088,42.30030994104634,-83.69859549364904,236.5592498779297,-0.701740307306949,-0.7121654498340942,0.018898188319008205,0.004875617049150832,-0.01365,0.005460000000000001,0.0014100000000000002,-0.0683,-0.027700000000000002,-9.347900000000001,6.9543722311632505,15.556513418778323,19.439998626708984,19.510000228881836,19.549999237060547,19.270000457763672,15.785458121675035,15.842300068054161,15.874779631486131,15.647418041108322,15.787488965580913,0.014847513744550138,-0.10000000149011612,0.0,0.0,0.0,0.0,0.0,0.0,,,,,
frame_00073.png,1771859419922064044,1771859419.922064,42.30031368575928,-83.69859564478652,236.56321716308594,-0.701739177100808,-0.7121762766364257,0.0185807017061995,0.004672883720259855,-0.026320000000000003,0.0015400000000000001,-0.00223,0.19390000000000002,-0.762,-9.937100000000001,6.959709474604151,15.56845251212101,19.479999542236328,19.459999084472656,19.479999542236328,19.399999618530273,15.817939233891678,15.801698677783357,15.817939233891678,15.752978558243067,15.797638925952445,0.014721207111175586,-0.5,0.0,0.0,0.0,0.0,0.0,0.0,,,,,
frame_00074.png,1771859419973440545,1771859419.9734404,42.30031618546902,-83.69859575232759,236.56663513183594,-0.7017448735411481,-0.7121855062496785,0.018140270537894493,0.004107034382516438,-0.030220000000000004,-0.0058400000000000014,-0.0027,0.13620000000000002,-0.9318000000000001,-10.155000000000001,6.962594562453507,15.57490628053475,19.43000030517578,19.43000030517578,19.459999084472656,19.43000030517578,15.77733939240555,15.77733939240555,15.801698677783357,15.77733939240555,15.78342921375,0.013388390880775928,-0.800000011920929,0.0,0.0,0.0,0.0,0.0,0.0,,,,,
frame_00075.png,1771859420023202889,1771859420.023203,42.30031993500355,-83.69859591751302,236.57254028320312,-0.7018244312353409,-0.7121164495019714,0.017899199896216175,0.003499816133959541,-0.012780000000000001,-0.00449,0.0027900000000000004,0.0029000000000000002,-0.6894,-9.629900000000001,6.9608243043467555,15.570946319365433,19.510000228881836,19.40999984741211,19.439998626708984,19.459999084472656,15.842300068054161,15.761098836297226,15.785458121675035,15.801698677783357,15.797638925952445,0.014558691677273092,-0.9000000357627869,0.0,0.0,0.0,0.0,0.0,0.0,,,,,
frame_00076.png,1771859420073963820,1771859420.0739639,42.300322436716684,-83.6985960286003,236.57666015625,-0.7019243353975984,-0.7120205726661687,0.017871322125072753,0.0030898741532494416,-0.0034900000000000005,-0.00521,0.004520000000000001,-0.3628,-0.049800000000000004,-9.6226,6.9569782848002895,15.56234300440116,19.44999885559082,19.549999237060547,19.479999542236328,19.510000228881836,15.793578399729196,15.874779631486131,15.817939233891678,15.842300068054161,15.832149333290293,0.017337127758514797,-0.800000011920929,0.0,0.0,0.0,0.0,0.0,0.0,,,,,
frame_00077.png,1771859420123918418,1771859420.1239183,42.30032618201768,-83.6985961864911,236.58197021484375,-0.7019973889813651,-0.7119496624348794,0.017843093324932672,0.0029946690643623606,-0.007180000000000001,0.006410000000000002,0.0020000000000000005,-0.6103000000000001,-0.0741,-9.4826,6.948020614184701,15.542305232694327,19.389999389648438,19.35999870300293,19.43000030517578,19.439998626708984,15.744858280188904,15.720497446026421,15.77733939240555,15.785458121675035,15.757038310073977,0.013816037850546393,-0.800000011920929,0.0,0.0,0.0,0.0,0.0,0.0,,,,,
frame_00078.png,1771859420175206619,1771859420.1752067,42.300329922266194,-83.69859634052487,236.5863494873047,-0.702031954248445,-0.7119278175389311,0.017379624750195312,0.0028047231424948517,-0.026140000000000004,0.010090000000000002,0.00048,-0.3488,-0.3297,-9.7741,6.941653827547218,15.528063112993475,19.420000076293945,19.44999885559082,19.459999084472656,19.459999084472656,15.769219114351388,15.793578399729196,15.801698677783357,15.801698677783357,15.791548717411825,0.016968349658359614,-0.800000011920929,0.0,0.0,0.0,0.0,0.0,0.0,,,,,
frame_00079.png,1771859420224967484,1771859420.2249675,42.30033241206574,-83.69859643882356,236.5892333984375,-0.7020518902755323,-0.7119146518550119,0.017141049903696602,0.0026184428403136415,-0.003940000000000001,-0.012410000000000001,0.0025900000000000003,-0.4753,0.1895,-10.051,6.943907335302102,15.533104074630685,19.43000030517578,19.43000030517578,19.399999618530273,19.489999771118164,15.77733939240555,15.77733939240555,15.752978558243067,15.82605951194584,15.78342921375,0.01611559015613349,-0.800000011920929,0.0,0.0,0.0,0.0,0.0,0.0,,,,,
frame_00080.png,1771859420276369608,1771859420.2763696,42.300336149656985,-83.69859657065543,236.5935821533203,-0.7020036226741059,-0.7119515223232553,0.017529534266908165,0.002942625089328759,0.02278,-0.005260000000000001,-0.00103,-0.7029000000000001,-0.051000000000000004,-10.0065,6.936854140044249,15.517326500030585,19.40999984741211,19.329999923706055,19.40999984741211,19.3799991607666,15.761098836297226,15.696138160648614,15.761098836297226,15.736738002134743,15.73876845884445,0.014270625730110766,-0.5,0.0,0.0,0.0,0.0,0.0,0.0,,,,,
frame_00081.png,1771859420326350704,1771859420.3263507,42.30033864029182,-83.69859665565443,236.59645080566406,-0.7019384323112816,-0.7120008123606626,0.01803004890673099,0.0034925318263023925,0.018670000000000003,0.004470000000000001,-0.0034800000000000005,-0.406,-0.9939,-9.385,6.927279026906461,15.495907546448139,19.420000076293945,19.3799991607666,19.35999870300293,19.35999870300293,15.769219114351388,15.736738002134743,15.720497446026421,15.720497446026421,15.736738002134743,0.015541552178517309,0.10000000149011612,0.0,0.0,0.0,0.0,0.0,0.0,,,,,
frame_00082.png,1771859420378050158,1771859420.37805,42.30034236693423,-83.69859678341312,236.60104370117188,-0.7018985790467249,-0.7120373878922653,0.018070469011057792,0.003821141906341323,0.010080000000000002,0.0034800000000000005,-0.0030400000000000006,-0.4928,-1.0422,-9.7338,6.916150246670029,15.471013132786057,19.40999984741211,19.369998931884766,19.389999389648438,19.399999618530273,15.761098836297226,15.728617724080582,15.744858280188904,15.752978558243067,15.746888349702443,0.017831748609388326,0.699999988079071,0.0,0.0,0.0,0.0,0.0,0.0,,,,,
frame_00083.png,1771859420430159746,1771859420.4301598,42.30034485034184,-83.69859687270075,236.60401916503906,-0.7019158621092434,-0.7120268599826395,0.017725369160233477,0.004205290814395358,-0.00203,0.012440000000000003,3e-05,-0.4883,-1.1503,-9.946,6.9020722645815775,15.439521531533115,19.329999923706055,19.35999870300293,19.34000015258789,19.31999969482422,15.696138160648614,15.720497446026421,15.704258438702775,15.688017882594451,15.702227981993065,0.017015193762540362,0.699999988079071,0.0,0.0,0.0,0.0,0.0,0.0,,,,,
frame_00084.png,1771859420480651821,1771859420.4806519,42.30034856979795,-83.698597015082,236.60923767089844,-0.7019008362104401,-0.7120445839336609,0.017578256951910943,0.004327990337035527,0.016590000000000004,-0.0046300000000000004,-0.0023100000000000004,-0.24200000000000002,-0.2679,-10.1465,6.907592509801099,15.451869988874472,19.299999237060547,19.260000228881836,19.389999389648438,19.35999870300293,15.671777326486131,15.639297763054161,15.744858280188904,15.720497446026421,15.694107703938904,0.015676919055029968,0.6000000238418579,0.0,0.0,0.0,0.0,0.0,0.0,,,,,
frame_00085.png,1771859420527997568,1771859420.5279975,42.300351050657284,-83.69859710627397,236.61355590820312,-0.7018579669130658,-0.7120753685074507,0.018042782326297295,0.004303702076354074,0.0239,-0.027270000000000006,-0.00319,0.2172,0.2311,-10.2951,6.914636474007954,15.467626914167353,19.170000076293945,19.25,19.35999870300293,19.260000228881836,15.566216809351387,15.631177485000002,15.720497446026421,15.639297763054161,15.639297375857993,0.011098694236890408,0.4000000059604645,0.0,0.0,0.0,0.0,0.0,0.0,,,,,
frame_00086.png,1771859420578937336,1771859420.5789373,42.30035477386224,-83.69859725000238,236.6201934814453,-0.7018120963917345,-0.7121091011691075,0.01864658281115593,0.0035657172954523535,-0.017620000000000004,-0.03962000000000001,-0.0025000000000000005,0.13090000000000002,0.3165,-9.5298,6.9125053894855695,15.462859805955851,19.139999389648438,19.139999389648438,19.189998626708984,19.209999084472656,15.541855975188904,15.541855975188904,15.582455816675035,15.598696372783357,15.56621603495905,0.0066841600001694736,0.4000000059604645,0.0,0.0,0.0,0.0,0.0,0.0,,,,,
frame_00087.png,1771859420629348013,1771859420.629348,42.30035725311693,-83.69859735131587,236.6239471435547,-0.7017768330033853,-0.7121319211400085,0.019256067898831507,0.002570486773973694,-0.020360000000000003,-0.033420000000000005,0.0039900000000000005,-0.677,0.8697,-8.6835,6.891354724730824,15.41554703793937,19.28999900817871,19.299999237060547,19.219999313354492,19.229999542236328,15.663657048431968,15.671777326486131,15.606816650837517,15.614936928891678,15.639296988661824,0.014514564431075976,0.10000000149011612,0.0,0.0,0.0,0.0,0.0,0.0,,,,,
frame_00088.png,1771859420680079573,1771859420.6800797,42.30036095935818,-83.69859749391216,236.62811279296875,-0.7016967199203608,-0.7122059479187731,0.019436305127907103,0.002575081572162551,-0.011100000000000002,0.011380000000000001,0.00117,-0.605,-0.27590000000000003,-9.0272,6.8668857619067545,15.360811436239697,19.28999900817871,19.3799991607666,19.209999084472656,19.229999542236328,15.663657048431968,15.736738002134743,15.598696372783357,15.614936928891678,15.653507088060437,0.01905469987934382,-0.4000000059604645,0.0,0.0,0.0,0.0,0.0,0.0,,,,,
frame_00089.png,1771859420729904721,1771859420.7299047,42.30036342904932,-83.69859758851054,236.6299285888672,-0.701703845767365,-0.7121968531902997,0.019487481752467634,0.002755575452120878,-0.009630000000000001,0.012630000000000002,0.006590000000000001,-1.0575,-0.9087000000000001,-10.2821,6.855218655023768,15.33471281816887,19.31999969482422,19.25,19.219999313354492,19.219999313354492,15.688017882594451,15.631177485000002,15.606816650837517,15.606816650837517,15.633207167317371,0.019465271550102976,-0.699999988079071,0.0,0.0,0.0,0.0,0.0,0.0,,,,,
frame_00090.png,1771859420781376211,1771859420.7813764,42.30036712492945,-83.69859773676416,236.63365173339844,-0.7017366637723876,-0.7121676607367969,0.019374820886526506,0.002737523313610162,-0.015930000000000003,0.009950000000000002,0.004430000000000001,-0.8026000000000001,-1.0318,-10.6381,6.852480430545234,15.328587574303857,19.170000076293945,19.170000076293945,19.139999389648438,19.170000076293945,15.566216809351387,15.566216809351387,15.541855975188904,15.566216809351387,15.560126600810767,0.015105046396776413,-1.0,0.0,0.0,0.0,0.0,0.0,0.0,,,,,
frame_00091.png,1771859420831169261,1771859420.8311694,42.300369581975545,-83.69859783865533,236.6376190185547,-0.7018008412983346,-0.712112751986695,0.019144800552525192,0.002117598330576401,-0.031700000000000006,-0.022640000000000004,0.005470000000000001,-0.19240000000000002,-0.4853,-11.0831,6.8569447999288755,15.3385741007529,19.100000381469727,19.100000381469727,19.139999389648438,19.100000381469727,15.509376411756936,15.509376411756936,15.541855975188904,15.509376411756936,15.517496302614926,0.011664852331563422,-1.3000000715255737,0.0,0.0,0.0,0.0,0.0,0.0,,,,,
frame_00092.png,1771859420882157329,1771859420.8821573,42.30037327530483,-83.69859799491155,236.64549255371094,-0.7018663662652546,-0.712043735789327,0.019391476566008495,0.0011370423811851835,-0.016430000000000004,-0.04413,0.0064600000000000005,-0.4973,0.0095,-9.584200000000001,6.854846952717793,15.33388134241254,19.1299991607666,19.03999900817871,19.170000076293945,19.18000030517578,15.533735697134745,15.46065474343197,15.566216809351387,15.57433708740555,15.533736084330911,0.013033539092648708,-1.8000000715255737,0.0,0.0,0.0,0.0,0.0,0.0,,,,,
frame_00093.png,1771859420932047174,1771859420.9320471,42.300375736728604,-83.69859809370026,236.65013122558594,-0.7018994782716783,-0.7119966310091549,0.019934194904456047,0.0007400723412616762,0.016190000000000003,-0.015400000000000002,-0.00072,-0.3881,-0.2051,-8.1903,6.840625973715124,15.30206986564231,19.059999465942383,19.09000015258789,19.170000076293945,19.209999084472656,15.476895299540292,15.501256133702775,15.566216809351387,15.598696372783357,15.535766153844452,0.01527220109789596,-2.299999952316284,0.0,0.0,0.0,0.0,0.0,0.0,,,,,
frame_00094.png,1771859420982993005,1771859420.982993,42.300379417423436,-83.69859823465758,236.6536102294922,-0.701896391324948,-0.7119978502761521,0.019991720844750746,0.0009209477831658739,0.0024700000000000004,0.017410000000000002,0.0011200000000000003,-0.31820000000000004,0.3905,-8.7635,6.818854051950094,15.253367382969245,19.139999389648438,19.119998931884766,19.189998626708984,19.119998931884766,15.541855975188904,15.525615419080582,15.582455816675035,15.525615419080582,15.543885657506275,0.01904617303464419,-2.6000001430511475,0.0,0.0,0.0,0.0,0.0,0.0,,,,,
frame_00095.png,1771859421032906213,1771859421.0329063,42.3003818682768,-83.69859832530506,236.65345764160156,-0.70192926217368,-0.7119707844610326,0.01976027103545721,0.0015635430471967833,0.00023000000000000003,0.0318,0.005080000000000001,-0.337,-0.5437000000000001,-9.1845,6.80789723383461,15.228857638253993,19.139999389648438,19.100000381469727,19.15999984741211,19.10999870300293,15.541855975188904,15.509376411756936,15.558096531297227,15.517495141026421,15.531706014817372,0.019886480244101924,-2.6000001430511475,0.0,0.0,0.0,0.0,0.0,0.0,,,,,
frame_00096.png,1771859421084051528,1771859421.0840514,42.30038553808547,-83.69859845903628,236.6524200439453,-0.70204280950075,-0.7118631380377624,0.01954526260250227,0.002179229479148116,0.017880000000000004,0.027590000000000003,0.006600000000000001,0.14300000000000002,-1.0655000000000001,-9.3766,6.8059784540451735,15.224565442991812,19.100000381469727,19.09000015258789,19.020000457763672,18.969999313354492,15.509376411756936,15.501256133702775,15.444415736108322,15.403814345837517,15.464715656851387,0.01577386328423065,-2.6000001430511475,0.0,0.0,0.0,0.0,0.0,0.0,,,,,
frame_00097.png,1771859421133774229,1771859421.1337743,42.30038798159915,-83.69859854662201,236.65267944335938,-0.7021591246828323,-0.7117561808108682,0.019234653014605172,0.0023939142785515083,0.0023000000000000004,0.032720000000000006,0.0017200000000000004,0.048100000000000004,-0.8520000000000001,-10.195400000000001,6.807672675269423,15.228355314217184,19.029998779296875,19.059999465942383,19.209999084472656,18.989999771118164,15.45253446537781,15.476895299540292,15.598696372783357,15.42005490194584,15.487045259911824,0.016987385725963897,-2.6000001430511475,0.0,0.0,0.0,0.0,0.0,0.0,,,,,
frame_00098.png,1771859421184946560,1771859421.1849468,42.30039164789279,-83.69859868303811,236.6541748046875,-0.7022876995144344,-0.7116324385751891,0.019110580943258557,0.0024586936092607973,0.011810000000000003,0.007790000000000001,0.005130000000000001,-0.0526,-0.311,-11.844000000000001,6.799969184108988,15.211123066700761,19.03999900817871,19.029998779296875,19.079999923706055,18.959999084472656,15.46065474343197,15.45253446537781,15.493135855648614,15.395694067783356,15.450504783060438,0.015737280890437123,-2.6000001430511475,0.0,0.0,0.0,0.0,0.0,0.0,,,,,
frame_00099.png,1771859421234966568,1771859421.2349665,42.3003953134413,-83.69859882714691,236.6587677001953,-0.7023844732621027,-0.7115378574076293,0.019112786198040466,0.002151882856183272,-0.010560000000000002,-0.01716,-0.0013700000000000001,0.11030000000000001,-0.6926,-10.5432,6.795773267685721,15.201737053416899,19.010000228881836,18.94999885559082,19.059999465942383,18.959999084472656,15.436295458054161,15.387573789729194,15.476895299540292,15.395694067783356,15.424114653776751,0.014628433551932043,-2.6000001430511475,0.0,0.0,0.0,0.0,0.0,0.0,,,,,
frame_00100.png,1771859421285303378,1771859421.2853034,42.30039775438274,-83.69859892683343,236.6624755859375,-0.7025133267428931,-0.7114199938818336,0.018815524072831106,0.0016106233791327634,-0.03302000000000001,-0.00102,0.005390000000000001,-0.5051,-0.0936,-9.1446,6.7795598222891345,15.165468548871457,19.010000228881836,18.989999771118164,19.029998779296875,19.020000457763672,15.436295458054161,15.42005490194584,15.45253446537781,15.444415736108322,15.438325140371532,0.017991965801833362,-2.6000001430511475,0.0,0.0,0.0,0.0,0.0,0.0,,,,,
frame_00101.png,1771859421335505288,1771859421.3355055,42.300401408687335,-83.69859907147253,236.66781616210938,-0.7026545709361097,-0.7112936515913393,0.018340286935737762,0.0012365369241631831,-0.021590000000000005,0.015310000000000002,0.011840000000000002,-0.6045,0.19690000000000002,-9.182500000000001,6.764654955308188,15.1321272557271,19.0,18.899999618530273,19.020000457763672,19.059999465942383,15.428175180000002,15.346973948243065,15.444415736108322,15.476895299540292,15.424115040972918,0.019295884862143755,-2.5,0.0,0.0,0.0,0.0,0.0,0.0,,,,,
frame_00102.png,1771859421386570936,1771859421.386571,42.30040384179612,-83.69859917175414,236.6707763671875,-0.7027864827120137,-0.7111750010407234,0.01788290952157763,0.0012162068271145217,-0.017140000000000002,0.015670000000000003,0.009370000000000002,-0.37420000000000003,-0.2232,-9.7132,6.756472124489578,15.113822754155718,18.989999771118164,18.969999313354492,19.020000457763672,18.979999542236328,15.42005490194584,15.403814345837517,15.444415736108322,15.411934623891678,15.42005490194584,0.020261726815998228,-2.4000000953674316,0.0,0.0,0.0,0.0,0.0,0.0,,,,,
frame_00103.png,1771859421436903578,1771859421.4369037,42.30040748519966,-83.69859931768327,236.67417907714844,-0.7029449853596679,-0.7110301751575311,0.017405150281158556,0.0012240575302778845,-0.016010000000000003,0.017780000000000004,0.007300000000000002,-0.6077,-0.3557,-9.247200000000001,6.746630965353247,15.091808671637294,18.969999313354492,18.920000076293945,18.959999084472656,18.94999885559082,15.403814345837517,15.363214504351387,15.395694067783356,15.387573789729194,15.387574176925364,0.01959775078807589,-2.200000047683716,0.0,0.0,0.0,0.0,0.0,0.0,,,,,
frame_00104.png,1771859421487706070,1771859421.4877062,42.30040990981279,-83.69859940972341,236.67562866210938,-0.7030613719948958,-0.7109285735536643,0.016839838150519676,0.0013001402506028464,-0.011970000000000001,0.016630000000000002,0.0014600000000000004,-0.5174,-0.7215,-9.5562,6.740838595129494,15.078851486988972,18.969999313354492,18.920000076293945,18.94999885559082,18.889999389648438,15.403814345837517,15.363214504351387,15.387573789729194,15.338853670188904,15.37336407752675,0.019531500180362066,-2.1000001430511475,0.0,0.0,0.0,0.0,0.0,0.0,,,,,
frame_00105.png,1771859421538821125,1771859421.5388212,42.300413544097786,-83.69859954468616,236.67726135253906,-0.7031278402545627,-0.7108788290734268,0.01615376238414297,0.0012596011211736273,-0.022410000000000003,0.011340000000000001,0.0029500000000000004,-0.7482000000000001,-0.527,-9.870800000000001,6.732786347956025,15.060839093196751,18.94999885559082,18.93000030517578,18.90999984741211,18.90999984741211,15.387573789729194,15.37133478240555,15.355094226297227,15.355094226297227,15.367274256182299,0.020346486745480834,-2.1000001430511475,0.0,0.0,0.0,0.0,0.0,0.0,,,,,
frame_00106.png,1771859421590476361,1771859421.5904763,42.30041596633012,-83.69859963300661,236.67843627929688,-0.7031894724463332,-0.7108387348163362,0.015218313277867459,0.001123328240129402,-0.011940000000000001,0.011810000000000003,0.0023300000000000005,-0.5644,0.3116,-10.1707,6.7217968569275675,15.036256261135554,18.8799991607666,18.869998931884766,18.869998931884766,18.889999389648438,15.330733392134745,15.322613114080582,15.322613114080582,15.338853670188904,15.328703322621203,0.01944945978617976,-2.1000001430511475,0.0,0.0,0.0,0.0,0.0,0.0,,,,,
frame_00107.png,1771859421638604556,1771859421.6386046,42.30041959443843,-83.6985997525787,236.6811065673828,-0.703184524678569,-0.7108447780909617,0.015135040992589475,0.001468416677610041,0.020160000000000004,0.009850000000000003,0.0011800000000000003,-0.3427,0.3074,-10.315900000000001,6.718554941908157,15.029004291752033,18.90999984741211,18.850000381469727,18.85999870300293,18.799999237060547,15.355094226297227,15.306374106756934,15.314492836026421,15.26577271648613,15.310433471391676,0.018725736860298332,-2.200000047683716,0.0,0.0,0.0,0.0,0.0,0.0,,,,,
frame_00108.png,1771859421689233193,1771859421.689233,42.30042201133391,-83.69859983070853,236.68345642089844,-0.7032426360553641,-0.7107822779342127,0.01529732417999201,0.002083286222933443,0.004090000000000001,0.013890000000000003,0.00412,-0.36250000000000004,-0.5059,-10.3492,6.705689692535739,15.000225500820898,18.850000381469727,18.85999870300293,18.850000381469727,18.84000015258789,15.306374106756934,15.314492836026421,15.306374106756934,15.298253828702775,15.306373719560765,0.020409574424272037,-2.200000047683716,0.0,0.0,0.0,0.0,0.0,0.0,,,,,
frame_00109.png,1771859421739012210,1771859421.739012,42.30042563097977,-83.6985999521799,236.68844604492188,-0.7033607861118965,-0.71067250426947,0.014986685020772075,0.001896182349651159,-0.03867,-0.004600000000000001,0.010670000000000002,-0.2157,-0.5627,-10.1377,6.702377997936847,14.992817438704853,18.90999984741211,18.75,18.84000015258789,18.770000457763672,15.355094226297227,15.225172875,15.298253828702775,15.241413431108322,15.27998359027708,0.0191535815563852,-2.200000047683716,0.0,0.0,0.0,0.0,0.0,0.0,,,,,
frame_00110.png,1771859421790216543,1771859421.7902164,42.300428043800544,-83.69860003232324,236.693115234375,-0.703516497437315,-0.7105247107271986,0.01475246582520481,0.0012401740357673395,-0.013690000000000003,-0.020070000000000005,0.010320000000000001,-0.18960000000000002,0.21810000000000002,-10.197600000000001,6.701980933060129,14.991929228399528,18.739999771118164,18.729999542236328,18.779998779296875,18.729999542236328,15.21705259694584,15.20893231889168,15.249532160377807,15.20893231889168,15.221112348776753,0.015287099937950549,-2.5,0.0,0.0,0.0,0.0,0.0,0.0,,,,,
frame_00111.png,1771859421839943724,1771859421.8399436,42.300431666846244,-83.69860015120278,236.7008514404297,-0.7035988662891635,-0.7104315759537633,0.015340207389319,0.0005378491505061949,0.00286,-0.036520000000000004,0.0043300000000000005,-0.35960000000000003,-0.2159,-9.681700000000001,6.704886437731229,14.998428668018496,18.68000030517578,18.65999984741211,18.799999237060547,18.709999084472656,15.16833247740555,15.152091921297227,15.26577271648613,15.192691762783356,15.194722219493066,0.013087607763413991,-2.700000047683716,0.0,0.0,0.0,0.0,0.0,0.0,,,,,
frame_00112.png,1771859421891269294,1771859421.8912694,42.30043408086503,-83.69860023299323,236.70542907714844,-0.7036801090513364,-0.7103398903422073,0.015855671066309418,-0.00037684102390723767,-0.010400000000000001,-0.03602,0.0018600000000000003,-0.5375,-0.2891,-9.1388,6.695745139649017,14.977980132686474,18.68000030517578,18.619998931884766,18.719999313354492,18.649999618530273,15.16833247740555,15.119610809080582,15.200812040837517,15.143971643243065,15.158181742641679,0.012031102215308093,-2.799999952316284,0.0,0.0,0.0,0.0,0.0,0.0,,,,,
frame_00113.png,1771859421950044502,1771859421.9500444,42.30043769323638,-83.69860035626773,236.71092224121094,-0.7037767875812985,-0.7102463667633827,0.015706176382758126,-0.0012836606234532934,-0.026590000000000003,-0.01327,0.007660000000000001,-0.34290000000000004,-0.4002,-9.7489,6.6743874369192255,14.930204233142094,18.68000030517578,18.690000534057617,18.619998931884766,18.60999870300293,15.16833247740555,15.17645275545971,15.119610809080582,15.111490531026423,15.143971643243066,0.014317782045234938,-2.700000047683716,0.0,0.0,0.0,0.0,0.0,0.0,,,,,
frame_00114.png,1771859422001252176,1771859422.0012522,42.300441293744576,-83.6986004824243,236.7149200439453,-0.7039096070094389,-0.7101234251845117,0.015276861479010834,-0.001613588356910131,-0.025000000000000005,0.00464,0.012920000000000001,-0.3622,-0.16060000000000002,-9.699300000000001,6.656221962531808,14.889569156865905,18.690000534057617,18.65999984741211,18.690000534057617,18.639999389648438,15.17645275545971,15.152091921297227,15.17645275545971,15.135851365188906,15.160212199351388,0.01817668729257246,-2.700000047683716,0.0,0.0,0.0,0.0,0.0,0.0,,,,,
frame_00115.png,1771859422042278562,1771859422.0422788,42.30044368933556,-83.69860056572914,236.71731567382812,-0.7040504565524138,-0.7099909620798075,0.014936663989004367,-0.0016384328507089848,-0.004690000000000001,0.01561,0.012690000000000002,-0.36200000000000004,0.2159,-9.869200000000001,6.647915351574782,14.870987766551695,18.69999885559082,18.639999389648438,18.68000030517578,18.719999313354492,15.184571484729195,15.135851365188906,15.16833247740555,15.200812040837517,15.172391842040293,0.0202679257235707,-2.700000047683716,0.0,0.0,0.0,0.0,0.0,0.0,,,,,
frame_00116.png,1771859422093361629,1771859422.0933616,42.300446083734556,-83.69860064022683,236.7203369140625,-0.7041987510561611,-0.7098462113131215,0.014822356409996806,-0.0016652464698687184,-0.0018600000000000003,-0.0006100000000000001,0.007220000000000001,-0.30710000000000004,0.3695,-10.2728,6.64420084481076,14.862678637790982,18.69999885559082,18.600000381469727,18.60999870300293,18.559999465942383,15.184571484729195,15.103371801756936,15.111490531026423,15.070890689540292,15.117581126763213,0.01715050800628203,-2.700000047683716,0.0,0.0,0.0,0.0,0.0,0.0,,,,,
frame_00117.png,1771859422143069406,1771859422.1430695,42.300449674840884,-83.6986007489006,236.72613525390625,-0.7042753850751484,-0.7097672440357331,0.014925968327307549,-0.0019638586159766184,-0.006900000000000001,-0.012150000000000001,0.004110000000000001,-0.5414,-0.1158,-10.0449,6.640476844588905,14.854348272734706,18.56999969482422,18.549999237060547,18.690000534057617,18.520000457763672,15.079010967594453,15.06277041148613,15.17645275545971,15.038411126108322,15.089161315162153,0.01580769739043003,-2.6000001430511475,0.0,0.0,0.0,0.0,0.0,0.0,,,,,
frame_00118.png,1771859422194236948,1771859422.194237,42.30045326195552,-83.69860086084937,236.7328338623047,-0.7043597178429934,-0.7096835998547671,0.01481461443444057,-0.0026651785074116455,-0.013760000000000003,-0.017530000000000004,0.00321,-0.9313,0.1913,-9.4986,6.629270257547235,14.829279809917713,18.56999969482422,18.53999900817871,18.649999618530273,18.739999771118164,15.079010967594453,15.05465013343197,15.143971643243065,15.21705259694584,15.123671335303833,0.019852044681848452,-2.6000001430511475,0.0,0.0,0.0,0.0,0.0,0.0,,,,,
frame_00119.png,1771859422244175097,1771859422.2441752,42.30045564633123,-83.69860093585613,236.73577880859375,-0.7044123144634652,-0.709640520471742,0.014288332795458127,-0.003076764980511509,-0.020010000000000003,0.004430000000000001,-0.00464,-0.6002000000000001,-0.2886,-8.4268,6.614517623627782,14.796279052997932,18.559999465942383,18.619998931884766,18.60999870300293,18.649999618530273,15.070890689540292,15.119610809080582,15.111490531026423,15.143971643243065,15.11149091822259,0.02130345501700926,-2.6000001430511475,0.0,0.0,0.0,0.0,0.0,0.0,,,,,
frame_00120.png,1771859422295241345,1771859422.2952414,42.300459216875765,-83.69860104638937,236.73748779296875,-0.7044953786210859,-0.7095767845521154,0.013390131077923962,-0.0027843699340066013,-0.024620000000000003,0.03634000000000001,0.007750000000000001,-0.5212,-0.22490000000000002,-9.1515,6.599075798304432,14.761736616259117,18.60999870300293,18.639999389648438,18.619998931884766,18.60999870300293,15.111490531026423,15.135851365188906,15.119610809080582,15.111490531026423,15.119610809080584,0.024243366625800004,-2.6000001430511475,0.0,0.0,0.0,0.0,0.0,0.0,,,,,
frame_00121.png,1771859422345135722,1771859422.3451357,42.3004615953776,-83.69860112020477,236.73721313476562,-0.7045637002435197,-0.7095288865927493,0.012408394031099789,-0.0021870407362246935,-0.010750000000000001,0.04369000000000001,0.006070000000000001,-0.1705,-0.131,-9.6029,6.596896931691509,14.756862622378005,18.639999389648438,18.579999923706055,18.559999465942383,18.56999969482422,15.135851365188906,15.087131245648612,15.070890689540292,15.079010967594453,15.093221066993067,0.022793357451535257,-2.6000001430511475,0.0,0.0,0.0,0.0,0.0,0.0,,,,,
frame_00122.png,1771859422396496280,1771859422.3964963,42.300465165200144,-83.69860122228955,236.73695373535156,-0.7046689473039696,-0.7094344510940503,0.01189962893655265,-0.0016831926721548312,0.00205,0.015490000000000002,0.008520000000000002,-0.0405,0.27290000000000003,-10.1956,6.604256782799296,14.773326167715059,18.520000457763672,18.510000228881836,18.549999237060547,18.510000228881836,15.038411126108322,15.030290848054163,15.06277041148613,15.030290848054163,15.040440808425695,0.018080873438939965,-2.5,0.0,0.0,0.0,0.0,0.0,0.0,,,,,
frame_00123.png,1771859422447420665,1771859422.4474206,42.3004675486519,-83.69860128150601,236.73794555664062,-0.7047770279948526,-0.7093257376368266,0.012016059722815194,-0.0013975140258768953,0.0037400000000000007,3e-05,0.0075200000000000015,-0.4186,-0.7942,-10.6714,6.60242843964684,14.769236273783603,18.510000228881836,18.56999969482422,18.510000228881836,18.420000076293945,15.030290848054163,15.079010967594453,15.030290848054163,14.957209894351388,15.024200639513541,0.017263205828897,-2.200000047683716,0.0,0.0,0.0,0.0,0.0,0.0,,,,,
frame_00124.png,1771859422509588976,1771859422.509589,42.30047111865794,-83.69860137825584,236.74095153808594,-0.7049092323624289,-0.7092008644395679,0.011556661708376964,-0.0018845632224468707,-0.03159000000000001,0.0005000000000000001,0.006410000000000002,-0.5996,0.3432,-10.016200000000001,6.591378864801323,14.744519037828672,18.489999771118164,18.579999923706055,18.53999900817871,18.43000030517578,15.01405029194584,15.087131245648612,15.05465013343197,14.965330172405547,15.03029046085799,0.019381535762281625,-2.1000001430511475,0.0,0.0,0.0,0.0,0.0,0.0,,,,,
frame_00125.png,1771859422558863151,1771859422.5588632,42.3004746826095,-83.69860147868191,236.74603271484375,-0.7049510353462777,-0.7091632757160542,0.011264336159731048,-0.002144964047977824,-0.020180000000000003,0.00192,0.005940000000000001,-0.5929,-0.30860000000000004,-10.2032,6.58504311843495,14.730346353351877,18.53999900817871,18.489999771118164,18.53999900817871,18.529998779296875,15.05465013343197,15.01405029194584,15.05465013343197,15.046529855377807,15.042470103546895,0.02118916573363499,-2.1000001430511475,0.0,0.0,0.0,0.0,0.0,0.0,,,,,
frame_00126.png,1771859422607491084,1771859422.607491,42.300477056445274,-83.69860154900344,236.74998474121094,-0.7049709579878816,-0.7091485738238793,0.010874265999272246,-0.002449280748177747,-0.01819,-0.0014200000000000003,0.00035000000000000005,-0.19590000000000002,-0.2851,-10.2567,6.584819077424418,14.72984518705378,18.459999084472656,18.440000534057617,18.459999084472656,18.420000076293945,14.989689457783356,14.97345045045971,14.989689457783356,14.957209894351388,14.977509815094452,0.016813797083104945,-2.1000001430511475,0.0,0.0,0.0,0.0,0.0,0.0,,,,,
frame_00127.png,1771859422648133103,1771859422.648133,42.300479430064186,-83.69860162103784,236.75433349609375,-0.7049988260967691,-0.7091217743132943,0.01073552094058133,-0.0027772265081038227,-0.01429,-0.0164,0.00039000000000000005,0.0325,0.0494,-10.1563,6.587258720158021,14.735302521470283,18.469999313354492,18.399999618530273,18.479999542236328,18.420000076293945,14.997809735837517,14.940969338243065,15.005930013891678,14.957209894351388,14.97547974558091,0.016299443038965387,-2.0,0.0,0.0,0.0,0.0,0.0,0.0,,,,,
frame_00128.png,1771859422699208745,1771859422.6992087,42.300482992496335,-83.69860172904659,236.7621612548828,-0.7050955918394062,-0.7090187474457804,0.010968571209024001,-0.003508929279306151,-0.010520000000000002,-0.027250000000000003,0.00604,-0.3468,-0.1558,-9.7644,6.584381626468423,14.728866635512276,18.40999984741211,18.369998931884766,18.459999084472656,18.44999885559082,14.949089616297227,14.916608504080582,14.989689457783356,14.981569179729195,14.95923918947259,0.015640888037160405,-2.0,0.0,0.0,0.0,0.0,0.0,0.0,,,,,
frame_00129.png,1771859422749123174,1771859422.749123,42.30048536739518,-83.69860180099694,236.7675323486328,-0.7052272873373958,-0.7088804716389692,0.011150587755380907,-0.004314454352577969,-0.015020000000000002,-0.029770000000000005,0.008400000000000001,-0.3124,0.2441,-9.7649,6.580928104878266,14.72114131492639,18.31999969482422,18.299999237060547,18.43000030517578,18.389999389648438,14.876008662594453,14.859768106486131,14.965330172405547,14.932849060188905,14.90848900041876,0.012726437542068134,-2.0,0.0,0.0,0.0,0.0,0.0,0.0,,,,,
frame_00130.png,1771859422800576907,1771859422.800577,42.30048892605288,-83.6986019093398,236.7746124267578,-0.7053537421877181,-0.7087479794287982,0.011342311902126834,-0.004873602168090241,-0.005220000000000001,-0.017060000000000002,0.0066500000000000005,-0.39630000000000004,0.4193,-9.0165,6.57005582916602,14.696820686494638,18.35999870300293,18.3799991607666,18.420000076293945,18.389999389648438,14.90848822602642,14.924728782134743,14.957209894351388,14.932849060188905,14.930818990675364,0.015921695526689986,-2.0,0.0,0.0,0.0,0.0,0.0,0.0,,,,,
frame_00131.png,1771859422849900592,1771859422.8499005,42.300491294307974,-83.69860197309693,236.77784729003906,-0.7054267682611151,-0.7086721764516682,0.011580617575633688,-0.004765526256522237,0.021220000000000006,0.006260000000000001,0.0018300000000000002,-0.5442,0.6168,-8.685500000000001,6.558615809171546,14.6712300481682,18.420000076293945,18.459999084472656,18.459999084472656,18.389999389648438,14.957209894351388,14.989689457783356,14.989689457783356,14.932849060188905,14.967359467526752,0.020184362073684865,-1.8000000715255737,0.0,0.0,0.0,0.0,0.0,0.0,,,,,
frame_00132.png,1771859422901230500,1771859422.9012306,42.300494842618534,-83.69860205701072,236.78131103515625,-0.7054050483639767,-0.7086956555224925,0.011677192270483897,-0.004222412442946035,0.006530000000000001,0.01831,-0.0014800000000000002,-0.2539,0.1836,-10.2819,6.550505637039613,14.653088079719394,18.420000076293945,18.440000534057617,18.389999389648438,18.350000381469727,14.957209894351388,14.97345045045971,14.932849060188905,14.900369496756936,14.940969725439235,0.01964648299072762,-1.399999976158142,0.0,0.0,0.0,0.0,0.0,0.0,,,,,
frame_00133.png,1771859422951579649,1771859422.9515796,42.300497204783994,-83.69860210978597,236.7830352783203,-0.7053858849850162,-0.7087199604525487,0.011464644791725907,-0.003915717027934895,-0.008050000000000002,0.018380000000000004,-0.00144,-0.2555,-0.0765,-10.1644,6.545722896470885,14.642389376031582,18.3799991607666,18.399999618530273,18.35999870300293,18.369998931884766,14.924728782134743,14.940969338243065,14.90848822602642,14.916608504080582,14.922698712621202,0.019143688191249928,-0.800000011920929,0.0,0.0,0.0,0.0,0.0,0.0,,,,,
frame_00134.png,1771859423002752959,1771859423.002753,42.300500748028966,-83.69860219453754,236.78713989257812,-0.7053575408047583,-0.7087507206001104,0.0113509818491912,-0.0037829736646653195,-0.006590000000000001,0.00302,0.0009800000000000002,-0.22460000000000002,-0.7098,-10.5723,6.547482841174116,14.646326266736027,18.369998931884766,18.34000015258789,18.35999870300293,18.309999465942383,14.916608504080582,14.892249218702775,14.90848822602642,14.86788838454029,14.896308583337518,0.01706791942558577,-0.6000000238418579,0.0,0.0,0.0,0.0,0.0,0.0,,,,,
frame_00135.png,1771859423052564101,1771859423.0525641,42.30050311684519,-83.6986022551196,236.79066467285156,-0.7053840764609361,-0.7087231642249747,0.011397608858154808,-0.003856900129351544,-0.007580000000000002,-0.0059900000000000005,0.005420000000000001,-0.3115,-0.5946,-9.937800000000001,6.546761935815841,14.644713644703888,18.389999389648438,18.31999969482422,18.40999984741211,18.43000030517578,14.932849060188905,14.876008662594453,14.949089616297227,14.965330172405547,14.930819377871533,0.01953645118019171,-0.6000000238418579,0.0,0.0,0.0,0.0,0.0,0.0,,,,,
frame_00136.png,1771859423103847453,1771859423.1038475,42.30050666739283,-83.69860235100859,236.7957763671875,-0.7054494583960957,-0.7086568231390845,0.01142128355181172,-0.004015339226574666,-0.003,-0.0029400000000000003,0.004540000000000001,-0.1081,-0.2674,-9.6394,6.545065447513035,14.640918702159809,18.309999465942383,18.299999237060547,18.369998931884766,18.369998931884766,14.86788838454029,14.859768106486131,14.916608504080582,14.916608504080582,14.890218374796898,0.017027597632948633,-0.6000000238418579,0.0,0.0,0.0,0.0,0.0,0.0,,,,,
frame_00137.png,1771859423153534831,1771859423.1535347,42.300509029176645,-83.69860241750266,236.79881286621094,-0.7054972638146282,-0.7086113195126104,0.011267631811361326,-0.0040803286673496905,-0.0064800000000000005,0.005510000000000001,0.0026600000000000005,-0.28300000000000003,0.0907,-9.4574,6.536295659781945,14.621301213192623,18.31999969482422,18.34000015258789,18.399999618530273,18.350000381469727,14.876008662594453,14.892249218702775,14.940969338243065,14.900369496756936,14.902399179074308,0.01922523596108214,-0.6000000238418579,0.0,0.0,0.0,0.0,0.0,0.0,,,,,
frame_00138.png,1771859423204919166,1771859423.204919,42.30051257266766,-83.69860251029635,236.80227661132812,-0.7054925872722997,-0.7086199578720337,0.011056108354568241,-0.003965737929530736,0.009170000000000001,0.0039700000000000004,-0.0026800000000000005,-0.1492,0.2569,-9.207,6.534596619123335,14.617500561181755,18.34000015258789,18.270000457763672,18.420000076293945,18.510000228881836,14.892249218702775,14.835408821108322,14.957209894351388,15.030290848054163,14.928789695554162,0.021295647164130547,-0.6000000238418579,0.0,0.0,0.0,0.0,0.0,0.0,,,,,
frame_00139.png,1771859423253904676,1771859423.2539046,42.300514931342434,-83.69860257084156,236.80392456054688,-0.705423774475486,-0.7086933980776826,0.01082405218566113,-0.0037156184072298696,0.0015600000000000002,0.010590000000000002,-0.006920000000000001,0.1597,0.2431,-9.767800000000001,6.536246695583603,14.621191683218786,18.369998931884766,18.25,18.350000381469727,18.3799991607666,14.916608504080582,14.819168265,14.900369496756936,14.924728782134743,14.890218761993065,0.018399805200765548,-0.5,0.0,0.0,0.0,0.0,0.0,0.0,,,,,
frame_00140.png,1771859423305183394,1771859423.3051834,42.30051847569011,-83.69860265195132,236.80545043945312,-0.7053395228743605,-0.7087789985803117,0.010714772386239354,-0.003698958714432053,-0.00651,-0.009970000000000001,-0.004690000000000001,-0.1015,0.38020000000000004,-10.1098,6.5419474036563035,14.633943825134933,18.229999542236328,18.309999465942383,18.309999465942383,18.31999969482422,14.802927708891678,14.86788838454029,14.86788838454029,14.876008662594453,14.853678285141678,0.015015395892755417,-0.5,0.0,0.0,0.0,0.0,0.0,0.0,,,,,
frame_00141.png,1771859423354869036,1771859423.354869,42.30052202402782,-83.69860272740759,236.80740356445312,-0.7052177954945471,-0.7088954806461446,0.011073409880877084,-0.003526759262065271,0.01974,-0.011510000000000001,-0.0059700000000000005,-0.2497,-0.0506,-10.0905,6.540763226531956,14.631294891958394,18.270000457763672,18.28999900817871,18.309999465942383,18.270000457763672,14.835408821108322,14.85164782843197,14.86788838454029,14.835408821108322,14.847588463797226,0.014782941184358958,-0.6000000238418579,0.0,0.0,0.0,0.0,0.0,0.0,,,,,
frame_00142.png,1771859423406101738,1771859423.4061017,42.300524393148265,-83.69860277655329,236.80908203125,-0.7051649538000246,-0.7089398930414773,0.01168818054216339,-0.003162660614333326,0.026890000000000004,-0.009440000000000002,-0.00136,-0.1584,-0.27390000000000003,-10.049000000000001,6.538520569363473,14.626278202431928,18.350000381469727,18.43000030517578,18.31999969482422,18.31999969482422,14.900369496756936,14.965330172405547,14.876008662594453,14.876008662594453,14.904429248587846,0.019017212875772394,-0.6000000238418579,0.0,0.0,0.0,0.0,0.0,0.0,,,,,
frame_00143.png,1771859423455942359,1771859423.4559424,42.30052793632063,-83.698602853234,236.81298828125,-0.7052061709704132,-0.7088903934362799,0.012279660665543674,-0.002806501905195313,0.023720000000000005,-0.010330000000000002,0.0021000000000000003,-0.2111,-0.2763,-10.0873,6.535781452525631,14.620150962412687,18.399999618530273,18.270000457763672,18.28999900817871,18.270000457763672,14.940969338243065,14.835408821108322,14.85164782843197,14.835408821108322,14.865858702222921,0.0168061014172788,-0.6000000238418579,0.0,0.0,0.0,0.0,0.0,0.0,,,,,
frame_00144.png,1771859423508102502,1771859423.5081024,42.300530297102775,-83.69860290794071,236.81640625,-0.7052622122061034,-0.7088275340328037,0.0127043308414338,-0.002709060538085681,0.0038900000000000002,-0.015510000000000001,0.0036000000000000008,0.0078000000000000005,-0.45930000000000004,-10.0934,6.536929189807701,14.62271838184844,18.190000534057617,18.239999771118164,18.350000381469727,18.309999465942383,14.77044814545971,14.811047986945841,14.900369496756936,14.86788838454029,14.837438503425695,0.014684008538644388,-0.699999988079071,0.0,0.0,0.0,0.0,0.0,0.0,,,,,
frame_00145.png,1771859423560256763,1771859423.5602567,42.30053384123984,-83.69860299087827,236.82159423828125,-0.7052757477945872,-0.7088069737909554,0.013019183649388987,-0.0030486612139671316,-0.0012000000000000001,-0.03187,-0.00239,0.0333,-0.6522,-10.0777,6.540878750415587,14.631553311954644,18.270000457763672,18.209999084472656,18.28999900817871,18.309999465942383,14.835408821108322,14.786687152783356,14.85164782843197,14.86788838454029,14.835408046715983,0.013932542254059994,-0.9000000357627869,0.0,0.0,0.0,0.0,0.0,0.0,,,,,
frame_00146.png,1771859423610266034,1771859423.6102662,42.30053620033275,-83.69860304574301,236.82508850097656,-0.7052354670920531,-0.7088395322187456,0.013333008997203522,-0.003418243766032389,0.0028200000000000005,-0.024950000000000003,-0.00288,-0.3113,-0.3683,-9.828800000000001,6.537880361810642,14.6248460965487,18.209999084472656,18.270000457763672,18.309999465942383,18.31999969482422,14.786687152783356,14.835408821108322,14.86788838454029,14.876008662594453,14.841498255256605,0.01481397870976795,-1.2000000476837158,0.0,0.0,0.0,0.0,0.0,0.0,,,,,
frame_00147.png,1771859423657811905,1771859423.6578119,42.30053974291785,-83.69860312931306,236.82962036132812,-0.7051825126700609,-0.7088860571739257,0.013629046175263454,-0.003525743765147137,0.01322,-0.015210000000000003,-0.004090000000000001,-0.0883,-0.2591,-9.1829,6.535461302685689,14.619434806429725,18.309999465942383,18.229999542236328,18.299999237060547,18.34000015258789,14.86788838454029,14.802927708891678,14.859768106486131,14.892249218702775,14.855708354655217,0.016161606201190323,-1.3000000715255737,0.0,0.0,0.0,0.0,0.0,0.0,,,,,
frame_00148.png,1771859423708924083,1771859423.708924,42.30054210572813,-83.698603185037,236.83168029785156,-0.7051519894032989,-0.7089119715359097,0.013873673622079113,-0.0034654918650980993,0.014350000000000002,0.004300000000000001,-0.0023600000000000006,-0.1449,-0.4848,-9.1793,6.525016588390129,14.596070607233417,18.299999237060547,18.34000015258789,18.34000015258789,18.350000381469727,14.859768106486131,14.892249218702775,14.892249218702775,14.900369496756936,14.886159010162155,0.01987441762476665,-1.2000000476837158,0.0,0.0,0.0,0.0,0.0,0.0,,,,,
frame_00149.png,1771859423758714695,1771859423.7587147,42.30054563885464,-83.69860327747354,236.8332977294922,-0.7051788818936374,-0.7088919975728778,0.013577823434201428,-0.003243920338734184,-0.0014600000000000004,0.02211,0.0014100000000000002,0.1648,-0.3995,-9.039,6.518888299996719,14.582361993794661,18.350000381469727,18.25,18.3799991607666,18.309999465942383,14.900369496756936,14.819168265,14.924728782134743,14.86788838454029,14.878038732107992,0.02027632686934752,-1.2000000476837158,0.0,0.0,0.0,0.0,0.0,0.0,,,,,
frame_00150.png,1771859423809894008,1771859423.8098938,42.300547991222466,-83.69860334080924,236.8341064453125,-0.7053243085034686,-0.7087565781567823,0.013208684149491568,-0.002695072658025567,0.0076700000000000015,0.02857,0.010310000000000001,-0.1633,0.64,-9.682500000000001,6.513781366192762,14.57093808929124,18.31999969482422,18.270000457763672,18.31999969482422,18.299999237060547,14.876008662594453,14.835408821108322,14.876008662594453,14.859768106486131,14.861798563195839,0.019961684836089198,-1.2000000476837158,0.0,0.0,0.0,0.0,0.0,0.0,,,,,
frame_00151.png,1771859423859750671,1771859423.8597507,42.300551523366806,-83.69860342655332,236.83554077148438,-0.7053838431636313,-0.7087007366544837,0.013102792619796803,-0.0022839646801032874,0.007930000000000001,0.010560000000000002,0.00026000000000000003,0.261,0.26,-10.2559,6.520918265434065,14.586902904680079,18.309999465942383,18.270000457763672,18.28999900817871,18.309999465942383,14.86788838454029,14.835408821108322,14.85164782843197,14.86788838454029,14.855708354655217,0.0184278631133477,-1.2000000476837158,0.0,0.0,0.0,0.0,0.0,0.0,,,,,
frame_00152.png,1771859423911049673,1771859423.9110498,42.30055387821791,-83.69860347970751,236.8370819091797,-0.7053548671900275,-0.7087250374238734,0.013387542319830331,-0.0020264181459729615,0.01314,-0.005550000000000001,-0.00256,-0.5767,0.3991,-10.167,6.52250083054315,14.590443007875194,18.28999900817871,18.270000457763672,18.28999900817871,18.299999237060547,14.85164782843197,14.835408821108322,14.85164782843197,14.859768106486131,14.849618146114597,0.01776334948154166,-1.2000000476837158,0.0,0.0,0.0,0.0,0.0,0.0,,,,,
frame_00153.png,1771859423960962306,1771859423.9609623,42.30055741360419,-83.69860354881727,236.84019470214844,-0.7052696774650542,-0.7088057055128051,0.013632452969891618,-0.001819369906431739,0.007020000000000001,0.004710000000000001,-0.0010500000000000002,-0.7092,-0.0781,-9.840300000000001,6.519934752894141,14.58470284613902,18.239999771118164,18.229999542236328,18.35999870300293,18.270000457763672,14.811047986945841,14.802927708891678,14.90848822602642,14.835408821108322,14.839468185743065,0.017467982878477964,-1.2000000476837158,0.0,0.0,0.0,0.0,0.0,0.0,,,,,
frame_00154.png,1771859424012323220,1771859424.0123234,42.30055977192914,-83.69860359458656,236.84230041503906,-0.7051755240493223,-0.708897133094969,0.013773082417977593,-0.0016239372540338434,0.00708,-0.004510000000000001,-0.00395,-0.5399,-0.461,-9.642800000000001,6.521135972734671,14.587389902849095,18.350000381469727,18.279998779296875,18.28999900817871,18.28999900817871,14.900369496756936,14.843527550377807,14.85164782843197,14.85164782843197,14.861798175999672,0.018811334651237487,-1.100000023841858,0.0,0.0,0.0,0.0,0.0,0.0,,,,,
frame_00155.png,1771859424061900138,1771859424.0619001,42.30056330154158,-83.69860366757149,236.845703125,-0.705155404035876,-0.7089154184328683,0.013902807349490624,-0.0012237707933558447,0.012810000000000002,0.00096,0.0032000000000000006,-0.6148,-0.2657,-10.026,6.5213831821228885,14.587942895417974,18.279998779296875,18.28999900817871,18.329999923706055,18.309999465942383,14.843527550377807,14.85164782843197,14.884128940648614,14.86788838454029,14.86179817599967,0.01877271405193894,-1.0,0.0,0.0,0.0,0.0,0.0,0.0,,,,,
frame_00156.png,1771859424112639374,1771859424.1126394,42.3005656556977,-83.69860372097479,236.84768676757812,-0.7052197817911775,-0.7088466035513132,0.014173352706635948,-0.0008173599111140603,0.017280000000000004,-0.0009800000000000002,0.004240000000000001,-0.2457,-0.5487000000000001,-10.0838,6.525152453446675,14.596374529213007,18.239999771118164,18.260000228881836,18.309999465942383,18.270000457763672,14.811047986945841,14.827288543054163,14.86788838454029,14.835408821108322,14.835408433912155,0.01637625180285344,-0.9000000357627869,0.0,0.0,0.0,0.0,0.0,0.0,,,,,
frame_00157.png,1771859424162751024,1771859424.162751,42.30056919012241,-83.69860380808444,236.85125732421875,-0.7052958841564322,-0.7087656318710758,0.014428063498040862,-0.0009087651444864955,-0.0004700000000000001,-0.015670000000000003,0.00032,0.07060000000000001,-0.9583,-10.0698,6.534579136180494,14.617461452887596,18.239999771118164,18.229999542236328,18.299999237060547,18.219999313354492,14.811047986945841,14.802927708891678,14.859768106486131,14.794807430837517,14.81713780829029,0.013660125326566139,-0.800000011920929,0.0,0.0,0.0,0.0,0.0,0.0,,,,,
frame_00158.png,1771859424213786558,1771859424.2137866,42.30057154622112,-83.69860386896119,236.85385131835938,-0.7053485892459951,-0.7087109459419481,0.01449686065981853,-0.0014155499862347626,-0.00429,-0.015220000000000003,-0.0031300000000000004,0.16690000000000002,-0.5868,-9.759500000000001,6.535028388808215,14.618466404060648,18.279998779296875,18.010000228881836,18.239999771118164,18.25,14.843527550377807,14.624286238054161,14.811047986945841,14.819168265,14.774507510094452,0.010674245965394817,-0.6000000238418579,0.0,0.0,0.0,0.0,0.0,0.0,,,,,
frame_00159.png,1771859424263727956,1771859424.263728,42.300575081392374,-83.69860395420056,236.85780334472656,-0.7053133950851277,-0.7087392661630796,0.014780033339894732,-0.0017938580160438639,0.005030000000000001,-0.016300000000000002,-0.0029200000000000007,-0.2073,-0.1233,-9.7058,6.530713331524348,14.608813879820076,18.270000457763672,18.209999084472656,18.25,18.270000457763672,14.835408821108322,14.786687152783356,14.819168265,14.835408821108322,14.819168265,0.014399141977604198,-0.6000000238418579,0.0,0.0,0.0,0.0,0.0,0.0,,,,,
frame_00160.png,1771859424314982716,1771859424.3149827,42.30057861736905,-83.69860403834271,236.86190795898438,-0.7052209772406018,-0.7088257618116709,0.015008561100712567,-0.002038564593283115,-0.00102,-0.0076500000000000005,-0.00423,-0.101,-0.32580000000000003,-9.5067,6.527774549735937,14.602240001286308,18.190000534057617,18.270000457763672,18.25,18.270000457763672,14.77044814545971,14.835408821108322,14.819168265,14.835408821108322,14.81510851316909,0.01457779846544299,-0.4000000059604645,0.0,0.0,0.0,0.0,0.0,0.0,,,,,
frame_00161.png,1771859424364626901,1771859424.364627,42.30058097767952,-83.69860409836616,236.8647003173828,-0.7051462027566812,-0.7088983461651379,0.01505966036982211,-0.0022746805734481703,0.0010700000000000002,-0.005510000000000001,-0.00478,-0.2548,0.060500000000000005,-9.9992,6.52279170909039,14.591093685732657,18.28999900817871,18.28999900817871,18.229999542236328,18.229999542236328,14.85164782843197,14.85164782843197,14.802927708891678,14.802927708891678,14.827287768661824,0.016187551667913712,-0.10000000149011612,0.0,0.0,0.0,0.0,0.0,0.0,,,,,
frame_00162.png,1771859424415187686,1771859424.4151876,42.30058451176511,-83.69860418527102,236.86900329589844,-0.705116400325162,-0.708923203685916,0.01528115414371109,-0.0022890164306033755,0.00888,-0.006060000000000001,-0.00203,-0.4877,0.0359,-9.781,6.519977023182929,14.584797402238824,18.28999900817871,18.270000457763672,18.270000457763672,18.28999900817871,14.85164782843197,14.835408821108322,14.835408821108322,14.85164782843197,14.843528324770146,0.017739768019787928,0.4000000059604645,0.0,0.0,0.0,0.0,0.0,0.0,,,,,
frame_00163.png,1771859424465346357,1771859424.4653463,42.300586863934896,-83.69860424117057,236.87205505371094,-0.705147619799091,-0.7088841665644785,0.015696170903612208,-0.0019242933315102011,0.01819,0.006540000000000001,0.0037800000000000004,-0.5582,-0.3168,-10.0326,6.513356070210721,14.56998672769717,18.31999969482422,18.18000030517578,18.270000457763672,18.229999542236328,14.876008662594453,14.762327867405547,14.835408821108322,14.802927708891678,14.819168265,0.01710238601859137,0.800000011920929,0.0,0.0,0.0,0.0,0.0,0.0,,,,,
frame_00164.png,1771859424516510454,1771859424.5165105,42.300590393014794,-83.69860432224554,236.87632751464844,-0.7051683311331681,-0.7088599208794684,0.01589866451005509,-0.001571561138766881,0.0064600000000000005,0.014070000000000003,0.00177,-0.47190000000000004,-0.5094000000000001,-9.6095,6.510122529751185,14.562753491701617,18.229999542236328,18.270000457763672,18.299999237060547,18.28999900817871,14.802927708891678,14.835408821108322,14.859768106486131,14.85164782843197,14.837438116229526,0.01886213515077587,1.100000023841858,0.0,0.0,0.0,0.0,0.0,0.0,,,,,
frame_00165.png,1771859424566467490,1771859424.5664675,42.30059274388083,-83.69860437477668,236.87905883789062,-0.7050998866810063,-0.7089284506177241,0.01590940393660842,-0.0012217092810140166,0.007370000000000001,0.013120000000000001,-0.005370000000000001,-0.4138,-0.47140000000000004,-9.5821,6.510200485964013,14.56292787507234,18.270000457763672,18.25,18.309999465942383,18.350000381469727,14.835408821108322,14.819168265,14.86788838454029,14.900369496756936,14.855708741851387,0.02010453318801408,1.2000000476837158,0.0,0.0,0.0,0.0,0.0,0.0,,,,,
frame_00166.png,1771859424626252169,1771859424.6262522,42.30059627321594,-83.69860445771045,236.88214111328125,-0.7049486497141914,-0.7090819511515527,0.015793217980883067,-0.0008729736842509069,0.0008100000000000001,0.015550000000000001,-0.011800000000000001,-0.0347,-0.8138000000000001,-9.272400000000001,6.51491435049702,14.573472507200805,18.229999542236328,18.28999900817871,18.399999618530273,18.299999237060547,14.802927708891678,14.85164782843197,14.940969338243065,14.859768106486131,14.863828245513211,0.019923579515379118,1.2000000476837158,0.0,0.0,0.0,0.0,0.0,0.0,,,,,
frame_00167.png,1771859424668380839,1771859424.668381,42.30059862956199,-83.69860451758333,236.8837432861328,-0.7048403159641111,-0.7091906288298646,0.01575647635766731,-0.0007172337857060596,0.006120000000000001,0.0006100000000000001,-0.008470000000000002,-0.01,-0.6729,-9.6636,6.519218547728982,14.583100738156869,18.19999885559082,18.260000228881836,18.229999542236328,18.309999465942383,14.778566874729195,14.827288543054163,14.802927708891678,14.86788838454029,14.819167877803832,0.016187719188504954,1.2000000476837158,0.0,0.0,0.0,0.0,0.0,0.0,,,,,
frame_00168.png,1771859424720398754,1771859424.720399,42.30060215970968,-83.69860461317907,236.88551330566406,-0.7047169493528664,-0.7093158588510265,0.015639549133794135,-0.0006619517439313689,-0.010720000000000002,0.00048,-0.0024400000000000003,-0.5295,-0.8550000000000001,-9.9167,6.517869222073665,14.580082377625466,18.279998779296875,18.28999900817871,18.270000457763672,18.279998779296875,14.843527550377807,14.85164782843197,14.835408821108322,14.843527550377807,14.843527937573977,0.018068866356529916,1.2000000476837158,0.0,0.0,0.0,0.0,0.0,0.0,,,,,
frame_00169.png,1771859424768325134,1771859424.768325,42.300604510984186,-83.6986046819299,236.88629150390625,-0.7046857636531938,-0.7093530198739136,0.01535905866757022,-0.000605819379446605,-0.006960000000000001,0.011080000000000001,-0.0034400000000000008,-0.0397,-1.2186000000000001,-9.8133,6.5167222322762965,14.57751663026814,18.25,18.34000015258789,18.279998779296875,18.31999969482422,14.819168265,14.892249218702775,14.843527550377807,14.876008662594453,14.857738424168758,0.019222875953972735,1.2000000476837158,0.0,0.0,0.0,0.0,0.0,0.0,,,,,
frame_00170.png,1771859424819135983,1771859424.819136,42.30060804184717,-83.69860479857383,236.8879852294922,-0.7047232129390365,-0.7093281984305033,0.01477086731455779,-0.0007221737975297502,-0.01606,0.00795,0.00502,0.1203,-0.6910000000000001,-10.3068,6.518546493694964,14.581597393606014,18.219999313354492,18.239999771118164,18.229999542236328,18.219999313354492,14.794807430837517,14.811047986945841,14.802927708891678,14.794807430837517,14.800897639378139,0.015039521381127106,1.100000023841858,0.0,0.0,0.0,0.0,0.0,0.0,,,,,
frame_00171.png,1771859424869451002,1771859424.869451,42.300610394521684,-83.6986048723765,236.88966369628906,-0.7047073049207231,-0.7093484578584354,0.014540587177358483,-0.0009752178055695457,0.0026500000000000004,-0.0048400000000000006,-0.0037,0.22240000000000001,0.2772,-10.2306,6.526217366681374,14.598756676224234,18.25,18.239999771118164,18.270000457763672,18.270000457763672,14.819168265,14.811047986945841,14.835408821108322,14.835408821108322,14.825258473540622,0.015515142990585786,1.100000023841858,0.0,0.0,0.0,0.0,0.0,0.0,,,,,
frame_00172.png,1771859424919849703,1771859424.9198496,42.30061392906187,-83.69860497678296,236.89382934570312,-0.704588848692044,-0.709462004728597,0.014721968510051777,-0.0012172873486639626,0.007180000000000001,-0.021340000000000005,-0.012180000000000002,0.2199,0.3902,-10.3652,6.528742536465518,14.604405329521176,18.170000076293945,18.270000457763672,18.25,18.15999984741211,14.754207589351388,14.835408821108322,14.819168265,14.746087311297225,14.788717996689234,0.012620347286273302,1.100000023841858,0.0,0.0,0.0,0.0,0.0,0.0,,,,,
frame_00173.png,1771859424970226741,1771859424.9702268,42.30061628860029,-83.69860504109703,236.89772033691406,-0.7044310766671938,-0.7096101381477276,0.015112733596879488,-0.0013839605089977808,0.00783,-0.010140000000000001,-0.01043,-0.028900000000000002,0.25980000000000003,-10.0981,6.522367179666578,14.590144038883356,18.31999969482422,18.229999542236328,18.170000076293945,18.270000457763672,14.876008662594453,14.802927708891678,14.754207589351388,14.835408821108322,14.81713819548646,0.015558047679183699,1.100000023841858,0.0,0.0,0.0,0.0,0.0,0.0,,,,,
frame_00174.png,1771859425020990070,1771859425.02099,42.300619820908246,-83.69860512735622,236.9039306640625,-0.7042618877263318,-0.7097697497751939,0.01549918185464508,-0.0013679042506271118,0.008270000000000001,0.00506,-0.006840000000000001,-0.39580000000000004,-0.007,-9.3434,6.513364989492354,14.570006679595027,18.25,18.229999542236328,18.229999542236328,18.28999900817871,14.819168265,14.802927708891678,14.802927708891678,14.85164782843197,14.819167877803832,0.017100966642503306,1.100000023841858,0.0,0.0,0.0,0.0,0.0,0.0,,,,,
frame_00175.png,1771859425071717785,1771859425.071718,42.30062217289967,-83.69860518545484,236.90765380859375,-0.7041426923611079,-0.7098802594672977,0.015867132668132163,-0.0011489621334302253,0.02048,0.00553,-0.0024400000000000003,-0.2565,-0.342,-9.464,6.512442557724078,14.5679432550753,18.229999542236328,18.190000534057617,18.270000457763672,18.270000457763672,14.802927708891678,14.77044814545971,14.835408821108322,14.835408821108322,14.81104837414201,0.016687676140007976,1.100000023841858,0.0,0.0,0.0,0.0,0.0,0.0,,,,,
frame_00176.png,1771859425122300966,1771859425.1223009,42.300625701947,-83.69860527801885,236.9119415283203,-0.7040961220917198,-0.7099174356855689,0.01629337618596096,-0.0006412936076063554,0.02263,0.005800000000000001,3e-05,-0.3917,-0.8322,-9.1125,6.511169667359387,14.565095875702909,18.190000534057617,18.270000457763672,18.299999237060547,18.299999237060547,14.77044814545971,14.835408821108322,14.859768106486131,14.859768106486131,14.831348294885073,0.018280169348306122,1.100000023841858,0.0,0.0,0.0,0.0,0.0,0.0,,,,,
frame_00177.png,1771859425172284365,1771859425.1722844,42.30062805184569,-83.69860534104872,236.91395568847656,-0.7040991933221017,-0.7099122007133208,0.016399922925998123,-0.00018912841352323515,0.0016200000000000001,0.00058,0.00321,-0.6379,-0.7399,-9.847800000000001,6.5121867982087895,14.567371136385171,18.299999237060547,18.229999542236328,18.229999542236328,18.209999084472656,14.859768106486131,14.802927708891678,14.802927708891678,14.786687152783356,14.813077669263212,0.01686690965567117,0.9000000357627869,0.0,0.0,0.0,0.0,0.0,0.0,,,,,
frame_00178.png,1771859425223069428,1771859425.2230694,42.30063157764494,-83.69860544726092,236.916015625,-0.70409669259147,-0.7099208058915171,0.016133601815260926,-6.112739843517328e-05,-0.013370000000000002,0.00217,0.0014000000000000002,-0.3261,-0.6678000000000001,-9.9853,6.515589996726508,14.574983887277396,18.149999618530273,18.270000457763672,18.28999900817871,18.260000228881836,14.737967033243065,14.835408821108322,14.85164782843197,14.827288543054163,14.813078056459378,0.016335810112957757,0.5,0.0,0.0,0.0,0.0,0.0,0.0,,,,,
frame_00179.png,1771859425282160745,1771859425.2821608,42.30063510344192,-83.69860556026046,236.91773986816406,-0.7040291704472695,-0.7099967651395367,0.01572997719092737,-0.00029743620546496713,-0.03218,-0.016010000000000003,-0.0014900000000000002,-1.0684,-0.525,-9.995800000000001,6.515618801458499,14.575048321734576,18.239999771118164,18.219999313354492,18.219999313354492,18.279998779296875,14.811047986945841,14.794807430837517,14.794807430837517,14.843527550377807,14.81104759974967,0.016192006558439234,-0.30000001192092896,0.0,0.0,0.0,0.0,0.0,0.0,,,,,
frame_00180.png,1771859425324074195,1771859425.3240743,42.30063745798512,-83.69860564770406,236.91835021972656,-0.7039822618997528,-0.7100521655885548,0.015323018318231926,-0.0003196609622985208,-0.020050000000000005,-0.01063,-0.00491,-0.25930000000000003,-1.0643,-10.131,6.519124077889647,14.582889414794469,18.239999771118164,18.309999465942383,18.1299991607666,18.270000457763672,14.811047986945841,14.86788838454029,14.721726477134743,14.835408821108322,14.8090179174323,0.01550642648420701,-0.9000000357627869,0.0,0.0,0.0,0.0,0.0,0.0,,,,,
frame_00181.png,1771859425373844549,1771859425.3738444,42.30063980634055,-83.69860572684065,236.91934204101562,-0.7039995882991416,-0.7100468622552074,0.014761520484986246,-0.0003613712016357448,-0.007110000000000001,0.017060000000000002,0.00289,-0.329,0.0051,-10.0502,6.512498552410987,14.568068511830234,18.309999465942383,18.279998779296875,18.25,18.25,14.86788838454029,14.843527550377807,14.819168265,14.819168265,14.837438116229524,0.018490413068866673,-1.100000023841858,0.0,0.0,0.0,0.0,0.0,0.0,,,,,
frame_00182.png,1771859425424932690,1771859425.4249327,42.30064333020127,-83.69860584658095,236.92210388183594,-0.7040676795731587,-0.7099836427358333,0.014550438634148368,-0.0004629941447323361,0.0026600000000000005,0.004510000000000001,0.0024500000000000004,0.25070000000000003,0.1943,-10.1447,6.5179596647437235,14.580284692451826,18.350000381469727,18.229999542236328,18.329999923706055,18.239999771118164,14.900369496756936,14.802927708891678,14.884128940648614,14.811047986945841,14.849618533310768,0.01847246789346813,-1.100000023841858,0.0,0.0,0.0,0.0,0.0,0.0,,,,,
frame_00183.png,1771859425474982981,1771859425.474983,42.3006468607677,-83.69860596395935,236.92637634277344,-0.7041162073292955,-0.7099313391018326,0.014746258864193767,-0.0006388949815130942,0.020790000000000003,-0.008820000000000001,-0.00302,0.47290000000000004,0.067,-10.127500000000001,6.522387969279473,14.590190544000025,18.309999465942383,18.270000457763672,18.31999969482422,18.219999313354492,14.86788838454029,14.835408821108322,14.876008662594453,14.794807430837517,14.843528324770144,0.017363569036752565,-1.100000023841858,0.0,0.0,0.0,0.0,0.0,0.0,,,,,
frame_00184.png,1771859425526331832,1771859425.526332,42.30064921121538,-83.69860603545014,236.9297637939453,-0.704187262311324,-0.709853839436682,0.015064242061885103,-0.0009459633105896091,0.00834,-0.014300000000000002,-0.00029,-0.2008,0.5854,-9.55,6.521060465908206,14.587220998608702,18.25,18.19999885559082,18.219999313354492,18.25,14.819168265,14.778566874729195,14.794807430837517,14.819168265,14.802927708891678,0.014787375217222665,-1.100000023841858,0.0,0.0,0.0,0.0,0.0,0.0,,,,,
frame_00185.png,1771859425575926987,1771859425.575927,42.30065273997777,-83.69860614124477,236.9347381591797,-0.7042147071972246,-0.709823916712315,0.015178419162455853,-0.0011265087857872194,-0.008860000000000002,0.007470000000000001,0.0018200000000000002,-0.41950000000000004,0.20650000000000002,-9.630700000000001,6.51550318227282,14.574789688553363,18.28999900817871,18.239999771118164,18.219999313354492,18.28999900817871,14.85164782843197,14.811047986945841,14.794807430837517,14.85164782843197,14.827287768661824,0.017324303506538165,-1.2000000476837158,0.0,0.0,0.0,0.0,0.0,0.0,,,,,
frame_00186.png,1771859425637138898,1771859425.6371388,42.30065626693777,-83.69860624303304,236.9390411376953,-0.7041951518478049,-0.7098408821110208,0.015289610113355799,-0.0011567283503618796,-0.0018700000000000004,0.00521,0.004210000000000001,-0.7183,0.9314,-9.5078,6.510164376621997,14.562847100640811,18.28999900817871,18.229999542236328,18.25,18.229999542236328,14.85164782843197,14.802927708891678,14.819168265,14.802927708891678,14.819167877803832,0.0176010072337944,-1.399999976158142,0.0,0.0,0.0,0.0,0.0,0.0,,,,,
frame_00187.png,1771859425688252965,1771859425.688253,42.300658618893586,-83.69860631134802,236.94131469726562,-0.7041556004727536,-0.7098774366423403,0.015422635821934887,-0.0010283838096749244,-0.0022500000000000003,-0.0008500000000000001,-0.0004300000000000001,-0.1263,-0.1188,-9.677200000000001,6.5170952081306694,14.578350954875821,18.25,18.209999084472656,18.309999465942383,18.270000457763672,14.819168265,14.786687152783356,14.86788838454029,14.835408821108322,14.827288155857993,0.017075813427232144,-1.7000000476837158,0.0,0.0,0.0,0.0,0.0,0.0,,,,,
frame_00188.png,1771859425736972072,1771859425.736972,42.300662143288896,-83.69860640588509,236.94436645507812,-0.7041845307254799,-0.7098440787214183,0.015643406756795382,-0.0009024500638396534,-0.006870000000000001,-0.005790000000000001,0.014990000000000002,-1.095,0.7851,-9.7969,6.513462436310372,14.570224662280125,18.28999900817871,18.229999542236328,18.270000457763672,18.219999313354492,14.85164782843197,14.802927708891678,14.835408821108322,14.794807430837517,14.821197947317371,0.01722507997333585,-2.0,0.0,0.0,0.0,0.0,0.0,0.0,,,,,
frame_00189.png,1771859425777868174,1771859425.7778683,42.30066449307699,-83.69860647689313,236.9464111328125,-0.7041942026243726,-0.7098323356383421,0.015744445208843227,-0.0008322965252095243,-0.0063300000000000006,-0.004210000000000001,0.00898,-0.3977,-0.8495,-10.2859,6.518501125997964,14.581495908789886,18.270000457763672,18.19999885559082,18.28999900817871,18.229999542236328,14.835408821108322,14.778566874729195,14.85164782843197,14.802927708891678,14.817137808290292,0.016160337798974272,-2.4000000953674316,0.0,0.0,0.0,0.0,0.0,0.0,,,,,
frame_00190.png,1771859425828784028,1771859425.8287842,42.30066684466445,-83.69860655097679,236.9486083984375,-0.7042915280180716,-0.7097380821109089,0.01562743411086316,-0.001040032023040794,-0.00595,-0.007000000000000001,0.004540000000000001,-0.30970000000000003,-0.45790000000000003,-10.056600000000001,6.516827070354304,14.577751146758358,18.229999542236328,18.19999885559082,18.229999542236328,18.219999313354492,14.802927708891678,14.778566874729195,14.802927708891678,14.794807430837517,14.794807430837517,0.014889558882847735,-2.9000000953674316,0.0,0.0,0.0,0.0,0.0,0.0,,,,,
frame_00191.png,1771859425878911188,1771859425.8789113,42.30067037081593,-83.69860666995713,236.95184326171875,-0.7044334265861603,-0.7096003938084677,0.015465901826148251,-0.0012784739544956377,-0.01037,-0.004670000000000001,0.006270000000000001,-0.5026,-1.1476,-9.7958,6.517584124137122,14.579444630647295,18.25,18.239999771118164,18.239999771118164,18.25,14.819168265,14.811047986945841,14.811047986945841,14.819168265,14.81510812597292,0.016164092754962625,-3.5,0.0,0.0,0.0,0.0,0.0,0.0,,,,,
frame_00192.png,1771859425929987205,1771859425.9299874,42.30067272356643,-83.6986067534347,236.95379638671875,-0.7046013981338765,-0.7094366710920252,0.015316701118648645,-0.001370446822822712,-0.008890000000000002,-0.0032800000000000004,0.011830000000000002,-0.5782,-0.6594,-9.9894,6.515624711999024,14.575061543259098,18.270000457763672,18.010000228881836,18.270000457763672,18.25,14.835408821108322,14.624286238054161,14.835408821108322,14.819168265,14.778568036317703,0.013962650686214457,-4.300000190734863,0.0,0.0,0.0,0.0,0.0,0.0,,,,,
frame_00193.png,1771859425979777139,1771859425.979777,42.30067624894809,-83.69860686926768,236.95668029785156,-0.7047312546721176,-0.7093123813560241,0.015083157433805275,-0.0015174666835965688,-0.0074600000000000005,-0.0008000000000000001,0.00595,-0.1598,-0.5065000000000001,-9.9671,6.51921946069475,14.583102780406515,18.299999237060547,18.28999900817871,18.270000457763672,18.219999313354492,14.859768106486131,14.85164782843197,14.835408821108322,14.794807430837517,14.835408046715985,0.01730120606764571,-5.5,0.0,0.0,0.0,0.0,0.0,0.0,,,,,
frame_00194.png,1771859426030661496,1771859426.0306613,42.30067859931554,-83.69860694040686,236.95887756347656,-0.7048856993720914,-0.7091615692943334,0.014932543945861687,-0.001743154617633019,-0.00534,-0.00483,0.00888,-0.40080000000000005,-0.2903,-9.8644,6.517448064605715,14.57914027363911,18.229999542236328,18.229999542236328,18.239999771118164,18.19999885559082,14.802927708891678,14.802927708891678,14.811047986945841,14.778566874729195,14.798867569864598,0.015071347973980442,-7.200000286102295,0.0,0.0,0.0,0.0,0.0,0.0,,,,,
frame_00195.png,1771859426080693534,1771859426.0806935,42.300682124702966,-83.69860704827325,236.9628143310547,-0.705104775053593,-0.7089474828485159,0.014736846654400917,-0.001883642763355423,-0.0046500000000000005,0.0009000000000000002,0.014600000000000004,-0.49100000000000005,0.5121,-9.796800000000001,6.515928748247949,14.575741654105768,18.28999900817871,18.18000030517578,18.25,18.229999542236328,14.85164782843197,14.762327867405547,14.819168265,14.802927708891678,14.8090179174323,0.016004418084675762,-9.300000190734863,0.0,0.0,0.0,0.0,0.0,0.0,,,,,
frame_00196.png,1771859426132062414,1771859426.1320624,42.3006844743052,-83.69860711575772,236.9655303955078,-0.7054326316804878,-0.7086209790614794,0.014752954957812564,-0.0018602457645866162,0.0091,-0.0017500000000000003,0.021150000000000002,-0.2569,0.2872,-9.6887,6.517298189136318,14.578805011206597,18.309999465942383,18.18000030517578,18.28999900817871,18.219999313354492,14.86788838454029,14.762327867405547,14.85164782843197,14.794807430837517,14.819167877803832,0.01648714461936142,-11.5,0.0,0.0,0.0,0.0,0.0,0.0,,,,,
frame_00197.png,1771859426182036740,1771859426.1820366,42.30068800090197,-83.69860721265272,236.96974182128906,-0.7059006246846996,-0.7081523451669254,0.014875488010271044,-0.00181217018817137,0.006310000000000001,-0.0032800000000000004,0.030250000000000003,-0.3093,0.2746,-9.96,6.51953109541842,14.58379988858528,18.34000015258789,18.149999618530273,18.309999465942383,18.15999984741211,14.892249218702775,14.737967033243065,14.86788838454029,14.746087311297225,14.81104798694584,0.015582228232466699,-14.0,0.0,0.0,0.0,0.0,0.0,0.0,,,,,
frame_00198.png,1771859426232747993,1771859426.232748,42.30069035340192,-83.69860727694969,236.97242736816406,-0.7064962394128237,-0.7075573756995157,0.014893491540790872,-0.0019513324875124211,-0.013060000000000002,-0.0007800000000000001,0.03723,-0.5025000000000001,0.1752,-9.832600000000001,6.517971108809604,14.580310292140556,18.34000015258789,18.18000030517578,18.31999969482422,18.170000076293945,14.892249218702775,14.762327867405547,14.876008662594453,14.754207589351388,14.821198334513541,0.016521461995416833,-17.0,0.0,0.0,0.0,0.0,0.0,0.0,,,,,
frame_00199.png,1771859426283145144,1771859426.2831452,42.30069387779127,-83.69860736286934,236.97584533691406,0.7072071540421444,0.7068505945480237,-0.01468939761554817,0.0021212864983894903,-0.009980000000000001,0.011070000000000002,0.046900000000000004,-0.5824,0.7816000000000001,-9.661800000000001,6.515215224472502,14.57414554423152,18.350000381469727,18.079999923706055,18.389999389648438,18.149999618530273,14.900369496756936,14.681126635648614,14.932849060188905,14.737967033243065,14.81307805645938,0.016394272412246516,-20.5,0.0,0.0,0.0,0.0,0.0,0.0,,,,,
frame_00200.png,1771859426342047773,1771859426.3420477,42.30069740281354,-83.69860743887799,236.97842407226562,0.7081411973463535,0.7059167043409305,-0.01461220256501205,0.0020333935947249053,0.004070000000000001,0.0017300000000000002,0.04435,-0.0728,-0.249,-9.912700000000001,6.518689872264797,14.581918122864016,18.3799991607666,18.149999618530273,18.3799991607666,18.139999389648438,14.924728782134743,14.737967033243065,14.924728782134743,14.729846755188905,14.829317838175363,0.016966198357912337,-25.200000762939453,0.0,0.0,0.0,0.0,0.0,0.0,,,,,
frame_00201.png,1771859426383721611,1771859426.3837218,42.30069975160005,-83.6986074782928,236.9800567626953,0.7089241602364601,0.7051322332118284,-0.01453440154337372,0.001954454017182118,0.0034600000000000004,0.004810000000000001,0.05589000000000001,-0.24760000000000001,0.093,-9.9449,6.518483066270651,14.58145551026347,18.389999389648438,18.119998931884766,18.399999618530273,18.100000381469727,14.932849060188905,14.713606199080584,14.940969338243065,14.697367191756936,14.821197947317373,0.016441598500585502,-28.30000114440918,0.0,0.0,0.0,0.0,0.0,0.0,,,,,
frame_00202.png,1771859426434070846,1771859426.4340708,42.30070210120272,-83.69860751630613,236.98196411132812,0.7101028507749155,0.7039473951231323,-0.014414470414044964,0.0020565172932169792,0.0015400000000000001,0.0016200000000000001,0.06991,-0.16140000000000002,0.11670000000000001,-9.7431,6.5216529897590645,14.588546438911642,18.420000076293945,18.119998931884766,18.3799991607666,18.10999870300293,14.957209894351388,14.713606199080584,14.924728782134743,14.70548592102642,14.825257699148285,0.016225829024697686,-32.5,0.0,0.0,0.0,0.0,0.0,0.0,,,,,
frame_00203.png,1771859426493131808,1771859426.4931319,42.300705627961754,-83.69860756111052,236.98536682128906,0.7117977360362236,0.7022320611834776,-0.014447197105901378,0.0023224374037599063,-0.0022800000000000003,-0.01012,0.08834000000000002,0.008,-0.0366,-10.4411,6.527712048979259,14.602100190843665,18.440000534057617,18.03999900817871,18.43000030517578,18.10999870300293,14.97345045045971,14.64864552343197,14.965330172405547,14.70548592102642,14.823228016830914,0.015143563124290086,-37.60000228881836,0.0,0.0,0.0,0.0,0.0,0.0,,,,,
frame_00204.png,1771859426535523802,1771859426.535524,42.300709157876874,-83.69860758554067,236.9895477294922,0.7131306855656212,0.7008729786996165,-0.014665019541886606,0.0025749243231345856,0.00111,-0.014050000000000002,0.09839000000000002,-0.09770000000000001,0.42710000000000004,-9.9327,6.529668330701096,14.60647627567851,18.529998779296875,17.969999313354492,18.420000076293945,18.049999237060547,15.046529855377807,14.591805125837517,14.957209894351388,14.65676580148613,14.81307766926321,0.014144506155034493,-41.29999923706055,0.0,0.0,0.0,0.0,0.0,0.0,,,,,
frame_00205.png,1771859426585612030,1771859426.585612,42.30071151129259,-83.69860759232317,236.99264526367188,0.7149424394252112,0.6990168337420692,-0.014967613152084874,0.0029571963868019716,-0.0038200000000000005,-0.009600000000000001,0.10724000000000002,-0.27340000000000003,0.7327,-9.5982,6.527265461788588,14.601101202093364,18.489999771118164,18.010000228881836,18.459999084472656,18.029998779296875,15.01405029194584,14.624286238054161,14.989689457783356,14.640525245377807,14.817137808290292,0.014795911843002284,-46.0,0.0,0.0,0.0,0.0,0.0,0.0,,,,,
frame_00206.png,1771859426636425096,1771859426.6364253,42.30071504094735,-83.69860757076054,236.99639892578125,0.7169103463271298,0.6969929306306334,-0.015134283802532601,0.0033709692701377083,-0.0013200000000000002,-0.0066900000000000015,0.11817000000000003,-0.5616,1.1794,-9.3673,6.523331015331531,14.592300081435717,18.510000228881836,17.940000534057617,18.53999900817871,18.010000228881836,15.030290848054163,14.56744584045971,15.05465013343197,14.624286238054161,14.819168265,0.015547116102204097,-51.60000228881836,0.0,0.0,0.0,0.0,0.0,0.0,,,,,
frame_00207.png,1771859426686225689,1771859426.6862257,42.300717391932345,-83.69860753179985,236.99827575683594,0.7190542027324385,0.6947776329547115,-0.015248115764250447,0.0035481325095729098,0.004980000000000001,-0.0021900000000000005,0.12806,-0.2063,0.6115,-9.6788,6.524986366496009,14.596003002669583,18.520000457763672,17.93000030517578,18.459999084472656,17.969999313354492,15.038411126108322,14.559325562405549,14.989689457783356,14.591805125837517,14.794807818033686,0.01362049701741918,-57.79999923706055,0.0,0.0,0.0,0.0,0.0,0.0,,,,,
frame_00208.png,1771859426737987480,1771859426.7379875,42.30072091912715,-83.69860745035713,237.0009002685547,0.7214349173751164,0.6923016572959272,-0.01537210788015075,0.003711279643509111,0.00202,-0.0048600000000000015,0.14242000000000002,-0.35910000000000003,0.3845,-9.8701,6.523770363122786,14.593282876083885,18.549999237060547,17.93000030517578,18.529998779296875,17.899999618530273,15.06277041148613,14.559325562405549,15.046529855377807,14.534964728243066,14.800897639378139,0.014226734659855201,-66.0999984741211,0.0,0.0,0.0,0.0,0.0,0.0,,,,,
frame_00209.png,1771859426796140615,1771859426.7961404,42.30072444475089,-83.69860732690165,237.00381469726562,0.7246959029043263,0.6888823489878381,-0.015529788874060192,0.003972810618307824,-0.00253,-0.013680000000000001,0.16807000000000002,-0.0781,0.1953,-9.721400000000001,6.527024535383908,14.60056226418168,18.59000015258789,17.869998931884766,18.619998931884766,17.85999870300293,15.095251523702775,14.510603894080583,15.119610809080582,14.50248361602642,14.806987460722592,0.014138167613401996,-73.0999984741211,0.0,0.0,0.0,0.0,0.0,0.0,,,,,
frame_00210.png,1771859426839147449,1771859426.8391476,42.300726793562525,-83.69860721990712,237.005859375,0.7271423182290979,0.6862937560304135,-0.01574789712351223,0.00411499820992837,0.01058,-0.014550000000000002,0.18258000000000005,-0.1801,0.7053,-9.666500000000001,6.525031732911142,14.59610448461825,18.649999618530273,17.84000015258789,18.649999618530273,17.889999389648438,15.143971643243065,14.486244608702776,15.143971643243065,14.526844450188904,14.825258086344451,0.015699641090380616,-79.5999984741211,0.0,0.0,0.0,0.0,0.0,0.0,,,,,
frame_00211.png,1771859426890270078,1771859426.89027,42.30072914095548,-83.6986070925673,237.00791931152344,0.7311981875092693,0.681962225294571,-0.016100884211215416,0.00418274814603734,0.0066500000000000005,-0.00868,0.20798000000000003,-0.0339,0.8576,-9.634400000000001,6.5234030886467895,14.592461305117551,18.68000030517578,17.760000228881836,18.690000534057617,17.739999771118164,15.16833247740555,14.421283933054161,15.17645275545971,14.405043376945839,14.792778135716315,0.01372741900151643,-85.5,0.0,0.0,0.0,0.0,0.0,0.0,,,,,
frame_00212.png,1771859426939042761,1771859426.9390428,42.30073266031473,-83.6986068572405,237.01034545898438,0.7348685869333923,0.6780044389190409,-0.016094344820657018,0.0043718199173173634,-0.0018300000000000002,-0.005260000000000001,0.22141000000000002,-0.0126,1.3315000000000001,-9.5951,6.5207440193482995,14.586513126640986,18.779998779296875,17.78999900817871,18.729999542236328,17.729999542236328,15.249532160377807,14.445643218431968,15.20893231889168,14.396923098891678,14.825257699148283,0.01636748758490137,-91.0,0.0,0.0,0.0,0.0,0.0,0.0,,,,,
frame_00213.png,1771859426988948688,1771859426.9889488,42.300735004285336,-83.69860666311915,237.01132202148438,0.7379427697327967,0.6746577213340953,-0.016033069586619403,0.004513127851634046,0.0007100000000000001,0.0004700000000000001,0.23083000000000004,-0.15230000000000002,1.4117000000000002,-9.5358,6.518719503177006,14.581984405436772,18.84000015258789,17.75,18.770000457763672,17.579999923706055,15.298253828702775,14.413163655,15.241413431108322,14.275122025648614,14.806988235114927,0.015430261302039514,-96.5,0.0,0.0,0.0,0.0,0.0,0.0,,,,,
frame_00214.png,1771859427039959658,1771859427.0399597,42.300738517574636,-83.69860632474028,237.01234436035156,0.7427315611397052,0.669382514290901,-0.0159778445917671,0.004646087684199318,-0.00014000000000000004,0.010290000000000002,0.24241000000000004,-0.2215,1.0399,-9.475,6.51736169180911,14.578947062875471,18.84000015258789,17.81999969482422,18.739999771118164,17.670000076293945,15.298253828702775,14.470004052594453,15.21705259694584,14.348202979351388,14.833378364398612,0.017451966896226478,-101.4000015258789,0.0,0.0,0.0,0.0,0.0,0.0,,,,,
