image_filename,timestamp_ns,timestamp_sec,latitude,longitude,altitude,orientation_x,orientation_y,orientation_z,orientation_w,angular_velocity_x,angular_velocity_y,angular_velocity_z,linear_acceleration_x,linear_acceleration_y,linear_acceleration_z,vehicle_speed_mps,vehicle_speed_mph,wheel_speed_fl_rads,wheel_speed_fr_rads,wheel_speed_rl_rads,wheel_speed_rr_rads,wheel_speed_fl_mph,wheel_speed_fr_mph,wheel_speed_rl_mph,wheel_speed_rr_mph,avg_wheel_speed_mph,wheel_slip,steering_angle_deg,throttle_pedal,brake_pedal,brake_torque_actual,abs_active,esc_active,trac_active,marwis_road_condition,marwis_friction,marwis_surface_temp_c,marwis_ice_percent,marwis_water_film_height
frame_00000.png,1771860992457515650,1771860992.4575157,42.30024379884634,-83.69862499543318,236.58229064941406,-0.697645605348374,-0.7163472534022586,0.011467278794800372,0.002392362469058443,-0.01276,-0.0018200000000000002,0.007910000000000002,2.0412,-0.399,-9.8977,3.2678354948756683,7.309951931907178,9.039999961853027,8.979999542236328,9.039999961853027,8.989999771118164,7.340563317824307,7.291842423891678,7.340563317824307,7.299962701945839,7.318232940371532,0.0011328403444362102,-8.100000381469727,28.200000762939453,0.0,0.0,0.0,0.0,0.0,,,,,
frame_00001.png,1771860992497594155,1771860992.497594,42.300244997622194,-83.69862507154208,236.583984375,-0.6977763548555397,-0.7162238422161469,0.011263424707547234,0.0021683425728878454,-0.012470000000000002,-0.0012100000000000001,0.00863,2.1238,-0.24100000000000002,-10.0922,3.350314709544844,7.494452986369243,9.279999732971191,9.210000038146973,9.25,9.239999771118164,7.535445344770146,7.478604947175694,7.511085285,7.502965006945839,7.50702514597292,0.0016775286503955004,-8.0,28.024999618530273,0.0,0.0,0.0,0.0,0.0,,,,,
frame_00002.png,1771860992547536015,1771860992.5475361,42.30024684889444,-83.6986251857843,236.58682250976562,-0.6979606946972873,-0.7160460678035567,0.011183065667536494,0.001958694213024851,-0.0017800000000000001,-0.0027900000000000004,0.009880000000000002,1.949,-0.0155,-10.002600000000001,3.453021271216462,7.724201402434953,9.579999923706055,9.510000228881836,9.550000190734863,9.489999771118164,7.779048265648614,7.722207868054161,7.754688205878468,7.705967311945839,7.7404779128817705,0.0021072094833890147,-7.900000095367432,27.825000762939453,0.0,0.0,0.0,0.0,0.0,,,,,
frame_00003.png,1771860992598508145,1771860992.5985081,42.30024811366128,-83.69862526002564,236.5889129638672,-0.6981563251971404,-0.7158536437570815,0.011298879114322702,0.001908307546959961,0.0069900000000000006,-0.006470000000000001,0.010790000000000003,1.9225,0.1095,-9.8437,3.553160859526479,7.948207653109162,9.899999618530273,9.769999504089355,9.84999942779541,9.789999961853027,8.038890968243065,7.933329676715984,7.998290352364598,7.949570232824307,7.980020307536988,0.004002494123990545,-7.700000286102295,28.200000762939453,0.0,0.0,0.0,0.0,0.0,,,,,
frame_00004.png,1771860992639644924,1771860992.6396449,42.30024941493464,-83.69862533051679,236.59120178222656,-0.6982967253345662,-0.7157146262896524,0.011433193132434972,0.0018812753336578934,0.0028500000000000005,-0.007230000000000001,0.009420000000000001,1.7514,-0.0516,-9.868500000000001,3.6301133430173147,8.120345741529153,10.069999694824219,10.0,10.09000015258789,10.019999504089355,8.176932597594453,8.1200922,8.193173153702775,8.136331981715985,8.156632483253302,0.004468620287750955,-7.700000286102295,28.17500114440918,0.0,0.0,0.0,0.0,0.0,,,,,
frame_00005.png,1771860992690309235,1771860992.690309,42.30025141352531,-83.69862543679932,236.59449768066406,-0.6984802230262896,-0.7155334755879933,0.011557137767147684,0.0019120462186069825,0.0038000000000000004,-0.0014700000000000002,0.009600000000000001,1.6341,-0.133,-9.6667,3.726014190259537,8.33487018275917,10.300000190734863,10.260000228881836,10.369999885559082,10.329999923706055,8.363695120878468,8.331214783054161,8.42053551847292,8.388055180648614,8.375875150763541,0.004919688862004167,-7.700000286102295,28.100000381469727,0.0,0.0,0.0,0.0,0.0,,,,,
frame_00006.png,1771860992740263662,1771860992.7402637,42.300252781779726,-83.69862550693276,236.59669494628906,-0.6986572377976469,-0.7153580330096594,0.011692025650520292,0.0020603926083821197,0.01284,-0.0009400000000000002,0.009120000000000001,1.7257,-0.0028,-9.9631,3.8232201635648915,8.552314112684849,10.59999942779541,10.559999465942383,10.59999942779541,10.550000190734863,8.607297267364597,8.57481692954029,8.607297267364597,8.566697425878468,8.589027222536988,0.0042927691111912724,-7.700000286102295,28.100000381469727,0.0,0.0,0.0,0.0,0.0,,,,,
frame_00007.png,1771860992791144566,1771860992.7911444,42.30025488311158,-83.69862560604962,236.60052490234375,-0.6988302153047947,-0.7151822026029965,0.01207385232151612,0.0022292032430368557,0.015620000000000002,-0.010780000000000001,0.009780000000000002,1.7784,0.1217,-10.2566,3.9202523303406887,8.769369247832302,10.829999923706055,10.649999618530273,10.869999885559082,10.789999961853027,8.794059790648614,8.647897883243065,8.826540128472919,8.761579452824307,8.757519313797227,0.001351286928418942,-8.0,28.200000762939453,0.0,0.0,0.0,0.0,0.0,,,,,
frame_00008.png,1771860992850269336,1771860992.8502696,42.30025704490534,-83.69862570252803,236.60528564453125,-0.6990151706819692,-0.7149892456447254,0.012773986070375956,0.0022349605628713067,0.013990000000000002,-0.023850000000000003,0.009450000000000002,1.7727000000000002,-0.08,-10.243,4.033911062245045,9.023617011578432,11.15999984741211,11.050000190734863,11.139999389648438,11.109999656677246,9.062022771297226,8.972702035878468,9.045782215188904,9.021422155418758,9.025482294445839,0.00020671121846295125,-8.40000057220459,28.25,0.0,0.0,0.0,0.0,0.0,,,,,
frame_00009.png,1771860992892850557,1771860992.8928504,42.30025851524594,-83.69862576963011,236.60867309570312,-0.6991813285859686,-0.7148179169775692,0.013287645843378871,0.002062472436151016,0.00872,-0.015710000000000002,0.007540000000000001,1.5961,-0.08900000000000001,-9.7241,4.122827073793396,9.222516794451401,11.34999942779541,11.34999942779541,11.380000114440918,11.309999465942383,9.216304182364599,9.216304182364599,9.240665016527082,9.18382384454029,9.214274306449143,0.0008937352119778432,-8.600000381469727,29.075000762939453,0.0,0.0,0.0,0.0,0.0,,,,,
frame_00010.png,1771860992942574570,1771860992.9425745,42.30026001659775,-83.69862583350573,236.6118927001953,-0.6993671094128623,-0.714627941134161,0.013732774684318199,0.0019907087475185977,0.014910000000000003,-0.01284,0.009210000000000001,1.6549,-0.0546,-9.751000000000001,4.21129284517106,9.42040941707695,11.59999942779541,11.539999961853027,11.579999923706055,11.5,9.419306487364599,9.370586367824306,9.403066705648614,9.33810603,9.382766397709378,0.003995900570874749,-8.600000381469727,29.600000381469727,0.0,0.0,0.0,0.0,0.0,,,,,
frame_00011.png,1771860992993822755,1771860992.9938228,42.30026231235031,-83.69862593251551,236.61622619628906,-0.6995523962703131,-0.7144363053323795,0.014229112742005032,0.0021778076262975754,0.013630000000000001,-0.0015500000000000002,0.012220000000000002,1.6655,-0.5632,-9.4696,4.297280925764921,9.612759594080584,11.90999984741211,11.75999927520752,11.899999618530273,11.84999942779541,9.671029686297226,9.549227838661823,9.662909408243065,9.622308792364597,9.626368931391678,0.001415757585311292,-8.5,30.100000381469727,0.0,0.0,0.0,0.0,0.0,,,,,
frame_00012.png,1771860993043481173,1771860993.043481,42.300263873827866,-83.6986260003151,236.61813354492188,-0.6997755689637631,-0.7142127168838319,0.014456395790952651,0.002315327966451938,0.0037200000000000006,0.007160000000000001,0.014130000000000002,1.6897,-0.5585,-9.692400000000001,4.382973332642136,9.8044483667205,12.15999984741211,12.069999694824219,12.219999313354492,12.09999942779541,9.874031991297226,9.800951037594453,9.922752110837518,9.825311097364597,9.85576155927345,0.005233664417788532,-8.40000057220459,30.149999618530273,0.0,0.0,0.0,0.0,0.0,,,,,
frame_00013.png,1771860993094990681,1771860993.0949905,42.3002662602527,-83.69862610479531,236.62037658691406,-0.7000453761866229,-0.7139458676737305,0.014567249818037538,0.0023589285857143366,0.008140000000000001,0.004110000000000001,0.013230000000000002,1.5791000000000002,-0.37520000000000003,-9.672,4.470358280848243,9.99992325276067,12.429999351501465,12.34000015258789,12.389999389648438,12.329999923706055,10.09327407801321,10.020193898702775,10.060793740188904,10.012073620648613,10.046583834388375,0.00466609397375362,-8.300000190734863,30.075000762939453,0.0,0.0,0.0,0.0,0.0,,,,,
frame_00014.png,1771860993144980769,1771860993.1449807,42.30026787974651,-83.69862617774507,236.62188720703125,-0.7003150323834433,-0.7136786419579074,0.014690575462861899,0.0024162829850224847,0.008780000000000001,-0.0015200000000000003,0.014530000000000003,1.4415,-0.4319,-10.019300000000001,4.558411704393036,10.196893478024958,12.769999504089355,12.639999389648438,12.679999351501465,12.539999961853027,10.369357336715984,10.263796045188904,10.29627638301321,10.182595587824308,10.278006338185602,0.007954663872428224,-8.100000381469727,30.05000114440918,0.0,0.0,0.0,0.0,0.0,,,,,
frame_00015.png,1771860993197034302,1771860993.1970344,42.300270361503706,-83.69862628990414,236.62466430664062,-0.7006099482956568,-0.7133842507237051,0.014933005610545984,0.002369918135806257,0.006270000000000001,-0.009950000000000002,0.018130000000000004,1.6029,-0.4802,-9.9413,4.651269857142898,10.404611594237235,12.899999618530273,12.769999504089355,12.929999351501465,12.84999942779541,10.474918628243065,10.369357336715984,10.499278688013211,10.434318012364598,10.444468166334214,0.0038306640988939097,-8.100000381469727,30.075000762939453,0.0,0.0,0.0,0.0,0.0,,,,,
frame_00016.png,1771860993245539984,1771860993.2455401,42.300272049350035,-83.69862636593398,236.6267852783203,-0.7009360106520188,-0.7130603592150492,0.015134534768603266,0.002139846881404234,0.0005900000000000001,-0.017610000000000004,0.015310000000000002,1.6023,-0.34790000000000004,-9.947600000000001,4.739118194251012,10.601123053447859,13.09999942779541,13.049999237060547,13.179999351501465,13.09000015258789,10.637320317364598,10.59671970148613,10.702280993013211,10.629200813702774,10.641380456391678,0.003797465866668349,-8.100000381469727,30.5,0.0,0.0,0.0,0.0,0.0,,,,,
frame_00017.png,1771860993296289392,1771860993.2962892,42.30027462403149,-83.69862648608583,236.63011169433594,-0.7012267936747014,-0.7127732243657859,0.01523137083664531,0.0018220324736984103,-0.004750000000000001,-0.015710000000000002,0.013330000000000003,1.6273,-0.5721,-9.7223,4.823593366887281,10.790088946124836,13.420000076293945,13.34000015258789,13.34999942779541,13.289999961853027,10.897163794351389,10.832203118702774,10.840322622364598,10.791602502824306,10.840323009560766,0.004655574545006051,-8.0,30.274999618530273,0.0,0.0,0.0,0.0,0.0,,,,,
frame_00018.png,1771860993347513689,1771860993.3475137,42.30027637298463,-83.69862656618896,236.6323699951172,-0.7014950252756965,-0.7125106022256498,0.015209833191200636,0.0014255538529822508,-0.009620000000000002,-0.01264,0.012810000000000002,1.544,-0.32780000000000004,-9.665700000000001,4.907250913218807,10.977225857815679,13.639999389648438,13.539999961853027,13.630000114440918,13.569999694824219,11.075805265188903,10.994604807824306,11.06768576152708,11.018964867594454,11.039265175533686,0.005651638995278172,-7.900000095367432,30.325000762939453,0.0,0.0,0.0,0.0,0.0,,,,,
frame_00019.png,1771860993398054151,1771860993.3980541,42.3002790369036,-83.69862668405617,236.63552856445312,-0.7017311808104745,-0.7122793774639878,0.015176151833272342,0.0010595911403027253,-0.0046300000000000004,-0.012790000000000001,0.010600000000000002,1.4735,0.2346,-9.729000000000001,4.987900533714117,11.157634219886457,13.859999656677246,13.75999927520752,13.869999885559082,13.799999237060547,11.254447510418759,11.173246278661823,11.26256778847292,11.20572661648613,11.223997048509908,0.0059477508686537565,-7.900000095367432,30.325000762939453,0.0,0.0,0.0,0.0,0.0,,,,,
frame_00020.png,1771860993447508656,1771860993.4475088,42.30028175356746,-83.69862679464651,236.6383819580078,-0.7019370546229092,-0.7120749817428385,0.015248467610634855,0.0010372843287564206,0.00841,0.0004000000000000001,0.010780000000000001,1.6322,0.08030000000000001,-9.7615,5.069184505122633,11.339461586889025,14.049999237060547,14.0,14.09999942779541,14.09000015258789,11.40872892148613,11.368129080000001,11.449329537364598,11.441210033702776,11.416849393138376,0.006824645566843258,-7.800000190734863,30.325000762939453,0.0,0.0,0.0,0.0,0.0,,,,,
frame_00021.png,1771860993498730486,1771860993.4987304,42.30028359152939,-83.69862686414399,236.64019775390625,-0.7021300387436092,-0.7118786278248179,0.015513997657110777,0.0012425042645990987,0.013540000000000002,-0.0027400000000000002,0.01207,1.5877000000000001,-0.0626,-9.8149,5.151067874172547,11.522629770451537,14.34999942779541,14.229999542236328,14.289999961853027,14.279999732971191,11.652331842364598,11.554890828891677,11.603611722824308,11.595491444770145,11.601581459712683,0.006851881109953605,-7.400000095367432,30.5,0.0,0.0,0.0,0.0,0.0,,,,,
frame_00022.png,1771860993548268945,1771860993.548269,42.30028639541471,-83.69862696111689,236.64271545410156,-0.7023391922658407,-0.7116664566537063,0.015757719330611326,0.0014858542399968859,0.015080000000000001,0.00205,0.012560000000000002,1.3447,0.1077,-9.7383,5.229658821866645,11.698433004986374,14.569999694824219,14.539999961853027,14.579999923706055,14.5,11.830974087594452,11.806614027824308,11.839094365648613,11.77413369,11.812704042766843,0.009768063614311573,-7.0,30.325000762939453,0.0,0.0,0.0,0.0,0.0,,,,,
frame_00023.png,1771860993598964281,1771860993.5989642,42.30028829114352,-83.69862702109613,236.64414978027344,-0.7025413695897406,-0.7114614052049635,0.015975326169930373,0.0017555262786106667,0.01675,0.0032600000000000003,0.00816,1.5058,-0.10350000000000001,-9.767800000000001,5.311291266135853,11.881039884869935,14.809999465942383,14.699999809265137,14.75,14.699999809265137,12.025856114540291,11.936535379121532,11.977135995,11.936535379121532,11.969015716945838,0.007404724917045131,-6.400000095367432,30.350000381469727,0.0,0.0,0.0,0.0,0.0,,,,,
frame_00024.png,1771860993649702093,1771860993.649702,42.30029118111619,-83.69862711650553,236.64659118652344,-0.7027576000386213,-0.7112415185441426,0.0162214008313799,0.002030773755684259,0.0181,0.0036300000000000004,0.012120000000000002,1.4779,-0.0444,-9.7651,5.3923936192108854,12.0624609825576,15.019999504089355,14.920000076293945,15.0,14.989999771118164,12.196378081715984,12.115177624351388,12.180138300000001,12.172018021945838,12.165928007003304,0.008577604901298197,-6.099999904632568,30.25,0.0,0.0,0.0,0.0,0.0,,,,,
frame_00025.png,1771860993700280240,1771860993.7002804,42.300293138974396,-83.69862718312454,236.64828491210938,-0.7029609880758452,-0.7110347020868607,0.016442731179885227,0.002266773704371275,0.0134,0.00124,0.010820000000000001,1.3457000000000001,-0.2631,-9.8354,5.4699129172447565,12.235867001101486,15.170000076293945,15.1899995803833,15.210000038146973,15.15999984741211,12.318179929351386,12.33441971106737,12.350660267175694,12.310059651297227,12.32832988972292,0.0075567091905387644,-6.099999904632568,30.399999618530273,0.0,0.0,0.0,0.0,0.0,,,,,
frame_00026.png,1771860993750075156,1771860993.750075,42.30029611460484,-83.69862728815265,236.65081787109375,-0.7031581500935554,-0.7108375445609403,0.01651605378264083,0.0024127094792568524,0.005790000000000001,0.00136,0.0122,1.3418,-0.2464,-9.723600000000001,5.549226489049439,12.413286702414254,15.429999351501465,15.369999885559082,15.449999809265137,15.479999542236328,12.529301738013212,12.480581618472918,12.545542294121534,12.56990235389168,12.531332001124834,0.009509592547123047,-6.099999904632568,30.80000114440918,0.0,0.0,0.0,0.0,0.0,,,,,
frame_00027.png,1771860993800833307,1771860993.8008332,42.30029812256946,-83.69862735756239,236.65225219726562,-0.7033260405674425,-0.7106724870804209,0.016461696446532795,0.0024717032094181087,-0.0025800000000000003,-0.00021000000000000004,0.009440000000000002,1.1634,-0.3321,-9.7821,5.626446376502631,12.586022957453798,15.65999984741211,15.670000076293945,15.679999351501465,15.65999984741211,12.716064261297227,12.724184539351388,12.732304043013212,12.716064261297227,12.722154276239763,0.010816071069165227,-6.099999904632568,30.450000762939453,0.0,0.0,0.0,0.0,0.0,,,,,
frame_00028.png,1771860993850425855,1771860993.850426,42.30030117733504,-83.69862746063234,236.65362548828125,-0.7034889819414669,-0.710518022960727,0.01614400047614587,0.0026004967918894593,-0.00474,0.013260000000000003,0.007090000000000001,1.1828,-0.6208,-9.7363,5.699761064873725,12.750023516458631,15.84999942779541,15.819999694824219,15.90999984741211,15.779999732971191,12.870345672364598,12.845985612594452,12.919066566297225,12.813505274770145,12.862225781506604,0.008800161419556144,-6.099999904632568,30.5,0.0,0.0,0.0,0.0,0.0,,,,,
frame_00029.png,1771860993900957220,1771860993.900957,42.30030323910601,-83.69862752649146,236.65423583984375,-0.7036421786776793,-0.7103719381745357,0.015852986610999154,0.0028419457056353577,0.00272,0.014710000000000003,0.007610000000000001,1.5823,-0.6076,-9.7951,5.780698198840102,12.931075028913378,16.09000015258789,16.020000457763672,16.100000381469727,16.049999237060547,13.065228473702776,13.008388076108323,13.073348751756935,13.03274736148613,13.04492816576354,0.008804614975598774,-6.099999904632568,30.399999618530273,0.0,0.0,0.0,0.0,0.0,,,,,
frame_00030.png,1771860993951553779,1771860993.9515538,42.30030637733001,-83.69862762754157,236.65591430664062,-0.7038346857258884,-0.7101830825744467,0.015738072832650392,0.003006236469504692,-0.0006500000000000001,0.0061400000000000005,0.011200000000000002,1.3192000000000002,-0.2257,-10.032300000000001,5.856939393541594,13.101622006988933,16.31999969482422,16.270000457763672,16.31999969482422,16.279998779296875,13.251990222594452,13.211390381108323,13.251990222594452,13.219509110377807,13.233719984168758,0.010082566655438432,-6.200000286102295,30.475000381469727,0.0,0.0,0.0,0.0,0.0,,,,,
frame_00031.png,1771860994002018219,1771860994.0020182,42.300308501101206,-83.69862769714207,236.6575164794922,-0.7040427178749072,-0.7099801738876013,0.015570353946275695,0.0030932461643184547,-0.0009300000000000002,0.005110000000000001,0.013110000000000002,1.4762000000000002,-0.3437,-10.0815,5.93310721920818,13.272004862935548,16.43000030517578,16.440000534057617,16.489999771118164,16.5,13.341311732405547,13.34943201045971,13.39003185194584,13.39815213,13.369731931202775,0.007363399070184767,-6.200000286102295,30.450000762939453,0.0,0.0,0.0,0.0,0.0,,,,,
frame_00032.png,1771860994052372268,1771860994.0523722,42.30031172055251,-83.69862779603709,236.6604461669922,-0.7043141662248456,-0.7097102383649133,0.015580139042410623,0.0031925041014208696,0.004940000000000001,-0.0014700000000000002,0.014410000000000001,1.2937,-0.3884,-10.1488,6.0089614495853825,13.441686225035527,16.709999084472656,16.639999389648438,16.75,16.690000534057617,13.568673322783358,13.511832925188905,13.601154435,13.55243431545971,13.558523749607993,0.008692177649174144,-6.200000286102295,30.67500114440918,0.0,0.0,0.0,0.0,0.0,,,,,
frame_00033.png,1771860994102866222,1771860994.1028662,42.30031389193113,-83.69862786133324,236.6627197265625,-0.7045648220770271,-0.709460587248853,0.015607783170935067,0.0032378598747943863,0.00041000000000000005,-0.00237,0.013730000000000001,1.3943,-0.3219,-9.945,6.097521216395287,13.639789109803274,16.959999084472656,16.84000015258789,16.959999084472656,16.899999618530273,13.771675627783356,13.674235388702774,13.771675627783356,13.722955508243064,13.735135538128137,0.006990315433567434,-6.300000190734863,30.475000381469727,0.0,0.0,0.0,0.0,0.0,,,,,
frame_00034.png,1771860994152888670,1771860994.1528885,42.3003171907501,-83.69862795902038,236.66610717773438,-0.7048124765135855,-0.709217651082518,0.015501803882406354,0.003064379247660962,-0.009710000000000002,-0.0011500000000000002,0.011250000000000001,1.2990000000000002,-0.2008,-9.8193,6.170067297595485,13.802070340683244,17.1299991607666,17.09000015258789,17.149999618530273,17.09000015258789,13.909717257134744,13.877237693702774,13.925957813243066,13.877237693702774,13.89753761444584,0.006916880685732687,-6.700000286102295,30.475000381469727,0.0,0.0,0.0,0.0,0.0,,,,,
frame_00035.png,1771860994204079617,1771860994.2040796,42.3003194136497,-83.69862802258997,236.66810607910156,-0.7050506120531566,-0.7089880590146637,0.01523052714550931,0.0027563854881103057,-0.01887,-0.0017800000000000001,0.011020000000000002,1.1745,0.08310000000000001,-9.881300000000001,6.240676942973789,13.96001988081579,17.329999923706055,17.260000228881836,17.329999923706055,17.299999237060547,14.072119720648613,14.01527932305416,14.072119720648613,14.04775888648613,14.05181941270938,0.006575888335212452,-7.300000190734863,30.42500114440918,0.0,0.0,0.0,0.0,0.0,,,,,
frame_00036.png,1771860994253769848,1771860994.2537696,42.30032279065136,-83.698628121949,236.671142578125,-0.7052628795919155,-0.7087838828553608,0.014949747630602653,0.0024865880195729887,-0.016470000000000002,-0.00395,0.011930000000000003,1.3359,-0.0708,-10.008600000000001,6.314406629815101,14.124948766498594,17.53999900817871,17.469999313354492,17.56999969482422,17.520000457763672,14.242640913431968,14.185800515837517,14.267001747594453,14.226401906108324,14.230461270743064,0.007469938899511111,-7.900000095367432,30.55000114440918,0.0,0.0,0.0,0.0,0.0,,,,,
frame_00037.png,1771860994304715240,1771860994.3047152,42.300325069907224,-83.69862818328264,236.67330932617188,-0.7054759317971306,-0.7085720583284109,0.014975324868138361,0.0022555390272277712,-0.0004300000000000001,-0.011030000000000002,0.013190000000000002,1.1778,-0.1958,-10.0373,6.388064555662098,14.289717127142774,17.760000228881836,17.670000076293945,17.770000457763672,17.719999313354492,14.421283933054161,14.348202979351388,14.429404211108324,14.388802820837519,14.396923486087848,0.007502342977905409,-8.199999809265137,30.700000762939453,0.0,0.0,0.0,0.0,0.0,,,,,
frame_00038.png,1771860994355104520,1771860994.3551044,42.30032851999911,-83.69862826479611,236.6768798828125,-0.7057631293767581,-0.7082823517274536,0.015158758081474048,0.0021742808421451633,0.00858,-0.00395,0.016550000000000002,1.1209,0.0089,-9.980400000000001,6.454317895314486,14.437921872744788,17.93000030517578,17.85999870300293,17.940000534057617,17.93000030517578,14.559325562405549,14.50248361602642,14.56744584045971,14.559325562405549,14.547145145324308,0.007565027262386448,-8.100000381469727,30.55000114440918,0.0,0.0,0.0,0.0,0.0,,,,,
frame_00039.png,1771860994406383666,1771860994.4063835,42.30033084457504,-83.69862831840412,236.67947387695312,-0.7060742430996427,-0.7079663762025493,0.015406501979851665,0.002326605819988936,0.01058,9e-05,0.01642,1.2102000000000002,-0.3397,-9.860100000000001,6.519328166674814,14.58334594916156,18.190000534057617,18.049999237060547,18.209999084472656,18.09000015258789,14.77044814545971,14.65676580148613,14.786687152783356,14.689246913702775,14.725787003357993,0.009767378123853887,-8.0,30.450000762939453,0.0,0.0,0.0,0.0,0.0,,,,,
frame_00040.png,1771860994456053676,1771860994.4560537,42.30033436711214,-83.69862839098064,236.683349609375,-0.706417929022456,-0.7076226546831417,0.015427724576423822,0.0024235200022299282,0.0011800000000000003,0.00064,0.018270000000000005,1.131,-0.4045,-9.862400000000001,6.586511258997435,14.733630495701723,18.34000015258789,18.270000457763672,18.389999389648438,18.28999900817871,14.892249218702775,14.835408821108322,14.932849060188905,14.85164782843197,14.878038732107994,0.009801266323897523,-7.800000190734863,30.55000114440918,0.0,0.0,0.0,0.0,0.0,,,,,
frame_00041.png,1771860994507921295,1771860994.5079215,42.300337935924254,-83.69862846581798,236.6876678466797,-0.706768454977327,-0.7072750055964426,0.015329271203631544,0.0023304402759303164,-0.007170000000000001,-0.0029900000000000005,0.01837,1.3653,-0.6037,-9.7775,6.657173196867407,14.891697011000579,18.510000228881836,18.5,18.579999923706055,18.469999313354492,15.030290848054163,15.02217057,15.087131245648612,14.997809735837517,15.034350599885073,0.009579404468081455,-7.700000286102295,30.42500114440918,0.0,0.0,0.0,0.0,0.0,,,,,
frame_00042.png,1771860994557645558,1771860994.5576456,42.30034033572822,-83.69862850795064,236.6906280517578,0.7071096390607077,0.7069383384173281,-0.015171917026248276,-0.0019892101276088835,-0.015640000000000005,-0.00871,0.017140000000000002,1.2507000000000001,-0.20170000000000002,-9.6046,6.725084398293893,15.043610293919542,18.690000534057617,18.639999389648438,18.760000228881836,18.69999885559082,15.17645275545971,15.135851365188906,15.233293153054163,15.184571484729195,15.182542189607995,0.009235276172010875,-7.700000286102295,30.325000762939453,0.0,0.0,0.0,0.0,0.0,,,,,
frame_00043.png,1771860994608878375,1771860994.6088784,42.30034397603768,-83.6986285774478,236.69442749023438,0.7073895205915782,0.7066629254695984,-0.014986016850513862,-0.0017306712345861704,-0.011730000000000003,-0.0030700000000000002,0.014090000000000004,1.2117,0.032100000000000004,-9.765,6.788560438558552,15.185602387429167,18.90999984741211,18.829999923706055,19.0,18.869998931884766,15.355094226297227,15.290133550648614,15.428175180000002,15.322613114080582,15.349004017756606,0.010760299536270258,-7.700000286102295,29.75,0.0,0.0,0.0,0.0,0.0,,,,,
frame_00044.png,1771860994658507079,1771860994.658507,42.30034643035046,-83.69862862383319,236.69667053222656,0.707659501596302,0.7063952480382538,-0.014862373263605044,-0.001700943979275441,0.00017,0.0026400000000000004,0.012820000000000003,1.1412,0.17270000000000002,-9.8568,6.851893429737671,15.327274488717386,19.10999870300293,18.989999771118164,19.119998931884766,19.06999969482422,15.517495141026421,15.42005490194584,15.525615419080582,15.485015577594451,15.487045259911824,0.010423951845583994,-7.700000286102295,29.30000114440918,0.0,0.0,0.0,0.0,0.0,,,,,
frame_00045.png,1771860994709551590,1771860994.7095516,42.300350140083474,-83.69862868527963,236.69969177246094,0.707955185893414,0.7061005072662514,-0.01477423546311948,-0.0018028786549525826,-0.00079,0.005510000000000001,0.015600000000000003,1.0331000000000001,-0.0456,-9.597800000000001,6.913950785260215,15.466093069579987,19.209999084472656,19.25,19.28999900817871,19.239999771118164,15.598696372783357,15.631177485000002,15.663657048431968,15.62305720694584,15.629147028290292,0.010542672798925136,-7.400000095367432,28.825000762939453,0.0,0.0,0.0,0.0,0.0,,,,,
frame_00046.png,1771860994759570594,1771860994.7595706,42.30035263813381,-83.69862872699545,236.70162963867188,0.7082778154988123,0.7057778641025417,-0.014709921305228746,-0.0019392860228920946,0.005280000000000001,-0.00035000000000000005,0.017120000000000003,1.4764000000000002,-0.42150000000000004,-10.1773,6.987677432215126,15.631015155219304,19.350000381469727,19.28999900817871,19.479999542236328,19.439998626708984,15.712378716756936,15.663657048431968,15.817939233891678,15.785458121675035,15.744858280188904,0.0072831562018917965,-7.099999904632568,28.92500114440918,0.0,0.0,0.0,0.0,0.0,,,,,
frame_00047.png,1771860994809080440,1771860994.8090804,42.30035642060203,-83.69862878052349,236.70492553710938,0.708618993523626,0.7054316621348035,-0.014901231472901007,-0.0018014926817893767,-0.0007800000000000001,-0.013310000000000002,0.01744,1.5237,-0.2997,-9.9769,7.054492397227703,15.780476223054539,19.600000381469727,19.549999237060547,19.639999389648438,19.529998779296875,15.915381021756936,15.874779631486131,15.947860585188904,15.85853907537781,15.899140078452444,0.007519662507050503,-7.0,28.17500114440918,0.0,0.0,0.0,0.0,0.0,,,,,
frame_00048.png,1771860994860297939,1771860994.860298,42.30035895987074,-83.69862880913826,236.70753479003906,0.7089349522665713,0.7051090083544341,-0.01517518019788329,-0.0014945561825325754,0.0034900000000000005,-0.012270000000000001,0.01957,1.6881000000000002,0.5575,-9.854800000000001,7.113814552017619,15.913176323990294,19.850000381469727,19.65999984741211,19.809999465942383,19.729999542236328,16.118383326756934,15.964101141297226,16.08590221454029,16.020941538891677,16.047332055371534,0.008430481046011544,-6.900000095367432,28.274999618530273,0.0,0.0,0.0,0.0,0.0,,,,,
frame_00049.png,1771860994910755428,1771860994.9107554,42.300362805797526,-83.69862885459146,236.71185302734375,0.7091823661541068,0.7048541686396527,-0.015466423404159295,-0.0013274917889575463,0.00237,-0.005610000000000001,0.010640000000000002,1.4526000000000001,0.4138,-9.6647,7.168255191782452,16.03495676870584,19.959999084472656,19.889999389648438,20.010000228881836,19.920000076293945,16.207703287783357,16.150862890188904,16.24830467805416,16.175223724351387,16.195523645094454,0.010013552185059834,-6.800000190734863,28.274999618530273,0.0,0.0,0.0,0.0,0.0,,,,,
frame_00050.png,1771860994960823213,1771860994.9608233,42.300365392424986,-83.69862888456397,236.71490478515625,0.7094280517706506,0.7046051761842843,-0.015548136217099426,-0.0012808260566050088,0.00022000000000000003,0.005660000000000001,0.011930000000000003,0.9477000000000001,0.5129,-9.7394,7.216303698068744,16.142438394357896,20.119998931884766,20.079999923706055,20.18000030517578,20.059999465942383,16.337624639080584,16.305145075648614,16.38634630740555,16.288904519540292,16.32950513541876,0.011588505806300461,-6.700000286102295,28.325000762939453,0.0,0.0,0.0,0.0,0.0,,,,,
frame_00051.png,1771860995011653128,1771860995.0116532,42.30036929936613,-83.69862892652516,236.7197265625,0.7096906399769618,0.7043399459065612,-0.015589752860181359,-0.0011814123712196826,-0.00461,-0.0012700000000000003,0.015270000000000002,0.9769000000000001,0.0698,-9.927200000000001,7.2749170814684785,16.2735530162201,20.31999969482422,20.239999771118164,20.28999900817871,20.229999542236328,16.50002710259445,16.43506642694584,16.47566626843197,16.426946148891677,16.459426486715984,0.011421812453040952,-6.700000286102295,28.450000762939453,0.0,0.0,0.0,0.0,0.0,,,,,
frame_00052.png,1771860995061901280,1771860995.0619013,42.30037192389246,-83.6986289535622,236.7234344482422,0.7099756628941079,0.704045243138253,-0.015929513543802683,-0.0010508618974642257,0.011740000000000002,-0.01769,0.01635,1.1062,-0.3287,-9.8629,7.339016102315595,16.416938679913848,20.3799991607666,20.299999237060547,20.43000030517578,20.40999984741211,16.548747222134743,16.48378654648613,16.589348612405548,16.573108056297226,16.548747609330913,0.008028837287327747,-6.599999904632568,28.524999618530273,0.0,0.0,0.0,0.0,0.0,,,,,
frame_00053.png,1771860995112430990,1771860995.112431,42.300375891579286,-83.69862898172312,236.72898864746094,0.7103579657425513,0.7036437090149144,-0.01662060379545218,-0.0009202169925456082,0.0054800000000000005,-0.021270000000000004,0.019650000000000004,0.8322,-0.12040000000000001,-9.881300000000001,7.394654498616639,16.541398434135505,20.559999465942383,20.489999771118164,20.600000381469727,20.489999771118164,16.694909129540292,16.63806873194584,16.727390241756936,16.63806873194584,16.674609208797225,0.008053174898853807,-6.599999904632568,28.625,0.0,0.0,0.0,0.0,0.0,,,,,
frame_00054.png,1771860995162460676,1771860995.1624606,42.300378551730475,-83.69862899386361,236.73228454589844,0.7106686021933792,0.7033202899012817,-0.017029211305590278,-0.0008447674205307248,0.00058,-0.00493,0.017670000000000005,0.7682,-0.3811,-8.6516,7.443395327959114,16.650428744924863,20.78999900817871,20.619998931884766,20.899999618530273,20.719999313354492,16.88167087843197,16.743629249080584,16.970992388243065,16.824830480837516,16.855280749148285,0.012303106866594186,-6.5,29.0,0.0,0.0,0.0,0.0,0.0,,,,,
frame_00055.png,1771860995213495611,1771860995.2134955,42.30038257533344,-83.6986290191686,236.73472595214844,0.7109608415434423,0.703028752216113,-0.01687042619718172,-0.0008025392332734144,-0.01017,0.0041600000000000005,0.015620000000000002,1.3157,-0.8884000000000001,-10.3923,7.503007052199135,16.783776595346335,20.899999618530273,20.81999969482422,20.979999542236328,20.829999923706055,16.970992388243065,16.90603171259445,17.03595306389168,16.914151990648616,16.956782288844455,0.010307912078982795,-6.5,29.05000114440918,0.0,0.0,0.0,0.0,0.0,,,,,
frame_00056.png,1771860995263340994,1771860995.263341,42.30038527814115,-83.69862903236485,236.73568725585938,0.7111942524755516,0.7027965033078207,-0.016709117892638823,-0.0007845784166089014,0.006280000000000001,-0.003790000000000001,0.004430000000000001,1.5323,-0.7346,-10.4422,7.554975695808668,16.900027332982244,21.09000015258789,20.979999542236328,20.959999084472656,20.969999313354492,17.125274573702775,17.03595306389168,17.019712507783357,17.027832785837518,17.05219323280383,0.009003884835417864,-6.5,29.0,0.0,0.0,0.0,0.0,0.0,,,,,
frame_00057.png,1771860995314013119,1771860995.3140132,42.30038935220611,-83.698629040847,236.7382354736328,0.7114567953157142,0.7025272807112357,-0.016841845422405473,-0.0010002491381880306,0.025040000000000003,0.00833,0.012390000000000002,0.8178000000000001,0.4944,-9.7104,7.602161991783775,17.0055802459008,21.18000030517578,21.100000381469727,21.170000076293945,20.959999084472656,17.19835552740555,17.133394851756936,17.190235249351385,17.019712507783357,17.135424534074307,0.007635392988416698,-6.200000286102295,29.149999618530273,0.0,0.0,0.0,0.0,0.0,,,,,
frame_00058.png,1771860995364683119,1771860995.364683,42.300392087423006,-83.69862904740697,236.7408447265625,0.7117350524246214,0.7022380301985292,-0.01713600188331723,-0.0011495792560007499,0.02593,0.0005400000000000001,0.016180000000000003,1.0394,0.21230000000000002,-9.7804,7.653844804044845,17.121191595960077,21.329999923706055,21.209999084472656,21.43000030517578,21.299999237060547,17.320156600648613,17.222714812783355,17.401357832405548,17.29579576648613,17.310006253080914,0.011028125937530508,-5.800000190734863,29.149999618530273,0.0,0.0,0.0,0.0,0.0,,,,,
frame_00059.png,1771860995415941787,1771860995.415942,42.30039621697315,-83.69862904726605,236.74562072753906,0.7120215224445882,0.7019415923544745,-0.017381099598236985,-0.001117978225247337,0.0015900000000000003,-0.0012600000000000003,0.014930000000000002,0.793,0.392,-10.1592,7.705379776276145,17.23647223674316,21.469999313354492,21.43000030517578,21.489999771118164,21.439998626708984,17.433837395837518,17.401357832405548,17.45007795194584,17.409476561675035,17.423687435465986,0.010861572841090792,-5.099999904632568,29.274999618530273,0.0,0.0,0.0,0.0,0.0,,,,,
frame_00060.png,1771860995465776716,1771860995.4657767,42.300398983826966,-83.69862904056434,236.7490692138672,0.7122951408536062,0.7016575012684222,-0.017636707483587696,-0.0011531605412263978,-0.0032700000000000003,-0.006250000000000001,0.016000000000000004,0.11570000000000001,0.3688,-9.3741,7.749313193063371,17.33474865409118,21.65999984741211,21.60999870300293,21.649999618530273,21.639999389648438,17.588119581297228,17.54751819102642,17.579999303243067,17.571879025188903,17.571879025188906,0.013679481360219323,-4.700000286102295,29.075000762939453,0.0,0.0,0.0,0.0,0.0,,,,,
frame_00061.png,1771860995517062951,1771860995.517063,42.300403165977784,-83.69862903056804,236.75302124023438,0.7125161449823858,0.701431440960011,-0.017686735381386095,-0.0013624110067384063,-0.008000000000000002,0.0019300000000000003,0.012720000000000002,0.4806,-0.2286,-9.7843,7.79817735208782,17.44405484597933,21.760000228881836,21.729999542236328,21.809999465942383,21.78999900817871,17.66932081305416,17.644959978891677,17.70992065454029,17.69368009843197,17.679470386229525,0.013495459761435874,-4.700000286102295,29.100000381469727,0.0,0.0,0.0,0.0,0.0,,,,,
frame_00062.png,1771860995575050140,1771860995.5750504,42.30040737971713,-83.69862901429022,236.75608825683594,0.7126822042880931,0.7012646659749969,-0.017601166044239187,-0.001463864721859809,0.0012500000000000002,-0.0016800000000000003,0.00642,0.40390000000000004,0.061700000000000005,-9.7011,7.857594552728774,17.576967558781103,21.93000030517578,21.899999618530273,21.989999771118164,21.920000076293945,17.807362442405548,17.783001608243065,17.85608256194584,17.799242164351387,17.81142219423646,0.01333874200264017,-4.700000286102295,29.200000762939453,0.0,0.0,0.0,0.0,0.0,,,,,
frame_00063.png,1771860995620119745,1771860995.6201198,42.300410211944914,-83.69862900534406,236.75755310058594,0.7127954527185574,0.7011503308322541,-0.017554249105180247,-0.0016445351685922091,0.0032300000000000002,7.000000000000002e-05,0.00948,0.7353000000000001,-0.042,-9.5913,7.901187590097594,17.674482567792914,22.119998931884766,22.06999969482422,22.049999237060547,22.03999900817871,17.961643079080584,17.921043237594454,17.904802681486128,17.896682403431967,17.921042850398283,0.013950070767823218,-4.599999904632568,29.05000114440918,0.0,0.0,0.0,0.0,0.0,,,,,
frame_00064.png,1771860995677095808,1771860995.677096,42.300414481400416,-83.69862898603483,236.75979614257812,0.7130326947256589,0.7009038089074578,-0.017730998435216763,-0.0019592360178594934,0.00885,-0.0046300000000000004,0.012780000000000001,0.779,-0.387,-9.9094,7.964469596694865,17.816040619630613,22.149999618530273,22.15999984741211,22.239999771118164,22.219999313354492,17.986003913243067,17.994124191297228,18.059084866945838,18.042844310837516,18.020514320580915,0.011476944025655337,-4.400000095367432,29.024999618530273,0.0,0.0,0.0,0.0,0.0,,,,,
frame_00065.png,1771860995728678787,1771860995.728679,42.3004187852552,-83.69862897209099,236.76255798339844,0.71327873324216,0.7006502042334003,-0.017861050110978997,-0.0019294820774406738,-0.010940000000000002,-0.007810000000000001,0.015930000000000003,0.8722000000000001,-0.6456000000000001,-10.0168,8.01485435568579,17.928748302407772,22.34000015258789,22.279998779296875,22.369998931884766,22.329999923706055,18.140286098702774,18.091564430377808,18.164645384080583,18.132165820648613,18.132165433452442,0.01134586350444509,-4.099999904632568,29.325000762939453,0.0,0.0,0.0,0.0,0.0,,,,,
frame_00066.png,1771860995769120783,1771860995.7691207,42.30042167109203,-83.69862896915754,236.7644500732422,0.7134756611693537,0.7004588728026637,-0.01752715489599202,-0.0016270440150481275,-0.03508,0.006210000000000001,0.012670000000000002,0.47590000000000005,-0.6407,-9.244200000000001,8.04084715280904,17.986892630004654,22.459999084472656,22.479999542236328,22.489999771118164,22.44999885559082,18.237726337783357,18.25396689389168,18.262087171945836,18.229606059729196,18.245846615837518,0.014396816123808552,-3.9000000953674316,29.30000114440918,0.0,0.0,0.0,0.0,0.0,,,,,
frame_00067.png,1771860995819406355,1771860995.8194063,42.30042456051124,-83.6986289559984,236.76629638671875,0.7136554888171371,0.700288833191914,-0.016995457503807203,-0.001596186742500815,0.0004000000000000001,0.010830000000000001,0.0019500000000000003,0.8723000000000001,-0.8331000000000001,-10.4353,8.085020071313822,18.085704798324745,22.56999969482422,22.60999870300293,22.68000030517578,22.600000381469727,18.327047847594454,18.359527411026423,18.416369357405546,18.351408681756936,18.36358832444584,0.015364815981450407,-3.799999952316284,29.274999618530273,0.0,0.0,0.0,0.0,0.0,,,,,
frame_00068.png,1771860995870105120,1771860995.870105,42.30042892847933,-83.69862892770318,236.77052307128906,0.7137853222301641,0.7001545350173761,-0.017025727003681122,-0.0020653046696479656,0.027680000000000003,-0.0011500000000000002,0.0021600000000000005,1.2085000000000001,-0.927,-10.5625,8.142943688699773,18.215276455000073,22.709999084472656,22.65999984741211,22.809999465942383,22.719999313354492,18.440728642783355,18.400128801297228,18.52192987454029,18.448848920837516,18.4529090598646,0.013045786345959971,-3.5,29.149999618530273,0.0,0.0,0.0,0.0,0.0,,,,,
frame_00069.png,1771860995920459251,1771860995.9204593,42.300431868013256,-83.69862890257072,236.77403259277344,0.7139209824200862,0.7000043965804426,-0.01748623571916454,-0.0022152175431571206,0.030320000000000007,-0.02008,0.0017300000000000002,1.6905000000000001,-0.6773,-9.92,8.202789442139819,18.34914781470025,22.78999900817871,22.729999542236328,22.889999389648438,22.85999870300293,18.50568931843197,18.456969198891677,18.5868905501889,18.56252971602642,18.52801969588474,0.00974823915480097,-3.299999952316284,29.075000762939453,0.0,0.0,0.0,0.0,0.0,,,,,
frame_00070.png,1771860995970728335,1771860995.9707284,42.3004362996465,-83.69862886394789,236.77938842773438,0.714096563888721,0.699807318373528,-0.01820785982237718,-0.002070853413881897,0.01634,-0.023150000000000004,0.00916,1.248,-0.45370000000000005,-9.442300000000001,8.251792327061397,18.458764328096724,22.969999313354492,22.90999984741211,23.029998779296875,22.959999084472656,18.651851225837518,18.603131106297226,18.700571345377806,18.643730947783357,18.649821156323977,0.01035046684768814,-3.200000047683716,29.075000762939453,0.0,0.0,0.0,0.0,0.0,,,,,
frame_00071.png,1771860996021636864,1771860996.021637,42.30043927120037,-83.69862883836235,236.7821502685547,0.7142996985998471,0.699586231654994,-0.018757317461714905,-0.001791117129932775,0.004320000000000001,-0.009320000000000002,0.012180000000000002,0.6053000000000001,0.0091,-8.7013,8.29023098296877,18.544749295042163,23.170000076293945,23.01999855041504,23.229999542236328,23.10999870300293,18.814253689351386,18.692451067323645,18.862973808891677,18.76553202102642,18.783802646648283,0.012890621911509475,-3.200000047683716,29.125,0.0,0.0,0.0,0.0,0.0,,,,,
frame_00072.png,1771860996071715232,1771860996.0717154,42.30044375141234,-83.69862880086701,236.78408813476562,0.7144565721858723,0.6994271937961817,-0.018720632045289315,-0.0017160928403309223,-0.0033600000000000006,0.01335,0.005410000000000001,0.42800000000000005,-0.1068,-9.5482,8.324906219794936,18.622315719308087,23.309999465942383,23.26999855041504,23.34000015258789,23.260000228881836,18.92793448454029,18.895453372323647,18.952295318702777,18.88733464305416,18.915754454655218,0.015757370875357148,-3.0,29.274999618530273,0.0,0.0,0.0,0.0,0.0,,,,,
frame_00073.png,1771860996122580364,1771860996.1225805,42.300446748714926,-83.69862877520922,236.7848663330078,0.7146444017863287,0.6992557400205907,-0.017948958996705434,-0.001619850194068117,-0.02995,0.012670000000000002,0.008470000000000002,0.9706,-0.42660000000000003,-10.9806,8.380401980022393,18.746456405191292,23.399999618530273,23.420000076293945,23.350000381469727,23.35999870300293,19.001015438243066,19.017255994351387,18.960415596756935,18.968534326026422,18.986805338844455,0.012821032863928623,-2.6000001430511475,28.950000762939453,0.0,0.0,0.0,0.0,0.0,,,,,
frame_00074.png,1771860996172769423,1771860996.1727695,42.300451277938784,-83.69862874655888,236.78831481933594,0.7148194698819142,0.6990880075608246,-0.01752964242379748,-0.0013397010374066533,-0.012540000000000003,-0.005170000000000001,0.0105,0.6455000000000001,0.4894,-10.3759,8.428731265556998,18.85456611717507,23.600000381469727,23.549999237060547,23.459999084472656,23.510000228881836,19.163417901756937,19.122816511486132,19.049735557783357,19.090336948054162,19.106576729770147,0.013366025557358913,-2.0,28.375,0.0,0.0,0.0,0.0,0.0,,,,,
frame_00075.png,1771860996223653033,1771860996.223653,42.30045432034364,-83.69862872596524,236.792236328125,0.714957229613,0.698939930268962,-0.017819789312477748,-0.001260479504641501,0.010570000000000001,-0.0082,0.008700000000000001,0.033,0.321,-9.366100000000001,8.476422126005707,18.961247710547205,23.65999984741211,23.600000381469727,23.729999542236328,23.739999771118164,19.212138021297225,19.163417901756937,19.26897841889168,19.277098696945842,19.23040825972292,0.014195297339319877,-1.0,27.524999618530273,0.0,0.0,0.0,0.0,0.0,,,,,
frame_00076.png,1771860996282302168,1771860996.2823021,42.30045890331585,-83.69862868061956,236.7977294921875,0.7150348437426159,0.6988503417192197,-0.018205207353705486,-0.001393749658690061,0.007890000000000001,-0.008990000000000001,0.00464,0.19010000000000002,-0.2258,-9.511700000000001,8.524041439453717,19.067769257571598,23.85999870300293,23.809999465942383,23.90999984741211,23.85999870300293,19.374538936026422,19.33393909454029,19.415140326297227,19.374538936026422,19.37453932322259,0.016088408743942382,-0.20000000298023224,25.17500114440918,0.0,0.0,0.0,0.0,0.0,,,,,
frame_00077.png,1771860996324824630,1771860996.3248246,42.30046197525935,-83.69862864727908,236.80015563964844,0.7150208668300732,0.6988663065292091,-0.018140437041273473,-0.0014036166655250347,-0.00859,0.008430000000000002,-0.00487,-0.07060000000000001,0.0402,-8.9754,8.563723990386105,19.156536743054296,23.979999542236328,23.90999984741211,24.01999855041504,24.029998779296875,19.47198072389168,19.415140326297227,19.504460287323646,19.51258056537781,19.47604047572259,0.01667857488823701,-0.10000000149011612,23.80000114440918,0.0,0.0,0.0,0.0,0.0,,,,,
frame_00078.png,1771860996374364029,1771860996.374364,42.30046660166625,-83.69862859066578,236.80189514160156,0.7149437470108844,0.6989550139136419,-0.017742619198340408,-0.0015895279173220194,-0.0027700000000000003,0.017530000000000004,-0.00256,0.4595,0.2243,-9.944,8.606464310669303,19.25214427510859,24.059999465942383,24.06999969482422,24.059999465942383,24.06999969482422,19.53694139954029,19.54506167759445,19.53694139954029,19.54506167759445,19.54100153856737,0.0150039008294909,-0.20000000298023224,23.0,0.0,0.0,0.0,0.0,0.0,,,,,
frame_00079.png,1771860996425959433,1771860996.4259593,42.3004696984615,-83.69862854930832,236.8026580810547,0.7148407948808944,0.699067990951039,-0.017424668895600886,-0.0017213121761298846,-0.015320000000000002,0.006980000000000001,-0.005080000000000001,0.8477,-0.7777000000000001,-10.2824,8.653045070454185,19.356342639901786,24.18000030517578,24.18000030517578,24.10999870300293,24.1299991607666,19.63438318740555,19.63438318740555,19.57754124102642,19.593781797134746,19.610022353243068,0.013105766831092235,-0.30000001192092896,22.274999618530273,0.0,0.0,0.0,0.0,0.0,,,,,
frame_00080.png,1771860996475936194,1771860996.4759362,42.30047437364368,-83.69862850805582,236.80471801757812,0.7148087899999059,0.6991107327134904,-0.017054145117360236,-0.0013165401599578301,-0.037450000000000004,-0.012670000000000002,0.0043300000000000005,0.6396000000000001,-0.9860000000000001,-10.2376,8.69911139576098,19.459390245633568,24.209999084472656,24.26999855041504,24.28999900817871,24.309999465942383,19.658742472783356,19.707462592323647,19.72370314843197,19.73994370454029,19.707462979519818,0.012748227501214451,-0.30000001192092896,21.125,0.0,0.0,0.0,0.0,0.0,,,,,
frame_00081.png,1771860996535159781,1771860996.5351598,42.300479078640656,-83.69862848135047,236.8082733154297,0.7148699181007586,0.6990599414725271,-0.016619150871081338,-4.740638899293714e-05,-0.04018,-0.03361,0.0029300000000000003,0.5923,-0.24650000000000002,-10.2748,8.754122686627541,19.582447202624614,24.35999870300293,24.399999618530273,24.389999389648438,24.35999870300293,19.780543546026422,19.813024658243066,19.804904380188905,19.780543546026422,19.794754032621203,0.010841690407730727,-0.30000001192092896,18.30000114440918,0.0,0.0,0.0,0.0,0.0,,,,,
frame_00082.png,1771860996587071687,1771860996.5870717,42.30048223391102,-83.6986284642588,236.81149291992188,0.714896191822119,0.6990252576656663,-0.01691766753834244,0.0009573864124534765,0.004280000000000001,-0.043480000000000005,0.0002800000000000001,0.45380000000000004,0.8558,-9.9841,8.789684444552332,19.661996721396896,24.439998626708984,24.369998931884766,24.469999313354492,24.350000381469727,19.845504221675036,19.78866382408058,19.869865055837515,19.772424816756935,19.819114479587515,0.007990936038537627,-0.30000001192092896,15.40000057220459,0.0,0.0,0.0,0.0,0.0,,,,,
frame_00083.png,1771860996636333107,1771860996.636333,42.30048697755288,-83.69862841767413,236.8162841796875,0.7148662093236103,0.6990327634654292,-0.017848689107569225,0.0009605552137359314,0.024970000000000003,-0.01276,-0.0013400000000000003,-0.048400000000000006,0.0497,-9.3223,8.805186651623986,19.69667422848376,24.529998779296875,24.549999237060547,24.619998931884766,24.549999237060547,19.91858517537781,19.93482573148613,19.99166612908058,19.93482573148613,19.944975691857664,0.012606263397240365,-0.20000000298023224,12.100000381469727,0.0,0.0,0.0,0.0,0.0,,,,,
frame_00084.png,1771860996686662640,1771860996.6866627,42.30049014614836,-83.69862838252153,236.81918334960938,0.7148317076040279,0.6990656378071005,-0.01795792749584549,0.0006137436884803122,-0.00251,0.02009,-0.0031200000000000004,-0.12490000000000001,-0.8341000000000001,-9.673,8.809409770745384,19.70612109257118,24.549999237060547,24.739999771118164,24.65999984741211,24.689998626708984,19.93482573148613,20.08910791694584,20.024147241297225,20.048506526675034,20.024146854101055,0.016138425214983772,-0.10000000149011612,7.925000190734863,0.0,0.0,0.0,0.0,0.0,,,,,
frame_00085.png,1771860996738142310,1771860996.7381423,42.30049489812799,-83.69862832612763,236.8224639892578,0.7148100126798826,0.6991079777970522,-0.01716442333793834,-0.0002524372765868159,0.013820000000000002,0.05684000000000001,-0.0039900000000000005,-0.12510000000000002,-1.0039,-9.6477,8.813730297395495,19.71578585145588,24.76999855041504,24.78999900817871,24.84000015258789,24.799999237060547,20.113467202323648,20.12970775843197,20.170309148702774,20.13782803648613,20.13782803648613,0.02140630803205265,-0.10000000149011612,2.924999952316284,0.0,0.0,0.0,0.0,0.0,,,,,
frame_00086.png,1771860996788031149,1771860996.7880313,42.30049965838673,-83.6986282767403,236.82518005371094,0.7148566010659817,0.6990850832524298,-0.0160573688767648,-0.0014990634044644599,0.015640000000000005,0.05621000000000001,0.0017800000000000001,0.4862,-0.4999,-9.778400000000001,8.837005135920073,19.76785026874505,24.869998931884766,24.93000030517578,24.94999885559082,24.81999969482422,20.194668434080583,20.24339010240555,20.259629109729193,20.154068592594456,20.212939059702446,0.02251579129275001,-0.20000000298023224,0.0,0.0,0.0,0.0,0.0,0.0,,,,,
frame_00087.png,1771860996838752321,1771860996.8387523,42.300502840065434,-83.69862824686331,236.82720947265625,0.7149386997025119,0.6990226164010358,-0.015006223296437827,-0.0022024281848143537,-0.00544,0.038740000000000004,0.00237,0.6481,0.1255,-9.5931,8.864924635394596,19.830304513899588,24.889999389648438,24.829999923706055,24.989999771118164,24.85999870300293,20.210908990188905,20.162188870648613,20.29211022194584,20.18654815602642,20.212939059702443,0.01929544478425211,-0.4000000059604645,0.0,0.0,0.0,0.0,0.0,0.0,,,,,
frame_00088.png,1771860996880020211,1771860996.8800201,42.30050603201839,-83.69862823211598,236.82920837402344,0.715002827832974,0.6989718476407869,-0.014281532756145403,-0.002313053957465306,-0.029360000000000004,0.028480000000000002,0.005450000000000001,0.0833,-0.1501,-9.4382,8.877025155000913,19.857372650227745,24.799999237060547,24.84000015258789,24.939998626708984,24.889999389648438,20.13782803648613,20.170309148702774,20.251508831675036,20.210908990188905,20.192638751763212,0.016883709010296576,-0.800000011920929,0.0,0.0,0.0,0.0,0.0,0.0,,,,,
frame_00089.png,1771860996939233251,1771860996.9392333,42.30051082693,-83.69862819906784,236.83152770996094,0.7150488818860551,0.6989328854040231,-0.013848993643078452,-0.0024745887301008828,0.0034300000000000003,0.010050000000000002,-0.00017,-0.1608,-0.1279,-9.8717,8.890758464072553,19.888093238622456,24.920000076293945,24.829999923706055,24.799999237060547,24.829999923706055,20.235269824351388,20.162188870648613,20.13782803648613,20.162188870648613,20.174368900533686,0.014394324205765764,-1.399999976158142,0.0,0.0,0.0,0.0,0.0,0.0,,,,,
frame_00090.png,1771860996989292033,1771860996.9892921,42.30051562541658,-83.69862815928232,236.83438110351562,0.7150719271342101,0.6989056544425393,-0.014013915495148785,-0.002575924165653582,0.00288,-0.014080000000000002,0.006070000000000001,-0.41100000000000003,-0.4748,-11.200800000000001,8.8950425165483,19.897676406967555,24.8799991607666,24.850000381469727,24.81999969482422,24.779998779296875,20.202788712134744,20.178429426756935,20.154068592594456,20.12158748037781,20.164218552965988,0.013395641809970204,-1.3000000715255737,0.0,0.0,0.0,0.0,0.0,0.0,,,,,
frame_00091.png,1771860997040223450,1771860997.0402236,42.30051882647861,-83.69862813573458,236.8375244140625,0.7151575859630916,0.6988178543124822,-0.01411919262142379,-0.001970312985453669,-0.012830000000000001,-0.03526000000000001,0.008420000000000002,-0.1535,-0.0858,-11.6339,8.900310319943854,19.909460167095204,24.829999923706055,24.889999389648438,24.729999542236328,24.719999313354492,20.162188870648613,20.210908990188905,20.08098763889168,20.07286736083752,20.13173821514168,0.011164443745885188,-1.0,0.0,0.0,0.0,0.0,0.0,0.0,,,,,
frame_00092.png,1771860997090053889,1771860997.0900538,42.300523626019476,-83.69862809426711,236.84732055664062,0.7152384445496833,0.6987222672761734,-0.014852010386769095,-0.0007605511586856241,-0.00661,-0.06548000000000001,0.005300000000000001,-0.42310000000000003,0.8734000000000001,-10.845,8.89653396835439,19.90101269517067,24.760000228881836,24.729999542236328,24.779998779296875,24.719999313354492,20.10534847305416,20.08098763889168,20.12158748037781,20.07286736083752,20.09519773829029,0.00975754581407524,-1.0,0.0,0.0,0.0,0.0,0.0,0.0,,,,,
frame_00093.png,1771860997141039594,1771860997.1410396,42.3005268197204,-83.69862805287106,236.85565185546875,0.7152759050386412,0.698652331832685,-0.016285725499265363,0.00027210451464124104,0.011000000000000001,-0.05589000000000001,0.009200000000000002,-1.137,0.5739000000000001,-9.343,8.874920088708132,19.85266374323477,24.69999885559082,24.670000076293945,24.76999855041504,24.75,20.056626804729195,20.03226751935139,20.113467202323648,20.097228195,20.074897430351058,0.011194149560510118,-0.9000000357627869,0.0,0.0,0.0,0.0,0.0,0.0,,,,,
frame_00094.png,1771860997190908554,1771860997.1909087,42.300531604679364,-83.69862798994976,236.8668670654297,0.7152311344177477,0.6986705925507741,-0.01741594270985222,0.0007158238463724499,0.0032900000000000004,-0.0181,0.0005000000000000001,-1.159,-0.44370000000000004,-8.8408,8.84920040702375,19.795130358487707,24.739999771118164,24.729999542236328,24.739999771118164,24.739999771118164,20.08910791694584,20.08098763889168,20.08910791694584,20.08910791694584,20.087077847432298,0.01474844992972777,-0.9000000357627869,0.0,0.0,0.0,0.0,0.0,0.0,,,,,
frame_00095.png,1771860997242038936,1771860997.242039,42.30053478531959,-83.69862795020498,236.8721466064453,0.7152037315005494,0.6986853408554694,-0.017941827468945327,0.0007125646927947556,0.019550000000000005,-0.00604,-0.0004900000000000001,-1.2107,-0.5676,-8.8718,8.828414577777044,19.748633705612583,24.60999870300293,24.60999870300293,24.75,24.779998779296875,19.98354585102642,19.98354585102642,20.097228195,20.12158748037781,20.046476844357663,0.015081708597412103,-0.800000011920929,0.0,0.0,0.0,0.0,0.0,0.0,,,,,
frame_00096.png,1771860997291621409,1771860997.2916214,42.300539546207695,-83.69862788852093,236.87681579589844,0.7152484349108271,0.6986386000586708,-0.017989978635341852,0.00037885930499473433,0.01716,0.0034100000000000007,-0.0010800000000000002,-0.4444,-0.5775,-8.9405,8.815547175369176,19.719850098470324,24.69999885559082,24.639999389648438,24.719999313354492,24.59000015258789,20.056626804729195,20.007906685188903,20.07286736083752,19.967306843702776,20.0261769236146,0.0155339327436387,-0.800000011920929,0.0,0.0,0.0,0.0,0.0,0.0,,,,,
frame_00097.png,1771860997342888895,1771860997.342889,42.300542715092526,-83.69862785414648,236.87864685058594,0.7153559800239839,0.6985393474857354,-0.017566915343217113,7.309892494977312e-05,-0.009120000000000001,0.02304,0.0054,-0.8832000000000001,-0.2921,-9.05,8.79181360817836,19.6667595326785,24.670000076293945,24.639999389648438,24.689998626708984,24.670000076293945,20.03226751935139,20.007906685188903,20.048506526675034,20.03226751935139,20.030237062641678,0.018481821032042354,-0.800000011920929,0.0,0.0,0.0,0.0,0.0,0.0,,,,,
frame_00098.png,1771860997383958564,1771860997.3839586,42.3005458742542,-83.69862781787074,236.8789520263672,0.7154383129437532,0.6984727085529078,-0.016848595511052958,-0.00014355579344923399,-0.01617,0.0367,0.00483,-0.5933,0.162,-9.242700000000001,8.774171029289137,19.627294142258044,24.719999313354492,24.639999389648438,24.549999237060547,24.59000015258789,20.07286736083752,20.007906685188903,19.93482573148613,19.967306843702776,19.99572665530383,0.01877143687639253,-0.800000011920929,0.0,0.0,0.0,0.0,0.0,0.0,,,,,
frame_00099.png,1771860997443814326,1771860997.4438145,42.300550604826704,-83.6986277686344,236.87863159179688,0.715491886244062,0.6984415156279958,-0.01580378806406399,-0.0010248165729296065,-0.00221,0.05263000000000001,-0.0006300000000000001,-0.018000000000000002,-0.1915,-9.7332,8.758212501702538,19.591595873558475,24.639999389648438,24.65999984741211,24.479999542236328,24.549999237060547,20.007906685188903,20.024147241297225,19.87798533389168,19.93482573148613,19.961216247965986,0.018866271884791355,-0.699999988079071,0.0,0.0,0.0,0.0,0.0,0.0,,,,,
frame_00100.png,1771860997493566000,1771860997.493566,42.30055532888705,-83.69862771364153,236.87911987304688,0.7155002550265851,0.6984442677674145,-0.01524942564379005,-0.0015636167260850513,0.0024300000000000007,0.0267,0.00396,-0.2097,0.1549,-11.0801,8.75146879217815,19.57651059997499,24.60999870300293,24.529998779296875,24.51999855041504,24.5,19.98354585102642,19.91858517537781,19.910464897323646,19.89422589,19.92670545343197,0.017888522659264272,-0.4000000059604645,0.0,0.0,0.0,0.0,0.0,0.0,,,,,
frame_00101.png,1771860997544726199,1771860997.5447264,42.300558481301245,-83.69862768595536,236.8817596435547,0.7155254829745783,0.6984237114702633,-0.015025655030551775,-0.001353573419413673,-0.007140000000000001,-0.004720000000000001,-0.00011000000000000002,-0.7081000000000001,0.2805,-11.0975,8.749756234159355,19.57267971044043,24.51999855041504,24.56999969482422,24.469999313354492,24.510000228881836,19.910464897323646,19.951066287594454,19.869865055837515,19.902346168054162,19.908435602202445,0.01715431390740623,0.0,0.0,0.0,0.0,0.0,0.0,0.0,,,,,
frame_00102.png,1771860997594794089,1771860997.594794,42.30056320452758,-83.69862763531287,236.88742065429688,0.7155524613028154,0.6983918340300568,-0.015248249250733436,-0.0010060707747017862,0.006790000000000001,-0.007640000000000001,-0.00051,-1.0726,0.7702,-9.9951,8.734301344565301,19.538108049711905,24.44999885559082,24.3799991607666,24.459999084472656,24.399999618530273,19.853624499729197,19.796784102134744,19.861744777783354,19.813024658243066,19.831294509472592,0.015005877693721215,0.6000000238418579,0.0,0.0,0.0,0.0,0.0,0.0,,,,,
frame_00103.png,1771860997645772819,1771860997.6457727,42.30056635308378,-83.69862760116746,236.89198303222656,0.7154826877550557,0.6984504436719782,-0.015839125039723963,-0.0007895411286981676,0.0019600000000000004,-0.019430000000000003,-0.0013300000000000002,-0.9944000000000001,0.7891,-9.570400000000001,8.727160138957842,19.522133601240355,24.35999870300293,24.299999237060547,24.479999542236328,24.369998931884766,19.780543546026422,19.73182342648613,19.87798533389168,19.78866382408058,19.794754032621203,0.013964684237358471,1.0,0.0,0.0,0.0,0.0,0.0,0.0,,,,,
frame_00104.png,1771860997695730050,1771860997.6957302,42.30057106718329,-83.69862754062,236.8998565673828,0.7153091724018915,0.6986125213524015,-0.01653142228667028,-0.00021204844055410353,-0.019860000000000003,-0.048900000000000006,-0.00234,-1.1643000000000001,-0.4582,-10.7565,8.71882761995054,19.50349425617216,24.26999855041504,24.26999855041504,24.299999237060547,24.399999618530273,19.707462592323647,19.707462592323647,19.73182342648613,19.813024658243066,19.73994331734412,0.012123420453087917,1.100000023841858,0.0,0.0,0.0,0.0,0.0,0.0,,,,,
frame_00105.png,1771860997740383837,1771860997.7403836,42.30057420428392,-83.69862749722861,236.9054412841797,0.715144047589367,0.6987664167856933,-0.017160299785012448,0.00010040551976309624,0.017060000000000002,-0.029890000000000003,-0.019100000000000002,-0.1797,-2.2096,-10.078700000000001,8.712198103340398,19.488664425286274,24.26999855041504,24.189998626708984,24.28999900817871,24.469999313354492,19.707462592323647,19.642501916675034,19.72370314843197,19.869865055837515,19.73588317831704,0.01268525885796474,1.2000000476837158,0.0,0.0,0.0,0.0,0.0,0.0,,,,,
frame_00106.png,1771860997796877814,1771860997.7968779,42.30057890050525,-83.69862743055062,236.91395568847656,0.7150037796015052,0.6988791717820971,-0.018367704274552837,0.0003547455631732888,0.019560000000000004,-0.038650000000000004,-0.005360000000000001,-0.5304,-1.3023,-8.783800000000001,8.691353064126998,19.44203532326825,24.25,24.18000030517578,24.25,24.18000030517578,19.691223585,19.63438318740555,19.691223585,19.63438318740555,19.662803386202775,0.011355192975619651,1.2000000476837158,0.0,0.0,0.0,0.0,0.0,0.0,,,,,
frame_00107.png,1771860997840609245,1771860997.8406093,42.300582025232124,-83.69862739261796,236.91871643066406,0.7149798009608229,0.6988878848399211,-0.018959152910973165,0.0003989522547175063,0.020820000000000005,-0.018290000000000004,-0.00854,-0.4571,-0.9855,-9.3187,8.672762413564904,19.400449153399876,24.229999542236328,24.189998626708984,24.28999900817871,24.239999771118164,19.67498302889168,19.642501916675034,19.72370314843197,19.68310330694584,19.68107285023613,0.014464804119603398,1.2000000476837158,0.0,0.0,0.0,0.0,0.0,0.0,,,,,
frame_00108.png,1771860997889036934,1771860997.8890371,42.30058669869464,-83.69862734643999,236.92384338378906,0.7149773268636362,0.6988898375952748,-0.018979926080629102,0.0004235362479157122,0.00812,0.007730000000000001,-0.006090000000000001,-0.7519,-0.0843,-9.5288,8.645190646643611,19.33877276510296,24.26999855041504,24.18000030517578,24.18000030517578,24.229999542236328,19.707462592323647,19.63438318740555,19.63438318740555,19.67498302889168,19.662802999006608,0.016755470362026553,1.2000000476837158,0.0,0.0,0.0,0.0,0.0,0.0,,,,,
frame_00109.png,1771860997939446405,1771860997.9394464,42.300589807579335,-83.69862731925883,236.92652893066406,0.7149243816133597,0.6989556987095321,-0.01854498632955839,0.00037854756841492566,0.00204,0.015950000000000002,-0.00973,-0.8045,-0.1308,-9.7608,8.623579222587644,19.290429306175206,24.209999084472656,24.209999084472656,24.149999618530273,24.170000076293945,19.658742472783356,19.658742472783356,19.610022353243064,19.626262909351386,19.63844255204029,0.01804072062583271,1.2000000476837158,0.0,0.0,0.0,0.0,0.0,0.0,,,,,
frame_00110.png,1771860997989479252,1771860997.989479,42.30059445807262,-83.69862728223998,236.93011474609375,0.7148711915382404,0.6990294099767126,-0.01780385958367162,0.0002933943251085045,-0.0012000000000000001,0.022080000000000002,-0.013750000000000002,-0.3911,0.191,-8.3828,8.614637611783984,19.270427459304067,24.139999389648438,24.06999969482422,24.25,24.170000076293945,19.601902075188907,19.54506167759445,19.691223585,19.626262909351386,19.616112561783684,0.01793863178228125,1.2000000476837158,0.0,0.0,0.0,0.0,0.0,0.0,,,,,
frame_00111.png,1771860998040278716,1771860998.0402787,42.30059755170297,-83.6986272560206,236.93145751953125,0.7148606717428224,0.6990553276626819,-0.017200814184679954,-2.9209672330402432e-05,-0.007720000000000001,0.022640000000000004,0.00034,0.1401,-0.0521,-9.2727,8.60549544023332,19.249976970075522,24.03999900817871,24.139999389648438,24.059999465942383,24.09000015258789,19.52070084343197,19.601902075188907,19.53694139954029,19.561302233702776,19.555211637965986,0.01585636535383688,1.2000000476837158,0.0,0.0,0.0,0.0,0.0,0.0,,,,,
frame_00112.png,1771860998090112936,1771860998.090113,42.30060219245214,-83.69862722533449,236.93341064453125,0.7148278868797191,0.6990938576616222,-0.01699473988204962,-0.00022166463041037012,-0.0018700000000000004,0.016210000000000002,-0.0022,0.1956,-0.6187,-9.7043,8.601279692118855,19.24054659448835,24.079999923706055,24.149999618530273,24.059999465942383,24.049999237060547,19.553181955648615,19.610022353243064,19.53694139954029,19.528821121486132,19.557241707479527,0.0164597773475883,1.100000023841858,0.0,0.0,0.0,0.0,0.0,0.0,,,,,
frame_00113.png,1771860998140998151,1771860998.1409981,42.300605283744595,-83.69862720291962,236.93472290039062,0.7147716303791279,0.6991535263681827,-0.01690598102022263,-0.00022533939220832682,-0.0017900000000000004,0.00992,-0.00425,-0.0579,0.1688,-10.421100000000001,8.588819600074425,19.212674116190485,24.049999237060547,23.959999084472656,23.979999542236328,24.049999237060547,19.528821121486132,19.455740167783357,19.47198072389168,19.528821121486132,19.496340783661825,0.01476455936096346,1.100000023841858,0.0,0.0,0.0,0.0,0.0,0.0,,,,,
frame_00114.png,1771860998190842222,1771860998.1908422,42.30060991458038,-83.69862715810557,236.93707275390625,0.7146107501195202,0.6993135285979301,-0.017087185342137802,-0.0003043527758768866,0.015460000000000002,0.00801,-0.010980000000000002,-0.8264,0.5179,-9.9425,8.573074670541452,19.177453653520995,23.979999542236328,23.90999984741211,23.979999542236328,23.989999771118164,19.47198072389168,19.415140326297227,19.47198072389168,19.48010100194584,19.459800694006606,0.014722863920662995,1.100000023841858,0.0,0.0,0.0,0.0,0.0,0.0,,,,,
frame_00115.png,1771860998241896438,1771860998.2418964,42.300612997832125,-83.69862712868625,236.93934631347656,0.7144828839062329,0.6994325197435464,-0.01755000992862022,-0.0005967258427739788,0.01744,0.0038000000000000004,-0.007150000000000001,-0.6438,-0.31320000000000003,-10.2782,8.559901794250699,19.14798671963116,24.049999237060547,23.989999771118164,23.94999885559082,23.8799991607666,19.528821121486132,19.48010100194584,19.447619889729197,19.390779492134744,19.461830376323977,0.01639042585981401,1.100000023841858,0.0,0.0,0.0,0.0,0.0,0.0,,,,,
frame_00116.png,1771860998291659236,1771860998.2916594,42.30061761126339,-83.69862708406438,236.94461059570312,0.7144179171354198,0.6994887565905024,-0.017940063239945927,-0.0008204939416263887,0.00872,-0.006810000000000001,-0.0029300000000000003,-0.5769000000000001,-1.0989,-10.332,8.547030246272609,19.11919383909705,23.889999389648438,24.049999237060547,23.90999984741211,23.8799991607666,19.398899770188905,19.528821121486132,19.415140326297227,19.390779492134744,19.433410177526753,0.016434601849538114,1.100000023841858,0.0,0.0,0.0,0.0,0.0,0.0,,,,,
frame_00117.png,1771860998342744608,1771860998.3427446,42.30062067958061,-83.69862705760089,236.94931030273438,0.7144069511209352,0.6994985575999509,-0.01800811580749956,-0.00042880151754687333,-0.013540000000000002,-0.020700000000000003,-0.00202,-0.8275,-1.3980000000000001,-9.4282,8.531281774729331,19.08396545316303,23.90999984741211,23.90999984741211,23.94999885559082,23.8799991607666,19.415140326297227,19.415140326297227,19.447619889729197,19.390779492134744,19.417170008614598,0.017459922376685064,1.2000000476837158,0.0,0.0,0.0,0.0,0.0,0.0,,,,,
frame_00118.png,1771860998392762648,1771860998.3927627,42.30062528062681,-83.6986270322802,236.9564971923828,0.7143643434051234,0.6995468918903561,-0.017825003497394118,1.2970243876726688e-05,-0.008180000000000002,-0.0020100000000000005,-0.0018800000000000004,-0.3723,-0.35900000000000004,-8.9986,8.517078008551925,19.052192480450145,23.829999923706055,23.899999618530273,23.8799991607666,23.760000228881836,19.350179650648617,19.407020048243066,19.390779492134744,19.29333925305416,19.360329611020145,0.01617331605725617,1.2000000476837158,0.0,0.0,0.0,0.0,0.0,0.0,,,,,
frame_00119.png,1771860998443682751,1771860998.443683,42.30062834145513,-83.69862701587815,236.9602813720703,0.7142219878492009,0.6996984897099013,-0.01757710597488274,0.00014462353474769879,-0.008110000000000001,0.01581,-0.013500000000000002,-0.1343,0.8234,-9.106200000000001,8.499123979637515,19.012030395010346,23.779998779296875,23.850000381469727,23.84000015258789,23.84000015258789,19.309578260377805,19.366420206756935,19.358299928702774,19.358299928702774,19.348149581135072,0.017679289331082697,1.3000000715255737,0.0,0.0,0.0,0.0,0.0,0.0,,,,,
frame_00120.png,1771860998493649311,1771860998.4936495,42.30063292458391,-83.69862698628218,236.9640655517578,0.7140940043894171,0.6998302506854487,-0.017531987297053082,-5.041869897160671e-05,0.0014800000000000002,0.0089,-0.008430000000000002,-0.5178,0.23720000000000002,-8.4084,8.483312953154806,18.976662077430113,23.60999870300293,23.689998626708984,23.729999542236328,23.719999313354492,19.17153663102642,19.236497306675037,19.26897841889168,19.260858140837517,19.234467624357663,0.01358540010227461,1.5,0.0,0.0,0.0,0.0,0.0,0.0,,,,,
frame_00121.png,1771860998544631485,1771860998.5446315,42.30063597502711,-83.69862696998803,236.9658660888672,0.7140159236740732,0.6999104376924619,-0.017504904826972166,-0.0004671787722505057,0.022860000000000005,0.015500000000000002,-0.0038300000000000005,-0.654,-0.27,-9.2683,8.474461367929846,18.956861612376994,23.719999313354492,23.78999900817871,23.75,23.78999900817871,19.260858140837517,19.31769853843197,19.285218975,19.31769853843197,19.29536854817536,0.01785669710103044,1.7000000476837158,0.0,0.0,0.0,0.0,0.0,0.0,,,,,
frame_00122.png,1771860998594642700,1771860998.5946426,42.30063901727903,-83.69862694640317,236.9666290283203,0.7139172191747291,0.7000128844015736,-0.01741393451178247,-0.0009595428236122646,0.024460000000000003,0.005350000000000001,-0.009190000000000002,-0.42760000000000004,0.1391,-10.3672,8.4654024816057,18.936597427203058,23.76999855041504,23.889999389648438,23.729999542236328,23.689998626708984,19.301457982323647,19.398899770188905,19.26897841889168,19.236497306675037,19.301458369519818,0.019267502713693693,1.8000000715255737,0.0,0.0,0.0,0.0,0.0,0.0,,,,,
frame_00123.png,1771860998645823800,1771860998.6458237,42.30064357854922,-83.69862691695756,236.96844482421875,0.7138317382183446,0.7001000334816573,-0.017394394293970335,-0.0012758049636217871,0.01818,0.004240000000000001,-0.0034100000000000007,-0.4686,0.20600000000000002,-10.5142,8.453648232643088,18.91030387752863,23.670000076293945,23.69999885559082,23.649999618530273,23.69999885559082,19.220258299351386,19.244617584729195,19.204017743243067,19.244617584729195,19.228377803013213,0.016820138245507245,1.899999976158142,0.0,0.0,0.0,0.0,0.0,0.0,,,,,
frame_00124.png,1771860998695807709,1771860998.6958077,42.300648135769734,-83.69862689422246,236.97215270996094,0.713694246433491,0.7002375542591944,-0.01750599329598119,-0.0011959981412178592,-0.014380000000000002,-0.012010000000000002,-0.008990000000000001,-0.2868,-0.36250000000000004,-10.366100000000001,8.440976319396894,18.881957567911687,23.600000381469727,23.6299991607666,23.579999923706055,23.59000015258789,19.163417901756937,19.187777187134742,19.14717734564861,19.155297623702776,19.163417514560766,0.014906290602378894,1.899999976158142,0.0,0.0,0.0,0.0,0.0,0.0,,,,,
frame_00125.png,1771860998766991854,1771860998.7669919,42.30065268852212,-83.69862687127252,236.97767639160156,0.7135450387442949,0.7003800066497503,-0.017904356665874907,-0.000870621088472088,0.018880000000000004,-0.029650000000000003,-0.012450000000000001,-0.3433,-0.77,-10.349,8.427442225065718,18.851682610938507,23.529998779296875,23.649999618530273,23.600000381469727,23.59000015258789,19.106575955377807,19.204017743243067,19.163417901756937,19.155297623702776,19.157327306020147,0.01621312544824471,1.600000023841858,0.0,0.0,0.0,0.0,0.0,0.0,,,,,
frame_00126.png,1771860998805551068,1771860998.805551,42.30065571891264,-83.69862686405611,236.9823455810547,0.7135030433605217,0.7004146948301344,-0.018223148820084967,-0.0007610705383364999,0.027640000000000005,-0.023070000000000004,-0.00759,-0.4829,-0.10830000000000001,-9.3755,8.413699959672352,18.82094198778947,23.5,23.5,23.600000381469727,23.529998779296875,19.08221667,19.08221667,19.163417901756937,19.106575955377807,19.108606799283685,0.015284294042287726,1.399999976158142,0.0,0.0,0.0,0.0,0.0,0.0,,,,,
frame_00127.png,1771860998859162281,1771860998.8591623,42.30066025601265,-83.69862685754164,236.98904418945312,0.71345696608897,0.7004590131707885,-0.018332739083336443,-0.0004889628101280804,-0.0010600000000000002,-0.012340000000000002,-0.008350000000000002,-0.8973000000000001,-0.0402,-9.922,8.395733027722352,18.78075103903324,23.51999855041504,23.6299991607666,23.600000381469727,23.420000076293945,19.098455677323646,19.187777187134742,19.163417901756937,19.017255994351387,19.116726690141675,0.017889361847678743,1.2000000476837158,21.17500114440918,0.0,0.0,0.0,0.0,0.0,,,,,
frame_00128.png,1771860998898369358,1771860998.8983693,42.30066327804667,-83.69862686269691,236.9929656982422,0.7134083578809834,0.7005089535026618,-0.01832143696553675,-0.00021427944832077105,-0.024020000000000003,-0.007760000000000001,-0.00415,-0.6884,-0.42100000000000004,-9.844700000000001,8.385769717939386,18.75846371284733,23.369998931884766,23.44999885559082,23.549999237060547,23.51999855041504,18.976654604080583,19.041615279729196,19.122816511486132,19.098455677323646,19.05988551815489,0.01606857629290401,1.0,32.82500076293945,0.0,0.0,0.0,0.0,0.0,,,,,
frame_00129.png,1771860998949131920,1771860998.949132,42.300667798236425,-83.69862685764814,236.99781799316406,0.713340748746989,0.7005769781182198,-0.018352984025999757,-0.00020465866614178093,-0.006390000000000001,-0.014220000000000002,-0.00229,-0.252,-1.4901,-9.9054,8.374691810715339,18.733683099061572,23.40999984741211,23.5,23.3799991607666,23.56999969482422,19.009135716297227,19.08221667,18.98477488213474,19.13905706759445,19.053796084006606,0.017087562720705433,0.6000000238418579,37.45000076293945,0.0,0.0,0.0,0.0,0.0,,,,,
frame_00130.png,1771860998999489587,1771860998.9994895,42.30067080517375,-83.69862684912472,237.00050354003906,0.7132250526380408,0.7006915031205737,-0.018472325766443642,-0.00046359990633935494,0.01157,0.005690000000000001,-0.009680000000000001,-0.1134,-1.358,-9.5021,8.361497038303856,18.70416718486343,23.420000076293945,23.399999618530273,23.529998779296875,23.549999237060547,19.017255994351387,19.001015438243066,19.106575955377807,19.122816511486132,19.061915974864597,0.019126689066951884,0.4000000059604645,32.125,0.0,0.0,0.0,0.0,0.0,,,,,
frame_00131.png,1771860999049879552,1771860999.0498796,42.30067532267365,-83.69862682915308,237.00381469726562,0.7131452469826493,0.7007710920691439,-0.0185211063509247,-0.0008377623847625005,0.020730000000000002,0.004730000000000001,-0.005880000000000001,0.3668,-0.9675,-9.4633,8.372643470958373,18.729101085925624,23.420000076293945,23.369998931884766,23.56999969482422,23.559999465942383,19.017255994351387,18.976654604080583,19.13905706759445,19.130936789540293,19.06597611389168,0.01798671630958344,0.4000000059604645,19.825000762939453,0.0,0.0,0.0,0.0,0.0,,,,,
frame_00132.png,1771860999099303568,1771860999.0993037,42.300678342555074,-83.69862681937272,237.0052490234375,0.7131684699950133,0.7007513956680587,-0.018342611625480433,-0.0013279582058832924,0.014140000000000002,0.018840000000000003,0.0007100000000000001,0.5079,-0.14,-9.931600000000001,8.39572250567231,18.78072750183862,23.779998779296875,23.65999984741211,23.60999870300293,23.600000381469727,19.309578260377805,19.212138021297225,19.17153663102642,19.163417901756937,19.214167703614596,0.023078988912093153,0.30000001192092896,0.0,0.0,0.0,0.0,0.0,0.0,,,,,
frame_00133.png,1771860999150398107,1771860999.1503983,42.3006813727854,-83.69862681618025,237.00637817382812,0.7132022743219671,0.7007237753903293,-0.018055650302723054,-0.0016431667117095213,-0.01734,0.012060000000000003,0.006220000000000002,0.7698,-0.2566,-9.6036,8.44612609579367,18.89347730872469,23.760000228881836,23.76999855041504,23.68000030517578,23.65999984741211,19.29333925305416,19.301457982323647,19.22837857740555,19.212138021297225,19.258828458520146,0.01933742231911654,0.20000000298023224,0.0,0.0,0.0,0.0,0.0,0.0,,,,,
frame_00134.png,1771860999208857397,1771860999.2088573,42.30068747667689,-83.6986268151784,237.00987243652344,0.7132189496594131,0.7007270328896973,-0.017238992314416345,-0.0017811143444503197,-0.017270000000000004,0.020070000000000005,-0.0028000000000000004,0.5696,-0.6189,-10.5446,8.498002090189523,19.009520795628553,23.8799991607666,23.829999923706055,23.81999969482422,23.85999870300293,19.390779492134744,19.350179650648617,19.342059372594452,19.374538936026422,19.36438936285106,0.018667938610220664,0.0,0.0,0.0,0.0,0.0,0.0,0.0,,,,,
frame_00135.png,1771860999251089402,1771860999.2510893,42.30069054440181,-83.69862681006524,237.01248168945312,0.7131843844574198,0.7007650526988694,-0.017127767362812067,-0.0017361645104330245,0.005280000000000001,-0.0029700000000000004,-0.0050100000000000006,0.6376000000000001,-0.3539,-10.4008,8.53484287003509,19.091931409696297,23.90999984741211,23.869998931884766,23.84000015258789,23.90999984741211,19.415140326297227,19.382659214080583,19.358299928702774,19.415140326297227,19.39280994884445,0.01575946051195984,-0.4000000059604645,0.0,0.0,0.0,0.0,0.0,0.0,,,,,
frame_00136.png,1771860999301269158,1771860999.3012693,42.30069362529641,-83.69862679593741,237.0162353515625,0.7131096235264799,0.700834199817272,-0.017421731075433124,-0.001603897359935939,-0.005740000000000001,-0.027360000000000002,-0.0016700000000000003,0.6997,-0.8193,-10.3252,8.571549318306957,19.174041532093565,24.010000228881836,24.01999855041504,23.920000076293945,23.979999542236328,19.496341558054162,19.504460287323646,19.423260604351388,19.47198072389168,19.474010793405217,0.0156445505142754,-0.699999988079071,0.0,0.0,0.0,0.0,0.0,0.0,,,,,
frame_00137.png,1771860999352450262,1771860999.3524504,42.30069825619908,-83.69862677929885,237.02239990234375,0.7130900953014044,0.7008479933302931,-0.01768665784077711,-0.0013372966605854236,-0.011850000000000001,-0.02187,0.0035700000000000007,-0.2403,-0.9372,-10.6271,8.580810733388649,19.194758761946407,23.989999771118164,23.989999771118164,24.0,24.059999465942383,19.48010100194584,19.48010100194584,19.48822128,19.53694139954029,19.496341170857995,0.015711706130398247,-0.6000000238418579,0.0,0.0,0.0,0.0,0.0,0.0,,,,,
frame_00138.png,1771860999401915089,1771860999.401915,42.30070135038269,-83.69862677501256,237.02618408203125,0.7131205701013645,0.7008167336306693,-0.017712216611243906,-0.0011116403468809885,-0.004240000000000001,-0.0036400000000000004,0.0012700000000000003,0.054200000000000005,-0.772,-9.747900000000001,8.591629981006207,19.218960769712027,24.06999969482422,24.059999465942383,24.1299991607666,24.059999465942383,19.54506167759445,19.53694139954029,19.593781797134746,19.53694139954029,19.553181568452445,0.01739015978778263,-0.6000000238418579,0.0,0.0,0.0,0.0,0.0,0.0,,,,,
frame_00139.png,1771860999453030749,1771860999.4530306,42.30070599375099,-83.69862676296192,237.03114318847656,0.7131501601117716,0.7007837933808808,-0.01783216663408021,-0.0009684525761079133,0.008040000000000002,-0.012490000000000003,0.0004700000000000001,-0.0762,-0.8607,-9.5668,8.598092969460412,19.233418087104774,24.06999969482422,24.0,24.10999870300293,23.869998931884766,19.54506167759445,19.48822128,19.57754124102642,19.382659214080583,19.498370853175366,0.013775646370846214,-0.699999988079071,0.0,0.0,0.0,0.0,0.0,0.0,,,,,
frame_00140.png,1771860999502977261,1771860999.5029774,42.300709090174124,-83.69862675568865,237.0341796875,0.7131580183138122,0.7007736400958909,-0.017924744593950673,-0.0008060972104739203,0.013720000000000001,-0.006,-0.00483,0.0844,-0.5283,-9.6858,8.601048317716737,19.24002902383328,24.06999969482422,24.029998779296875,24.03999900817871,24.01999855041504,19.54506167759445,19.51258056537781,19.52070084343197,19.504460287323646,19.520700843431968,0.01458791040548898,-0.9000000357627869,0.0,0.0,0.0,0.0,0.0,0.0,,,,,
frame_00141.png,1771860999553925474,1771860999.5539253,42.30071373588858,-83.69862674025788,237.0382537841797,0.713180261478444,0.7007457443520233,-0.018140123276067094,-0.0005023321569456473,0.007440000000000001,-0.012480000000000002,-0.00046000000000000007,0.1691,0.2472,-9.518,8.599213197381113,19.23592396974971,23.94999885559082,23.959999084472656,24.010000228881836,24.049999237060547,19.447619889729197,19.455740167783357,19.496341558054162,19.528821121486132,19.48213068426321,0.01279931834315236,-1.2000000476837158,0.0,0.0,0.0,0.0,0.0,0.0,,,,,
frame_00142.png,1771860999603941256,1771860999.6039414,42.30071683255077,-83.69862672629014,237.04055786132812,0.713253797560151,0.7006626387714191,-0.018458116095169497,-0.00042993733561790367,0.00288,-0.00035000000000000005,0.012570000000000003,-0.5649000000000001,0.7121000000000001,-9.6941,8.581190905933195,19.1956091851182,24.03999900817871,24.0,24.049999237060547,24.029998779296875,19.52070084343197,19.48822128,19.528821121486132,19.51258056537781,19.512580952573977,0.016512722487677805,-1.8000000715255737,0.0,0.0,0.0,0.0,0.0,0.0,,,,,
frame_00143.png,1771860999655289699,1771860999.6552896,42.30072147044088,-83.6986267110677,237.043701171875,0.7133826360692817,0.7005257997939679,-0.018670333607112587,-0.0004868478855550588,0.007790000000000001,0.00395,0.008860000000000002,-0.393,0.19590000000000002,-10.118500000000001,8.569346292239073,19.169113494961273,24.06999969482422,24.0,24.100000381469727,23.94999885559082,19.54506167759445,19.48822128,19.569422511756937,19.447619889729197,19.512581339770147,0.01791777407438047,-2.200000047683716,0.0,0.0,0.0,0.0,0.0,0.0,,,,,
frame_00144.png,1771860999704816293,1771860999.7048163,42.30072455761263,-83.6986267062895,237.04600524902344,0.7135609035649717,0.7003429590123035,-0.018718319011703073,-0.0004485519014317284,0.00289,0.011540000000000002,0.011050000000000003,-0.443,0.4394,-9.877600000000001,8.558193457491807,19.144165272801725,23.989999771118164,23.959999084472656,24.03999900817871,23.969999313354492,19.48010100194584,19.455740167783357,19.52070084343197,19.463860445837515,19.48010061474967,0.017547662024481728,-2.9000000953674316,0.0,0.0,0.0,0.0,0.0,0.0,,,,,
frame_00145.png,1771860999756713476,1771860999.7567134,42.30072918487766,-83.69862669159116,237.05001831054688,0.7136946894006365,0.7002058219439915,-0.018751007759705132,-0.0003113600224448694,-0.011210000000000001,-0.004090000000000001,0.010290000000000002,-0.0844,-0.0511,-9.9387,8.552136081299688,19.130615285702525,23.94999885559082,23.90999984741211,23.969999313354492,23.939998626708984,19.447619889729197,19.415140326297227,19.463860445837515,19.439499611675036,19.441530068384743,0.016252210294280686,-4.200000286102295,0.0,0.0,0.0,0.0,0.0,0.0,,,,,
frame_00146.png,1771860999806433422,1771860999.8064334,42.30073226484665,-83.69862668137911,237.05300903320312,0.7138567561828986,0.700038496929858,-0.018831482455836494,-9.867487321355395e-05,-0.00931,-0.013310000000000002,0.012690000000000002,-0.5109,-0.2948,-9.3596,8.54160267813367,19.107052694824333,23.799999237060547,23.84000015258789,23.90999984741211,23.899999618530273,19.32581881648613,19.358299928702774,19.415140326297227,19.407020048243066,19.3765697799323,0.014105633632390275,-5.5,0.0,0.0,0.0,0.0,0.0,0.0,,,,,
frame_00147.png,1771860999866225186,1771860999.8662252,42.30073687972601,-83.69862666064427,237.05712890625,0.7141523490037754,0.6997302345618295,-0.019079210730198956,7.050070473624399e-05,-0.0022700000000000003,-0.014190000000000001,0.019530000000000002,-0.37570000000000003,-0.1898,-9.5786,8.534382104185559,19.090900704136846,23.90999984741211,23.799999237060547,23.920000076293945,23.8799991607666,19.415140326297227,19.32581881648613,19.423260604351388,19.390779492134744,19.38874980981737,0.015601626675266387,-7.300000190734863,0.0,0.0,0.0,0.0,0.0,0.0,,,,,
frame_00148.png,1771860999908791013,1771860999.908791,42.3007414890589,-83.69862663982884,237.06002807617188,0.7144498928660401,0.6994208635399509,-0.01928115877879966,0.00020771345590946596,-0.007100000000000001,-0.010320000000000001,0.026730000000000004,-0.7073,-0.8122,-9.4867,8.524391803752327,19.068553001485732,23.90999984741211,23.78999900817871,23.90999984741211,23.76999855041504,19.415140326297227,19.31769853843197,19.415140326297227,19.301457982323647,19.36235929333752,0.015407896541960744,-8.600000381469727,0.0,0.0,0.0,0.0,0.0,0.0,,,,,
frame_00149.png,1771860999967249825,1771860999.9672499,42.300744555403796,-83.69862662370608,237.06106567382812,0.7150059261717663,0.6988594788461179,-0.019019334370003797,0.0004682801609734786,-0.012220000000000002,0.010990000000000003,0.027370000000000005,-0.8651000000000001,-0.1379,-9.4064,8.498930135578211,19.011596777480325,23.90999984741211,23.799999237060547,23.869998931884766,23.76999855041504,19.415140326297227,19.32581881648613,19.382659214080583,19.301457982323647,19.356269084796896,0.01812958224134249,-10.699999809265137,0.0,0.0,0.0,0.0,0.0,0.0,,,,,
frame_00150.png,1771861000016885118,1771861000.016885,42.300749145315066,-83.69862658765975,237.06214904785156,0.7154948771842022,0.698367306179578,-0.018711717579860947,0.000240848198257476,0.0023800000000000006,0.01897,0.026860000000000005,-0.8072,-0.3185,-9.7515,8.480619531109891,18.97063705392096,23.920000076293945,23.779998779296875,23.850000381469727,23.75,19.423260604351388,19.309578260377805,19.366420206756935,19.285218975,19.34611951162153,0.019792822804701952,-12.800000190734863,0.0,0.0,0.0,0.0,0.0,0.0,,,,,
frame_00151.png,1771861000059352429,1771861000.0593524,42.30075219987132,-83.69862655289378,237.06321716308594,0.7159422816444878,0.697917370767071,-0.01838430978855241,-0.00010044332697632719,0.008510000000000002,0.022160000000000003,0.031000000000000003,-0.5431,-0.0179,-10.1666,8.471214861254849,18.949599371735424,23.8799991607666,23.739999771118164,23.799999237060547,23.689998626708984,19.390779492134744,19.277098696945842,19.32581881648613,19.236497306675037,19.307548578060437,0.018889539525511995,-14.600000381469727,0.0,0.0,0.0,0.0,0.0,0.0,,,,,
frame_00152.png,1771861000109148638,1771861000.1091487,42.300756776413266,-83.69862649226289,237.06594848632812,0.7166162335768336,0.6972336818407127,-0.01806036965073523,-0.0004355790119840621,-0.0018400000000000003,0.017470000000000003,0.03871000000000001,0.0883,-0.5224,-10.1096,8.466906837946313,18.939962582075626,23.809999465942383,23.579999923706055,23.899999618530273,23.689998626708984,19.33393909454029,19.14717734564861,19.407020048243066,19.236497306675037,19.28115844877675,0.018014600885432823,-16.5,0.0,0.0,0.0,0.0,0.0,0.0,,,,,
frame_00153.png,1771861000159881241,1771861000.159881,42.30075982322039,-83.69862644731154,237.0685272216797,0.7175007969582023,0.6963275751694981,-0.017892454458273484,-0.0006119610853729085,-0.009290000000000001,0.007280000000000001,0.05457000000000001,-0.7291000000000001,0.11720000000000001,-10.0828,8.450136585615759,18.902448533827318,23.829999923706055,23.579999923706055,23.829999923706055,23.60999870300293,19.350179650648617,19.14717734564861,19.350179650648617,19.17153663102642,19.254768319493067,0.018638843800328136,-18.5,0.0,0.0,0.0,0.0,0.0,0.0,,,,,
frame_00154.png,1771861000210141599,1771861000.2101417,42.300764386991716,-83.69862636831994,237.07220458984375,0.7185128264104639,0.6952888737726087,-0.01766455980305102,-0.000814627908260433,-0.0049700000000000005,0.017900000000000003,0.06191000000000001,-0.4899,-0.2851,-9.059800000000001,8.434020632883954,18.86639811452343,23.799999237060547,23.60999870300293,23.90999984741211,23.6299991607666,19.32581881648613,19.17153663102642,19.415140326297227,19.187777187134742,19.27506824023613,0.021661269057929172,-20.80000114440918,0.0,0.0,0.0,0.0,0.0,0.0,,,,,
frame_00155.png,1771861000260721372,1771861000.2607214,42.300767425244,-83.69862630630003,237.0736846923828,0.719620358881957,0.6941536499019939,-0.017218100186846306,-0.000886812437488016,-0.031740000000000004,0.008350000000000002,0.07005,-1.4716,-0.0974,-9.81,8.423067120797922,18.841895765197705,23.84000015258789,23.56999969482422,23.799999237060547,23.5,19.358299928702774,19.13905706759445,19.32581881648613,19.08221667,19.22634812069584,0.020404122827610793,-23.80000114440918,0.0,0.0,0.0,0.0,0.0,0.0,,,,,
frame_00156.png,1771861000310870729,1771861000.310871,42.30077197851266,-83.69862619183903,237.07640075683594,0.7208476184799089,0.6928939332142573,-0.016620429158350512,-0.0006852600326615913,-0.02288,0.02329,0.07908000000000001,-0.8925000000000001,-0.0925,-10.369200000000001,8.411281416406842,18.815531851617123,23.850000381469727,23.399999618530273,23.729999542236328,23.420000076293945,19.366420206756935,19.001015438243066,19.26897841889168,19.017255994351387,19.163417514560766,0.018489281391944466,-27.100000381469727,0.0,0.0,0.0,0.0,0.0,0.0,,,,,
frame_00157.png,1771861000361768629,1771861000.3617687,42.30077500859008,-83.698626104662,237.07864379882812,0.7222108210834006,0.6914828783539738,-0.016209851057336813,-0.00044674606106862117,-0.009150000000000002,0.005190000000000001,0.08131000000000001,-0.5949,0.2197,-10.1407,8.402526104232985,18.795946743602933,23.799999237060547,23.35999870300293,23.739999771118164,23.34000015258789,19.32581881648613,18.968534326026422,19.277098696945842,18.952295318702777,19.130936789540293,0.017822461965177228,-29.899999618530273,0.0,0.0,0.0,0.0,0.0,0.0,,,,,
frame_00158.png,1771861000411631448,1771861000.4116313,42.300779549591475,-83.6986259483339,237.08270263671875,0.7237856057767192,0.6898377340783823,-0.016068469017635756,-0.00031908534868962355,-0.0036400000000000004,0.00022000000000000003,0.09776000000000001,-0.5891000000000001,0.7836000000000001,-10.070500000000001,8.391202218551578,18.77061589076677,23.729999542236328,23.329999923706055,23.68000030517578,23.31999969482422,19.26897841889168,18.944175040648613,19.22837857740555,18.936054762594452,19.094396699885074,0.01724934392150506,-32.10000228881836,0.0,0.0,0.0,0.0,0.0,0.0,,,,,
frame_00159.png,1771861000462726985,1771861000.4627268,42.30078257340732,-83.6986258337358,237.0860595703125,0.7258733283527855,0.687640706008831,-0.016067361277060377,0.00010260271931775375,-0.008740000000000001,-0.01233,0.10563000000000002,-0.31920000000000004,0.8274,-9.757900000000001,8.382337912931968,18.75078697095404,23.760000228881836,23.279998779296875,23.69999885559082,23.189998626708984,19.29333925305416,18.90357365037781,19.244617584729195,18.830492696675037,19.06800579620905,0.016917627283932146,-34.60000228881836,0.0,0.0,0.0,0.0,0.0,0.0,,,,,
frame_00160.png,1771861000512561398,1771861000.5125613,42.300787100442015,-83.69862562086742,237.09202575683594,0.7273585260320921,0.6860668810897509,-0.016174026354384464,0.0004584230486795794,-0.007500000000000001,-0.01701,0.11217,-0.5639000000000001,1.1426,-10.117700000000001,8.368419661840877,18.719652678358333,23.65999984741211,23.15999984741211,23.649999618530273,23.049999237060547,19.212138021297225,18.80613341129723,19.204017743243067,18.716811901486132,18.98477526933091,0.014162794338544747,-37.79999923706055,0.0,0.0,0.0,0.0,0.0,0.0,,,,,
frame_00161.png,1771861000563661351,1771861000.5636613,42.30079011675938,-83.69862544842813,237.09658813476562,0.7296415927615876,0.6836363072994632,-0.01623839294694275,0.0009273881537153432,-0.009400000000000002,-0.013540000000000002,0.11335000000000002,-0.5057,0.5735,-9.940100000000001,8.349131430746136,18.67650606269326,23.649999618530273,23.09000015258789,23.639999389648438,23.15999984741211,19.204017743243067,18.749293013702776,19.195897465188906,18.80613341129723,18.988835408357993,0.01672311430287367,-41.900001525878906,0.0,0.0,0.0,0.0,0.0,0.0,,,,,
frame_00162.png,1771861000613614444,1771861000.6136143,42.300794625735385,-83.69862516955428,237.10293579101562,0.7317207736548209,0.681420283613323,-0.015796517919317958,0.0012555890861259465,-0.016960000000000003,0.04105,0.12280000000000002,-0.745,0.7030000000000001,-8.882200000000001,8.31744741168276,18.605630813089636,23.799999237060547,23.15999984741211,23.649999618530273,23.18000030517578,19.32581881648613,18.80613341129723,19.204017743243067,18.822373967405547,19.039585984607996,0.023323862323069353,-46.70000076293945,0.0,0.0,0.0,0.0,0.0,0.0,,,,,
frame_00163.png,1771861000664626960,1771861000.6646268,42.3007976229749,-83.69862496803786,237.10623168945312,0.7340698542181763,0.6789052050506129,-0.015049477523350908,0.0016385693653184546,-0.01794,0.03950000000000001,0.13899,-0.1177,0.6855,-9.4658,8.305102045582405,18.578014969845107,23.84000015258789,22.979999542236328,23.559999465942383,23.010000228881836,19.358299928702774,18.659971503891676,19.130936789540293,18.684332338054162,18.958385140047227,0.020474209479296773,-52.70000076293945,0.0,0.0,0.0,0.0,0.0,0.0,,,,,
frame_00164.png,1771861000714550292,1771861000.7145503,42.30080211635209,-83.6986246373889,237.1105194091797,0.7367632365739432,0.6759940411770058,-0.014406658840278273,0.0021065866533086595,-0.030240000000000003,-0.00036,0.16348000000000001,-1.2059,1.8964,-10.316600000000001,8.294903938106247,18.555202415307388,23.6299991607666,22.939998626708984,23.639999389648438,22.869998931884766,19.187777187134742,18.627490391675032,19.195897465188906,18.570649994080583,18.895453759519818,0.018337247775412794,-59.5,0.0,0.0,0.0,0.0,0.0,0.0,,,,,
frame_00165.png,1771861000765799456,1771861000.7657995,42.300805104592726,-83.69862439652653,237.1129608154297,0.7398058631012816,0.6726748233136036,-0.013749166730393236,0.0026129322990936905,-0.02578,0.010950000000000001,0.18691000000000002,-1.3275000000000001,1.6036000000000001,-9.9082,8.279679972952765,18.52114731869696,23.69999885559082,22.81999969482422,23.65999984741211,22.90999984741211,19.244617584729195,18.530050152594452,19.212138021297225,18.603131106297226,18.897484216229525,0.020319308035126677,-67.0,0.0,0.0,0.0,0.0,0.0,0.0,,,,,
frame_00166.png,1771861000815865945,1771861000.8158658,42.30080957527536,-83.6986239767743,237.11683654785156,0.743129593235956,0.6690101207181613,-0.013156976228678915,0.0032802454407321138,-0.023610000000000006,0.01169,0.20557000000000003,-1.1386,1.8711,-9.4811,8.265816362671654,18.49013525431473,23.760000228881836,22.670000076293945,23.60999870300293,22.739999771118164,19.29333925305416,18.40824907935139,19.17153663102642,18.46508947694584,18.834553610094453,0.01862714096152174,-75.20000457763672,0.0,0.0,0.0,0.0,0.0,0.0,,,,,
frame_00167.png,1771861000876034256,1771861000.8760343,42.30081402586807,-83.69862348294947,237.12033081054688,0.7474386669989315,0.6642020222098729,-0.012592147311234172,0.003542681649285129,-0.007070000000000001,0.023330000000000004,0.22024000000000005,-0.8430000000000001,1.298,-9.8693,8.23401680448046,18.41900155061452,23.579999923706055,22.6299991607666,23.60999870300293,22.559999465942383,19.14717734564861,18.375767967134742,19.17153663102642,18.318927569540293,18.753352378337517,0.018152494683504786,-85.80000305175781,0.0,0.0,0.0,0.0,0.0,0.0,,,,,
frame_00168.png,1771861000940428357,1771861000.9404283,42.30081845488473,-83.69862291808386,237.12408447265625,0.7522639121584728,0.6587482034640448,-0.011661431020111364,0.003717784755216933,-0.027640000000000005,0.01365,0.25814000000000004,-0.7744000000000001,1.1749,-10.6303,8.215830593775403,18.37832008843995,23.65999984741211,22.459999084472656,23.43000030517578,22.549999237060547,19.212138021297225,18.237726337783357,19.02537627240555,18.31080729148613,18.696511980743065,0.017313437287625636,-99.5,0.0,0.0,0.0,0.0,0.0,0.0,,,,,
frame_00169.png,1771861000979457388,1771861000.9794574,42.300821400457174,-83.69862249814052,237.12744140625,0.7557069350343565,0.654807943945751,-0.010871283116738932,0.003924294830063582,-0.028540000000000006,0.029730000000000003,0.26436000000000004,1.2022000000000002,0.39680000000000004,-10.4571,8.208747814260725,18.362476335632387,23.68000030517578,22.389999389648438,23.420000076293945,22.329999923706055,19.22837857740555,18.180885940188904,19.017255994351387,18.132165820648613,18.639671583148612,0.01509574430210852,-108.0,0.0,0.0,0.0,0.0,0.0,0.0,,,,,
frame_00170.png,1771861001026952669,1771861001.0269527,42.30082433042032,-83.6986220425923,237.13134765625,0.7603618164350957,0.6494051153635574,-0.01011962695275129,0.004527405162314297,-0.033850000000000005,0.00868,0.28863,-0.44320000000000004,1.0769,-10.630500000000001,8.171213590380148,18.27851452886497,23.439998626708984,22.28999900817871,23.619998931884766,22.350000381469727,19.033495001675035,18.09968470843197,19.17965690908058,18.148406376756938,18.61531074898613,0.018425798200904026,-116.20000457763672,0.0,0.0,0.0,0.0,0.0,0.0,,,,,
frame_00171.png,1771861001078205451,1771861001.0782053,42.30082871127743,-83.6986212860726,237.13851928710938,0.7653581702409067,0.6435245445959494,-0.008870564336997976,0.0049340486833924875,0.00491,0.04306000000000001,0.30591000000000007,1.2251,0.8094,-9.540600000000001,8.144285978954029,18.218279077761427,23.299999237060547,22.149999618530273,23.600000381469727,22.170000076293945,18.91981420648613,17.986003913243067,19.163417901756937,18.00224446935139,18.517870122709382,0.01644453044490129,-126.20000457763672,0.0,0.0,0.0,0.0,0.0,0.0,,,,,
frame_00172.png,1771861001131198597,1771861001.1311986,42.30083307133376,-83.6986204464498,237.14561462402344,0.7707031059632014,0.6371237148265059,-0.007557068828089145,0.005743272157505892,-0.00436,0.03193,0.3229,0.8602000000000001,2.762,-8.6228,8.12106703201075,18.166339686586127,23.709999084472656,21.969999313354492,23.53999900817871,22.059999465942383,19.252737862783356,17.839842005837518,19.11469623343197,17.912922959540293,18.530049765398285,0.02002109864106077,-138.10000610351562,0.0,0.0,0.0,0.0,0.0,0.0,,,,,
frame_00173.png,1771861001178901993,1771861001.178902,42.3008359571218,-83.69861983276353,237.1504364013672,0.7763526481881801,0.6302323940719827,-0.006796530219195866,0.00612391137071257,-0.014010000000000002,0.013590000000000001,0.35891,-0.6461,4.3659,-9.894300000000001,8.094795056731737,18.107570854205495,23.56999969482422,21.809999465942383,23.529998779296875,21.850000381469727,19.13905706759445,17.70992065454029,19.106575955377807,17.742401766756934,18.42448886106737,0.017501961439972572,-144.60000610351562,0.0,0.0,0.0,0.0,0.0,0.0,,,,,
frame_00174.png,1771861001228695271,1771861001.2286954,42.30084026896372,-83.69861880527552,237.1575469970703,0.7821714446781447,0.6230018894709494,-0.006597907083860728,0.005739727157609099,0.017070000000000002,0.03581,0.37677,-1.4978,4.1043,-9.3689,8.062088486761708,18.034408219576736,23.56999969482422,21.689998626708984,23.25,21.81999969482422,19.13905706759445,17.612478866675033,18.879214365000003,17.71804093259445,18.337197807965985,0.01678954943808827,-150.0,0.0,0.0,0.0,0.0,0.0,0.0,,,,,
frame_00175.png,1771861001271014117,1771861001.2710142,42.30084312676515,-83.69861805675811,237.16241455078125,0.7868701430907519,0.6170594091276925,-0.006361533075689945,0.0057091519728596895,-0.012370000000000003,0.022210000000000004,0.3771000000000001,0.060500000000000005,1.1248,-9.2025,8.053991304956698,18.016295309709836,23.279998779296875,21.579999923706055,23.35999870300293,21.59000015258789,18.90357365037781,17.523158905648614,18.968534326026422,17.531279183702775,18.231636516438904,0.011952579763332949,-152.6999969482422,0.0,0.0,0.0,0.0,0.0,0.0,,,,,
frame_00176.png,1771861001320705145,1771861001.320705,42.30084596916063,-83.698617267401,237.1664276123047,0.7926953565499473,0.6095537490879674,-0.005490317679904528,0.0069393867689207505,-0.08957000000000001,-0.025890000000000003,0.37112,-0.7637,0.7222000000000001,-10.125300000000001,8.04147243722907,17.988291353735196,23.059999465942383,21.69999885559082,23.18000030517578,21.60999870300293,18.724932179540293,17.620599144729194,18.822373967405547,17.54751819102642,18.178855870675363,0.010593808672139243,-154.5,0.0,0.0,0.0,0.0,0.0,0.0,,,,,
frame_00177.png,1771861001380774022,1771861001.3807743,42.300850204102886,-83.69861597905343,237.17306518554688,0.7993630495958061,0.6007686339553291,-0.00482356006923271,0.008514497319236074,-0.06992000000000001,-0.006790000000000001,0.38200000000000006,-2.1364,1.3760000000000001,-11.0311,7.999701427050126,17.89485211022551,23.15999984741211,21.53999900817871,23.279998779296875,21.489999771118164,18.80613341129723,17.49067779343197,18.90357365037781,17.45007795194584,18.16261570176321,0.014963163142583058,-157.60000610351562,0.0,0.0,0.0,0.0,0.0,0.0,,,,,
frame_00178.png,1771861001422071602,1771861001.4220715,42.30085300962203,-83.69861505321181,237.1775665283203,0.8038369645526259,0.5947551409496148,-0.004092987830652025,0.00978285149853117,-0.005560000000000001,0.017230000000000002,0.36509,-1.9187,6.593,-9.4639,7.966741570923136,17.821122889660803,23.369998931884766,21.31999969482422,23.209999084472656,21.420000076293945,18.976654604080583,17.31203632259445,18.846733252783356,17.393237554351387,18.132165433452442,0.01745358840278779,-161.0,0.0,0.0,0.0,0.0,0.0,0.0,,,,,
frame_00179.png,1771861001472906119,1771861001.4729064,42.30085716724528,-83.69861356470554,237.18600463867188,0.8093656687747907,0.5871974692124442,-0.003089321835715592,0.010807518208719462,-0.05159000000000001,0.010990000000000003,0.37566000000000005,-0.3281,4.256600000000001,-9.882900000000001,7.933845040253873,17.7475353243455,23.26999855041504,21.31999969482422,23.09000015258789,21.279998779296875,18.895453372323647,17.31203632259445,18.749293013702776,17.279555210377808,18.05908447974967,0.017554502623065602,-167.5,0.0,0.0,0.0,0.0,0.0,0.0,,,,,
frame_00180.png,1771861001531653260,1771861001.5316534,42.300861273467504,-83.69861196315681,237.1952362060547,0.8161964416672892,0.57765031826966,-0.0013955456134450437,0.011896674537732826,0.0018700000000000004,0.028090000000000004,0.39002000000000003,-0.7415,5.6384,-9.4603,7.874684577194887,17.615196918110332,23.18000030517578,21.1299991607666,23.029998779296875,21.260000228881836,18.822373967405547,17.157754137134745,18.700571345377806,17.263316203054163,17.986003913243064,0.021050403061432823,-177.8000030517578,0.0,0.0,0.0,0.0,0.0,0.0,,,,,
frame_00181.png,1771861001582086424,1771861001.5820863,42.30086397704902,-83.69861079973947,237.20172119140625,0.8217408505910335,0.5697677958479782,-0.0013530901910077907,0.010237305866124553,0.07143000000000001,0.030150000000000003,0.38032000000000005,-0.39280000000000004,4.1449,-10.336400000000001,7.847383282679754,17.55412556035765,22.6299991607666,21.020000457763672,23.10999870300293,21.079999923706055,18.375767967134742,17.068434176108322,18.76553202102642,17.117154295648614,17.831722114979524,0.015813750087829325,-189.60000610351562,0.0,0.0,0.0,0.0,0.0,0.0,,,,,
frame_00182.png,1771861001632405444,1771861001.6324055,42.30086799049512,-83.69860895683426,237.2119140625,0.8279367395188966,0.5607649291019169,-0.0022177776050973166,0.007650562504511105,0.062090000000000006,0.00116,0.3539900000000001,-0.8292,2.4425000000000003,-9.4823,7.812470215259934,17.476027123323558,22.469999313354492,20.719999313354492,23.25,21.049999237060547,18.245846615837518,16.824830480837516,18.879214365000003,17.092793461486128,17.76067123079029,0.016287689728224652,-203.1999969482422,0.0,0.0,0.0,0.0,0.0,0.0,,,,,
frame_00183.png,1771861001683302381,1771861001.6833024,42.30087064265623,-83.69860768762013,237.2172393798828,0.8329683827300607,0.5532765726296374,-0.0018642332917278661,0.006725487752010022,-0.009850000000000003,0.021970000000000003,0.3703,-0.8984000000000001,0.9298000000000001,-9.959900000000001,7.7692358128911705,17.379314359288777,22.44999885559082,20.60999870300293,22.729999542236328,21.020000457763672,18.229606059729196,16.735508971026423,18.456969198891677,17.068434176108322,17.622629601438906,0.01400027855644851,-216.10000610351562,0.0,0.0,0.0,0.0,0.0,0.0,,,,,
frame_00184.png,1771861001733345139,1771861001.733345,42.30087459277434,-83.69860574118397,237.22256469726562,0.8380622802215225,0.5455267154686391,-0.00014762925540715618,0.007224637395986269,-0.06312000000000001,0.015290000000000003,0.38276000000000004,-0.1889,2.1372,-8.7919,7.739546611652949,17.31290139747095,22.35999870300293,20.479999542236328,22.489999771118164,20.85999870300293,18.15652510602642,16.62994845389168,18.262087171945836,16.93851127602642,17.49676800197259,0.010620207455724364,-226.5,0.0,0.0,0.0,0.0,0.0,0.0,,,,,
frame_00185.png,1771861001784212891,1771861001.784213,42.30087720089191,-83.69860441989073,237.22592163085938,0.8431830192160352,0.5375539570506149,0.0019526306491369134,0.008621287520139206,-0.07857000000000001,0.033460000000000004,0.38698000000000005,-0.3286,5.0296,-10.6354,7.694331289752163,17.211757435298203,22.329999923706055,20.299999237060547,22.489999771118164,20.68000030517578,18.132165820648613,16.48378654648613,18.262087171945836,16.79235091740555,17.417597614121533,0.011959277232270814,-235.10000610351562,0.0,0.0,0.0,0.0,1.0,0.0,,,,,
frame_00186.png,1771861001825211815,1771861001.825212,42.300879787095475,-83.69860304753384,237.230224609375,0.8472558743560935,0.5310767515479917,0.0037466878529612787,0.010046375687610298,-0.15357,0.028950000000000004,0.39643,-0.9677,3.7456,-8.9833,7.657878594333876,17.13021494280922,22.149999618530273,20.0,22.459999084472656,20.639999389648438,17.986003913243067,16.2401844,18.237726337783357,16.759869805188906,17.30594611405383,0.010258550276882387,-241.8000030517578,0.0,0.0,4.0,0.0,1.0,0.0,,,,,
frame_00187.png,1771861001885565262,1771861001.8855653,42.300883609640714,-83.69860089506786,237.2378692626953,0.8531956858479983,0.5214175030049327,0.005454847561771722,0.012294464142156803,-0.06292,-0.014810000000000002,0.37801000000000007,-0.2934,4.6841,-11.447600000000001,7.609644482668979,17.022318129061546,21.85999870300293,19.75,22.059999465942383,20.389999389648438,17.75052049602642,16.037182095000002,17.912922959540293,16.556867500188904,17.064373262688903,0.002470587925128627,-252.1999969482422,0.0,0.0,20.0,0.0,1.0,0.0,,,,,
frame_00188.png,1771861001935100533,1771861001.9351003,42.30088735906878,-83.6985986084498,237.25299072265625,0.8580390121870036,0.5134117860112264,0.004866126979154582,0.012398078808287872,0.04837000000000001,-0.03456000000000001,0.38090000000000007,-2.3839,3.5401000000000002,-9.546800000000001,7.557146847981067,16.90488407012277,21.59000015258789,19.439998626708984,22.079999923706055,20.229999542236328,17.531279183702775,15.785458121675035,17.929163515648614,16.426946148891677,16.918211742479524,0.0007883918222373636,-262.3000183105469,0.0,0.0,40.0,0.0,1.0,0.0,,,,,
frame_00189.png,1771861001986334595,1771861001.9863348,42.300889821015375,-83.69859703669425,237.2634735107422,0.8631296677389263,0.5048364993046952,0.0041928830734028755,0.011388826550780214,0.05332000000000001,-0.027840000000000004,0.40142,-0.6756,4.0705,-9.1308,7.516956235154578,16.814980080666682,21.15999984741211,19.139999389648438,21.959999084472656,19.899999618530273,17.182114971297228,15.541855975188904,17.831721727783357,16.158983168243065,16.67866896062814,0.008106528784727372,-272.8000183105469,0.0,0.0,72.0,0.0,1.0,0.0,,,,,
frame_00190.png,1771861002036199046,1771861002.036199,42.300893461481955,-83.6985946265881,237.27867126464844,0.868248367461306,0.49601155757918736,0.0031642477554112945,0.010358314765833774,0.02375,-0.03780000000000001,0.42853,-1.0186,2.5417,-8.3032,7.458500274433192,16.684217603890584,21.059999465942383,18.510000228881836,21.850000381469727,19.559999465942383,17.100913739540292,15.030290848054163,17.742401766756934,15.882899909540292,16.43912656597292,0.014689992886481618,-282.3000183105469,0.0,0.0,72.0,0.0,1.0,0.0,,,,,
frame_00191.png,1771861002078656499,1771861002.0786564,42.30089585905895,-83.69859300293103,237.2878875732422,0.8724427024505039,0.48860771882188725,0.002715891754845779,0.009942433329358341,-0.00787,-0.0011900000000000003,0.43346,-2.4888,-0.3521,-9.2215,7.387904752116441,16.526299656199352,21.010000228881836,18.85999870300293,21.850000381469727,19.329999923706055,17.06031389805416,15.314492836026421,17.742401766756934,15.696138160648614,16.45333666537153,0.004414962353684061,-289.3999938964844,0.0,0.0,84.0,0.0,1.0,0.0,,,,,
frame_00192.png,1771861002128667198,1771861002.128667,42.30089941564172,-83.69859056908301,237.2988739013672,0.8779983063477261,0.47849953016719937,0.004083939007171694,0.011853063843565733,-0.09794000000000001,-0.0018600000000000003,0.46792000000000006,-1.7409000000000001,2.8179000000000003,-9.7127,7.327039708769073,16.39014820613389,20.779998779296875,18.43000030517578,21.579999923706055,19.139999389648438,16.873550600377808,14.965330172405547,17.523158905648614,15.541855975188904,16.22597391340522,0.010016644795635812,-293.70001220703125,0.0,0.0,100.0,0.0,1.0,0.0,,,,,
frame_00193.png,1771861002179164961,1771861002.179165,42.300901754004435,-83.69858891947902,237.3060302734375,0.8836388364967787,0.4678849417644313,0.006013894887996714,0.01516314522089001,-0.13588,-0.029740000000000003,0.49731000000000003,-0.6812,4.808400000000001,-9.393500000000001,7.273437427724954,16.27024311957506,20.479999542236328,18.25,21.399999618530273,18.85999870300293,16.62994845389168,14.819168265,17.376996998243065,15.314492836026421,16.03515163829029,0.014449168310332484,-298.3000183105469,0.0,0.0,96.0,0.0,1.0,0.0,,,,,
frame_00194.png,1771861002228816321,1771861002.2288163,42.30090406824012,-83.69858726079514,237.3139190673828,0.8893653477843244,0.4567483643944906,0.007802996144348282,0.01869018551530235,-0.10995,-0.018040000000000004,0.5058900000000001,0.872,7.6028,-9.488100000000001,7.209824623640349,16.127945093606044,20.75,17.739999771118164,21.079999923706055,18.440000534057617,16.849191315,14.405043376945839,17.117154295648614,14.97345045045971,15.836209859513541,0.018088803775017922,-299.8000183105469,0.0,0.0,108.0,0.0,1.0,0.0,,,,,
frame_00195.png,1771861002280299829,1771861002.2802997,42.300907472872076,-83.69858466730791,237.32781982421875,0.894938942580585,0.44568022703149873,0.007103868260432195,0.020073847205621033,-0.026530000000000005,-0.05856000000000001,0.49989000000000006,0.0641,5.4236,-10.7672,7.164760119051227,16.027138500710453,20.3799991607666,17.029998779296875,20.989999771118164,17.93000030517578,16.548747222134743,13.828516025377809,17.04407334194584,14.559325562405549,15.495165537965985,0.03319201133258363,-301.70001220703125,0.0,0.0,116.0,0.0,1.0,0.0,,,,,
frame_00196.png,1771861002330609371,1771861002.3306093,42.300910775675945,-83.69858196197265,237.34339904785156,0.9003019751604572,0.4347838536586146,0.004795647411051292,0.019908688702506405,0.06910000000000001,-0.06561000000000002,0.48463000000000006,-2.4767,3.2275,-10.0218,7.063477684838063,15.80057577232166,18.270000457763672,17.260000228881836,20.829999923706055,17.559999465942383,14.835408821108322,14.01527932305416,16.914151990648616,14.258881469540292,15.005930401087847,0.050292178125927324,-303.5,2.875,0.0,124.0,0.0,1.0,0.0,,,,,
frame_00197.png,1771861002381279829,1771861002.3812797,42.30091291262492,-83.69858012140925,237.35304260253906,0.9054764073122732,0.424025975058852,0.0029159638130925826,0.017491295872194584,0.15741,0.015780000000000002,0.4729000000000001,-3.1581,2.0275000000000003,-7.8886,6.916174350959195,15.471067052634663,19.020000457763672,16.65999984741211,20.56999969482422,17.44999885559082,15.444415736108322,13.528073481297227,16.703029407594453,14.169559959729195,14.961269646182298,0.03295166420764414,-304.3000183105469,13.324999809265137,0.0,116.0,0.0,1.0,0.0,,,,,
frame_00198.png,1771861002431262726,1771861002.4312627,42.30091601804512,-83.69857733938086,237.36228942871094,0.9107486324872296,0.4127155832256223,0.0021197944333899805,0.01408127327112106,0.13446000000000002,0.022710000000000004,0.49470000000000003,-2.2642,2.3833,-8.9131,6.812249020795365,15.238592324577985,18.309999465942383,15.619999885559082,20.44999885559082,17.029998779296875,14.86788838454029,12.68358392347292,16.605587619729196,13.828516025377809,14.496393988280055,0.048705176993340454,-303.8999938964844,15.199999809265137,0.0,124.0,0.0,1.0,0.0,,,,,
frame_00199.png,1771861002481678259,1771861002.4816782,42.300918038222484,-83.69857545672433,237.36573791503906,0.9155934788878055,0.4019829736938153,0.0014058106563463431,0.009812949342653827,0.16123,0.009890000000000001,0.4680000000000001,-1.5790000000000002,1.2506000000000002,-10.101700000000001,6.744762496645284,15.087629019245702,18.53999900817871,13.859999656677246,20.10999870300293,17.020000457763672,15.05465013343197,11.254447510418759,16.32950436102642,13.820397296108322,14.114749825246367,0.06448191380887845,-303.3000183105469,15.324999809265137,0.0,124.0,0.0,1.0,0.0,,,,,
frame_00200.png,1771861002531695727,1771861002.5316956,42.30092102004106,-83.6985725860118,237.37171936035156,0.9200017780233631,0.391840225417991,0.0006630111684086874,0.007584628825410086,0.04689,-0.036140000000000005,0.4239400000000001,0.8021,2.6096,-9.953800000000001,6.720732636376481,15.033875663616007,16.329999923706055,13.679999351501465,19.809999465942383,17.190000534057617,13.260110500648613,11.108285603013211,16.08590221454029,13.95843892545971,13.603184310915456,0.09516450612685427,-302.5,15.02500057220459,0.0,116.0,0.0,1.0,0.0,,,,,
frame_00201.png,1771861002582822514,1771861002.5828223,42.30092298502296,-83.69857064559287,237.3778533935547,0.923780455847068,0.382789581512102,-0.00042551657874258936,0.010080903551484504,-0.18331000000000003,-0.11853000000000002,0.3828000000000001,-0.2853,1.8328,-10.444,6.671343334287269,14.923394758200565,15.09999942779541,15.0,19.5,17.3799991607666,12.261338757364596,12.180138300000001,15.83417979,14.112719562134744,13.597094102374836,0.0888739242856866,-302.1000061035156,14.975000381469727,0.0,116.0,0.0,1.0,0.0,,,,,
frame_00202.png,1771861002632803866,1771861002.632804,42.3009249256188,-83.69856868491162,237.38414001464844,0.9270016477164312,0.37468463854263473,-0.0012933334592795265,0.01666415493685807,-0.31527000000000005,-0.20347,0.34849,-2.4348,1.6178000000000001,-11.3628,6.617904314526194,14.803854877336224,15.829999923706055,14.969999313354492,19.100000381469727,17.34000015258789,12.854105890648613,12.155777465837517,15.509376411756936,14.080239998702774,13.649874941736458,0.07795131370589409,-302.8000183105469,15.800000190734863,0.0,116.0,0.0,1.0,0.0,,,,,
frame_00203.png,1771861002683918467,1771861002.6839185,42.300927753177305,-83.69856570509701,237.39451599121094,0.9298958339235861,0.36704801195439135,-0.0014146277101874747,0.023822128375286272,-0.20731000000000005,-0.09718000000000002,0.31853000000000004,-2.1060000000000003,2.7,-7.133,6.497054677835436,14.5335214910372,16.43000030517578,15.40999984741211,18.69999885559082,17.19999885559082,13.341311732405547,12.513061956297227,15.184571484729195,13.966557654729193,13.75137570704029,0.05381667371388675,-305.8999938964844,21.42500114440918,0.0,120.0,0.0,1.0,0.0,,,,,
frame_00204.png,1771861002733592456,1771861002.7335925,42.300930452228876,-83.69856268518934,237.39889526367188,0.9332786910701831,0.3579435523587513,-0.0010976178887827856,0.029429464047000267,-0.06569000000000001,-0.061720000000000004,0.30131,-0.9093,7.5765,-9.4489,6.36987940230281,14.249038030187249,16.469999313354492,15.859999656677246,18.53999900817871,17.079999923706055,13.373791295837517,12.878465950418759,15.05465013343197,13.869117415648613,13.794006198834214,0.031934214112491546,-309.20001220703125,22.625,0.0,116.0,0.0,1.0,0.0,,,,,
frame_00205.png,1771861002784349691,1771861002.7843497,42.30093214573866,-83.69856061867162,237.40155029296875,0.9357447615513961,0.3515128152724348,-0.0021853356532038834,0.028560571360720897,0.16296000000000002,-0.007620000000000001,0.25559000000000004,-1.0606,5.907900000000001,-10.4237,6.226302932591123,13.927866082030388,16.28999900817871,15.869999885559082,17.81999969482422,16.85999870300293,13.22762938843197,12.88658622847292,14.470004052594453,13.690474396026422,13.568673516381441,0.02578949018704119,-312.70001220703125,23.625,0.0,124.0,0.0,1.0,0.0,,,,,
frame_00206.png,1771861002834523233,1771861002.8345232,42.30093452985462,-83.69855744443487,237.4110870361328,0.9377060750085582,0.3466307977665667,-0.00531685089972018,0.022937698844220745,0.32872,-0.01617,0.16688,-1.9391,5.6432,-9.400400000000001,6.135409024891509,13.724541864140814,15.859999656677246,15.889999389648438,18.389999389648438,16.869998931884766,12.878465950418759,12.902826010188903,14.932849060188905,13.698594674080582,13.603183923719287,0.008842403748179633,-315.8000183105469,25.42500114440918,0.0,124.0,0.0,1.0,0.0,,,,,
frame_00207.png,1771861002885933163,1771861002.8859332,42.300936022284674,-83.69855526736295,237.41954040527344,0.9390816683202234,0.34324261211435064,-0.009574033092653244,0.014780640857696719,0.39748000000000006,0.013580000000000002,0.11631000000000002,-3.0140000000000002,2.6976,-9.801300000000001,6.032434582235172,13.494194214385148,15.529999732971191,14.559999465942383,17.799999237060547,17.34000015258789,12.610502969770145,11.822853809540293,14.45376349648613,14.080239998702774,13.241840068624835,0.018700942179363095,-319.3000183105469,25.850000381469727,0.0,116.0,0.0,1.0,0.0,,,,,
frame_00208.png,1771861002935780270,1771861002.9357803,42.30093819021326,-83.69855199365074,237.42803955078125,0.9399523803533083,0.34100632485813653,-0.012451957006064024,0.007011265336269752,0.27593000000000006,0.028820000000000002,0.07734,-2.6191,-0.8592000000000001,-6.0137,5.970653625064888,13.355993920052653,15.469999313354492,14.380000114440918,18.869998931884766,16.529998779296875,12.561782075837517,11.67669267652708,15.322613114080582,13.422511415377807,13.245899820455746,0.008243048046885667,-321.5,26.024999618530273,0.0,112.0,0.0,1.0,0.0,,,,,
frame_00209.png,1771861002985839358,1771861002.9858394,42.300939615147115,-83.69854983164836,237.42868041992188,0.9405781949245435,0.33931082414681846,-0.012542085976486496,0.0048497349054129205,-0.004110000000000001,0.027030000000000005,0.06890000000000002,-0.2442,-0.7904,-6.456,5.926252165193115,13.256670518407088,15.40999984741211,15.789999961853027,17.149999618530273,16.65999984741211,12.513061956297227,12.821625552824306,13.925957813243066,13.528073481297227,13.197179700915456,0.004487613794808288,-322.8000183105469,26.0,0.0,112.0,0.0,1.0,0.0,,,,,
frame_00210.png,1771861003036313595,1771861003.0363135,42.30094171533576,-83.69854662641075,237.42239379882812,0.9410313986879668,0.33808076259519343,-0.011477450891096176,0.005438084907748133,-0.0413,0.06859000000000001,0.04457000000000001,-0.7387,-1.8089000000000002,-8.41,5.859470187079982,13.107283240286694,16.0,16.520000457763672,16.719999313354492,16.369998931884766,12.99214752,13.414392686108322,13.576793600837517,13.292590064080583,13.318980967756605,0.016151152270764583,-324.0,26.375,0.0,116.0,0.0,1.0,0.0,,,,,
frame_00211.png,1771861003096161510,1771861003.0961616,42.300943778371085,-83.69854344869212,237.41444396972656,0.9415506310943725,0.3366152215686579,-0.008727553694205917,0.00981995420492596,-0.14194000000000004,0.013500000000000002,0.034010000000000006,-0.3766,-1.3508,-11.4329,5.779426147535338,12.9282295264677,15.889999389648438,15.269999504089355,16.170000076293945,16.239999771118164,12.902826010188903,12.399380386715984,13.130189149351388,13.18702954694584,12.904856273300528,0.001807923746969405,-326.1000061035156,26.825000762939453,0.0,120.0,0.0,1.0,0.0,,,,,
frame_00212.png,1771861003136979786,1771861003.1369798,42.300945117312374,-83.69854133943734,237.41062927246094,0.9418588568993062,0.3357504947516012,-0.007865516824740435,0.010565632942093443,0.005650000000000001,0.04582000000000001,0.02603,-0.743,-0.3295,-11.6003,5.706739256475558,12.765633312380436,14.59999942779541,14.880000114440918,15.899999618530273,15.889999389648438,11.855334147364598,12.082697286527083,12.910946288243066,12.902826010188903,12.437950933080913,0.02566910479730982,-327.3999938964844,26.55000114440918,0.0,116.0,0.0,1.0,0.0,,,,,
frame_00213.png,1771861003188699101,1771861003.1886992,42.30094707027914,-83.6985382039454,237.41087341308594,0.9422173430449408,0.33473598114841685,-0.00787211876256935,0.010785691267923255,0.010230000000000003,-0.014680000000000002,0.036460000000000006,-1.1051,2.3695,-12.353,5.603043976920368,12.533673193732248,14.269999504089355,15.019999504089355,15.899999618530273,15.75,11.587371166715984,12.196378081715984,12.910946288243066,12.789145215000001,12.370960187918758,0.012982068648068678,-328.3999938964844,26.67500114440918,0.0,128.0,0.0,1.0,0.0,,,,,
