image_filename,timestamp_ns,timestamp_sec,latitude,longitude,altitude,orientation_x,orientation_y,orientation_z,orientation_w,angular_velocity_x,angular_velocity_y,angular_velocity_z,linear_acceleration_x,linear_acceleration_y,linear_acceleration_z,vehicle_speed_mps,vehicle_speed_mph,wheel_speed_fl_rads,wheel_speed_fr_rads,wheel_speed_rl_rads,wheel_speed_rr_rads,wheel_speed_fl_mph,wheel_speed_fr_mph,wheel_speed_rl_mph,wheel_speed_rr_mph,avg_wheel_speed_mph,wheel_slip,steering_angle_deg,throttle_pedal,brake_pedal,brake_torque_actual,abs_active,esc_active,trac_active,marwis_road_condition,marwis_friction,marwis_surface_temp_c,marwis_ice_percent,marwis_water_film_height
frame_00000.png,1771858887830911227,1771858887.8309112,42.30087210895295,-83.69726901401162,238.5730438232422,0.011495022506419594,-0.9997751930013332,-0.01272783855175409,-0.01246715855856241,0.00136,0.021550000000000003,-0.00036,1.7034,0.20670000000000002,-9.717500000000001,0.1956065863249676,0.4375601972137731,0.0,0.0,0.0,0.0,0.0,0.0,0.0,0.0,0.0,0.0,-4.400000095367432,24.92500114440918,0.0,0.0,0.0,0.0,0.0,,,,,
frame_00001.png,1771858887860067455,1771858887.8600674,42.30087210895295,-83.69726901401162,238.5730438232422,0.011489480155385534,-0.99977681224295,-0.012729863168810593,-0.012339697353967097,-0.0008100000000000001,0.025380000000000003,0.0013900000000000002,1.6264,0.2167,-9.7844,0.2142170249236806,0.47919063173277815,0.0,0.0,0.0,0.0,0.0,0.0,0.0,0.0,0.0,0.0,-4.300000190734863,25.0,0.0,0.0,0.0,0.0,0.0,,,,,
frame_00002.png,1771858887907063041,1771858887.907063,42.300872101364696,-83.69726919740218,238.57119750976562,0.01149082841432647,-0.999786182493493,-0.012713905798099645,-0.011571808708977437,0.0008300000000000001,0.031100000000000003,0.0008900000000000001,2.3088,0.20020000000000002,-9.9295,0.3277375782334146,0.7331292982534545,1.090000033378601,1.0099999904632568,0.85999995470047,1.0799999237060547,0.8850900769037318,0.8201293044560766,0.698327892416364,0.876969895648613,0.8201292923561962,0.0,-4.300000190734863,25.575000762939453,0.0,0.0,0.0,0.0,0.0,,,,,
frame_00003.png,1771858887957602789,1771858887.9576027,42.300872091307745,-83.69726948452885,238.5699920654297,0.011500230604359285,-0.9997944254879501,-0.012685136247835566,-0.010859962138057929,0.0010800000000000002,0.01958,-0.00016,2.2495000000000003,0.267,-10.298200000000001,0.47318743780611455,1.05849190712601,1.4399999380111694,1.3700000047683716,1.3399999141693115,1.4800000190734863,1.1692932264644982,1.1124526352719617,1.0880922851046897,1.201773661087847,1.1429029519822491,0.07974651888027173,-4.300000190734863,26.100000381469727,0.0,0.0,0.0,0.0,0.0,,,,,
frame_00004.png,1771858888007600314,1771858888.0076003,42.30087208381488,-83.69726973581241,238.5702362060547,0.011506816377292006,-0.999797472002471,-0.012640573746342355,-0.010621866582227189,0.0019000000000000002,0.005870000000000001,-0.0011200000000000003,2.2701000000000002,0.186,-10.2062,0.5747575914614703,1.2856982466438216,2.0199999809265137,1.9399999380111694,1.9799998998641968,1.7899999618530273,1.6402586089121531,1.5752978364644983,1.6077781742888044,1.4534964728243065,1.5692077731224405,0.22051016031070306,-4.300000190734863,26.55000114440918,0.0,0.0,0.0,0.0,0.0,,,,,
frame_00005.png,1771858888058326053,1771858888.058326,42.30087206696422,-83.69727020682474,238.5714111328125,0.011506552114868784,-0.9997985795859994,-0.012635972423050907,-0.010522913910608464,-0.0014600000000000004,0.004370000000000001,0.0029700000000000004,2.3618,-0.0099,-10.0234,0.7301725783147678,1.6333522473354367,2.2799999713897705,2.4099998474121094,2.4800000190734863,2.2899999618530273,1.8513809983682301,1.9569420962972262,2.013782881087847,1.8595010828243066,1.9204017646444025,0.17574256733490462,-4.300000190734863,26.55000114440918,0.0,0.0,0.0,0.0,0.0,,,,,
frame_00006.png,1771858888108565597,1771858888.1085656,42.30087204332538,-83.69727078955215,238.5730438232422,0.01143605607270215,-0.9997992866249454,-0.012666417055868578,-0.01049594991979442,-0.00046000000000000007,-0.0005300000000000001,0.005200000000000001,2.5644,0.10310000000000001,-9.8099,0.860484682218616,1.9248526050421109,2.679999828338623,2.8399999141693115,2.8899998664855957,2.759999990463257,2.1761845702093794,2.3061061151046895,2.3467065373850726,2.241145439456077,2.2675356655388046,0.1780308058908213,-4.300000190734863,26.55000114440918,0.0,0.0,0.0,0.0,0.0,,,,,
frame_00007.png,1771858888159947105,1771858888.159947,42.300872033986465,-83.69727100954975,238.5734405517578,0.011340856191898396,-0.999801681820067,-0.012589563291284791,-0.01046350355926458,0.006950000000000001,0.003,0.004920000000000001,2.4811,0.2018,-9.7657,0.9683703533045057,2.1661863781209814,3.2799999713897705,3.2699999809265137,3.240000009536743,3.319999933242798,2.66339021836823,2.6552701339121536,2.6309098805439235,2.6958705561925367,2.661360197254211,0.22859243513605648,-4.300000190734863,26.274999618530273,0.0,0.0,0.0,0.0,0.0,,,,,
frame_00008.png,1771858888209260975,1771858888.209261,42.300871996789205,-83.69727202998249,238.57516479492188,0.011130343490853567,-0.9998094405519556,-0.01240021305150954,-0.010170189439636245,0.0034000000000000002,0.012500000000000002,0.0041400000000000005,2.4221,0.5239,-9.7926,1.1610547056319203,2.5972097132162677,3.619999885559082,3.5799999237060547,3.7200000286102295,3.5999999046325684,2.9394732834729194,2.906992945648613,3.0206743216317706,2.9232331145607664,2.947593416328517,0.1349077440028321,-4.300000190734863,25.899999618530273,0.0,0.0,0.0,0.0,0.0,,,,,
frame_00009.png,1771858888269999378,1771858888.2699993,42.30087197905743,-83.69727261514342,238.57562255859375,0.011128382487360255,-0.9998121999080312,-0.012332673935163558,-0.009981441373227536,0.0007000000000000001,0.0005000000000000001,-0.0012200000000000002,2.5093,0.3497,-10.0252,1.31259084491675,2.936186964628075,4.170000076293945,4.159999847412109,4.130000114440918,4.190000057220459,3.386078509351387,3.3779582312972263,3.3535981715270804,3.4023186782635406,3.3799883976098086,0.15114890105029458,-4.300000190734863,25.700000762939453,0.0,0.0,0.0,0.0,0.0,,,,,
frame_00010.png,1771858888310745176,1771858888.310745,42.30087196395358,-83.69727326487077,238.5763397216797,0.011179740723166243,-0.9998143198146832,-0.01220400104127236,-0.009869227398837239,0.008860000000000002,0.00302,-0.004390000000000001,2.9303000000000003,0.057300000000000004,-9.4992,1.399743372033549,3.1311419386367274,4.440000057220459,4.360000133514404,4.519999980926514,4.440000057220459,3.6053209832635402,3.540360307614927,3.6702816589121534,3.6053209832635402,3.6053209832635402,0.151439651705239,-4.300000190734863,25.850000381469727,0.0,0.0,0.0,0.0,0.0,,,,,
frame_00011.png,1771858888361144840,1771858888.3611448,42.300871939693984,-83.69727433941988,238.57691955566406,0.01130743826334668,-0.9998167347687914,-0.011906039209010295,-0.00984301511459822,0.014860000000000002,-0.0027600000000000003,-0.0055000000000000005,2.8121,0.0021000000000000003,-9.9501,1.5654524511014454,3.5018232059668675,4.849999904632568,4.880000114440918,4.869999885559082,4.730000019073486,3.9382446395607666,3.962605086527081,3.9544848084729196,3.8408036260878466,3.924034540162154,0.12056900344822297,-4.300000190734863,25.850000381469727,0.0,0.0,0.0,0.0,0.0,,,,,
frame_00012.png,1771858888412240715,1771858888.4122407,42.30087190472564,-83.69727552960605,238.57720947265625,0.011307034897564794,-0.9998184415758307,-0.011753670997834241,-0.009853226110127683,-0.009440000000000002,0.00041000000000000005,0.005420000000000001,2.6081000000000003,-0.5712,-9.989,1.6987664579705168,3.800038640492568,5.25,5.099999904632568,5.289999961853027,5.159999847412109,4.263048405,4.141246944560766,4.295528742824307,4.1899674512972265,4.222447885920575,0.11115919741628032,-4.0,26.0,0.0,0.0,0.0,0.0,0.0,,,,,
frame_00013.png,1771858888462343022,1771858888.462343,42.3008718538166,-83.69727683769798,238.57772827148438,0.011120711055744747,-0.9998171450132465,-0.011963750333663528,-0.00994359095747474,-0.021660000000000002,-0.004320000000000001,0.008520000000000002,2.7023,-0.5108,-9.9634,1.860284059374212,4.1613438237765505,5.609999656677246,5.509999752044678,5.519999980926514,5.609999656677246,4.555371445418758,4.474170600857992,4.482290878912154,4.555371445418758,4.516801092651915,0.08541886561845674,-4.0,25.975000381469727,0.0,0.0,0.0,0.0,0.0,,,,,
frame_00014.png,1771858888512357170,1771858888.5123572,42.30087183393175,-83.69727729906685,238.5779571533203,0.010993319741790852,-0.9998140929781176,-0.012245535552898023,-0.010048545288812265,-0.010270000000000001,-0.007500000000000001,0.0023600000000000006,2.6223,-0.6806,-10.002600000000001,1.9619473835964785,4.388758580262307,5.849999904632568,5.900000095367432,5.949999809265137,5.949999809265137,4.750253859560766,4.790854475439234,4.8314547041215326,4.8314547041215326,4.801004435810767,0.09393222434299883,-3.9000000953674316,25.67500114440918,0.0,0.0,0.0,0.0,0.0,,,,,
frame_00015.png,1771858888563527835,1771858888.5635278,42.30087177142183,-83.69727875474364,238.57887268066406,0.010838108531492752,-0.9998103930483025,-0.01260929617981588,-0.010135038525227628,-0.006150000000000001,-0.00096,0.00256,2.5607,-0.1602,-9.850900000000001,2.0844420301506865,4.662771754925277,6.460000038146973,6.409999847412109,6.329999923706055,6.359999656677246,5.245579592175694,5.204978976297226,5.140018300648613,5.164378360418758,5.188738807385072,0.11280137225336351,-3.799999952316284,25.825000762939453,0.0,0.0,0.0,0.0,0.0,,,,,
frame_00016.png,1771858888613036524,1771858888.6130366,42.30087170982477,-83.69728031884104,238.57998657226562,0.010862159875859922,-0.9998026481078914,-0.013174639456706019,-0.010154171283980811,-0.014310000000000002,-0.00396,-0.006120000000000001,2.2946,-0.1124,-9.6181,2.227828000861435,4.983517568246979,6.579999923706055,6.569999694824219,6.759999752044678,6.659999847412109,5.343020605648613,5.334900327594452,5.489182125857993,5.407981281297226,5.393771085099571,0.08232207697361527,-3.700000047683716,25.274999618530273,0.0,0.0,0.0,0.0,0.0,,,,,
frame_00017.png,1771858888664723315,1771858888.6647232,42.30087167431734,-83.69728142260396,238.58030700683594,0.010900386051807043,-0.9998000794087702,-0.013400114542470226,-0.010070736238581176,-0.0036300000000000004,-0.00102,-0.006560000000000001,2.6642,0.11380000000000001,-10.925600000000001,2.3306820295436106,5.213595859167285,7.029999732971191,6.989999771118164,7.059999942779541,7.049999713897705,5.7084245997701455,5.675944261945839,5.73278504673646,5.724664768682299,5.710454669283686,0.09530059934406948,-3.299999952316284,24.950000762939453,0.0,0.0,0.0,0.0,0.0,,,,,
frame_00018.png,1771858888714220621,1771858888.7142205,42.30087161547029,-83.69728316898015,238.58160400390625,0.01086651374438169,-0.9997961111136892,-0.013537788246934447,-0.01031423144824726,0.0027,-0.0028500000000000005,-0.0041,2.4794,-0.17950000000000002,-9.0344,2.451600394119266,5.484082985621152,7.399999618530273,7.349999904632568,7.419999599456787,7.359999656677246,6.008867918243065,5.968267689560766,6.0251080871552185,5.976387580418758,5.994657818844452,0.09310122304166231,-2.799999952316284,24.774999618530273,0.0,0.0,0.0,0.0,0.0,,,,,
frame_00019.png,1771858888764947505,1771858888.7649474,42.30087155793877,-83.69728501809756,238.58212280273438,0.01074058338848699,-0.9997902745487424,-0.013773822977844971,-0.010692454666742256,-0.005640000000000001,-0.01913,0.00272,2.2276000000000002,0.10310000000000001,-9.2398,2.5962300082319416,5.80761075461436,7.699999809265137,7.669999599456787,7.669999599456787,7.669999599456787,6.252470839121533,6.2281103921552186,6.2281103921552186,6.2281103921552186,6.234200503896798,0.07345357106508843,-3.0,23.80000114440918,0.0,0.0,0.0,0.0,0.0,,,,,
frame_00020.png,1771858888815714792,1771858888.8157148,42.300871536301194,-83.69728565769316,238.58193969726562,0.010702241808838275,-0.9997900825245818,-0.01386525195614639,-0.010630507699423787,-0.013900000000000003,-0.00042000000000000007,0.00026000000000000003,2.2673,-0.10590000000000001,-9.536800000000001,2.6888316997560726,6.014755182452349,8.0,7.929999828338623,8.010000228881836,8.010000228881836,6.49607376,6.4392329752093795,6.504194038054162,6.504194038054162,6.485923702829426,0.07833544443366208,-4.300000190734863,23.825000762939453,0.0,0.0,0.0,0.0,0.0,,,,,
frame_00021.png,1771858888866189312,1771858888.8661892,42.30087147383729,-83.69728764318559,238.58009338378906,0.010721072135221,-0.9997864800624929,-0.014009261935098544,-0.010760737732860532,-0.014820000000000002,-0.015070000000000002,-0.005270000000000001,2.0660000000000003,-1.3316000000000001,-10.1386,2.806130204662751,6.277144900018295,8.309999465942383,8.420000076293945,8.220000267028809,8.34000015258789,6.747796184540291,6.837117694351387,6.674716005229855,6.772157018702774,6.757946725706077,0.07659562322456191,-5.200000286102295,23.625,0.0,0.0,0.0,0.0,0.0,,,,,
frame_00022.png,1771858888915973083,1771858888.9159732,42.30087140444613,-83.6972897266766,238.57821655273438,0.010638886250824597,-0.9997777039596845,-0.014501220500437026,-0.011003243541851152,-0.04419000000000001,0.011170000000000003,0.008530000000000001,2.0745,-0.6508,-9.4238,2.9228139038896876,6.538159334166998,8.609999656677246,8.489999771118164,8.539999961853027,8.639999389648438,6.9913991054187585,6.89395809194584,6.934558707824307,7.015759165188904,6.958918767594453,0.06435441718721308,-6.099999904632568,22.950000762939453,0.0,0.0,0.0,0.0,0.0,,,,,
frame_00023.png,1771858888967807850,1771858888.9678078,42.30087134801246,-83.69729116513322,238.57696533203125,0.010514995020057705,-0.9997633191761093,-0.015399654328873622,-0.011206746015158559,-0.06278000000000002,-0.01832,0.0069900000000000006,1.3808,-0.7708,-10.1902,3.0124813061144757,6.7387399328997155,8.670000076293945,8.84999942779541,8.90999984741211,8.90999984741211,7.040119999351387,7.186281132364598,7.235002026297226,7.235002026297226,7.17410129607761,0.06460575233841322,-7.800000190734863,23.475000381469727,0.0,0.0,0.0,0.0,0.0,,,,,
frame_00024.png,1771858889016861546,1771858889.0168614,42.30087126001495,-83.69729340774832,238.57595825195312,0.010415246143519075,-0.9997352652062519,-0.016930355944862193,-0.011588149046987213,-0.028720000000000002,-0.021900000000000003,-0.00909,2.2149,0.0292,-10.6456,3.1517027694286783,7.050169993045788,9.15999984741211,9.179999351501465,9.170000076293945,9.079999923706055,7.438004331297226,7.45424411301321,7.446124609351387,7.373043655648613,7.4278541773276086,0.05357093299230572,-8.5,23.825000762939453,0.0,0.0,0.0,0.0,0.0,,,,,
frame_00025.png,1771858889077139733,1771858889.0771396,42.300871170123806,-83.69729574486398,238.5762176513672,0.010369388975018545,-0.9997179352143979,-0.0171850418586824,-0.012696460895112768,0.012600000000000002,-0.03925000000000001,-0.011150000000000002,1.464,-1.2251,-10.0464,3.268281103027324,7.310948730605943,9.469999313354492,9.319999694824219,9.469999313354492,9.529999732971191,7.689726755837517,7.567925682594453,7.689726755837517,7.738447649770146,7.671456711009908,0.04931069737840793,-9.199999809265137,24.17500114440918,0.0,0.0,0.0,0.0,0.0,,,,,
frame_00026.png,1771858889118229382,1771858889.1182294,42.30087114393361,-83.6972965421722,238.57664489746094,0.010221237667283056,-0.9997132438800291,-0.017155110022120293,-0.013215843202287471,0.01589,-0.044480000000000006,0.007910000000000002,2.4949000000000003,1.1635,-9.6805,3.339219371748613,7.469633381439343,9.679999351501465,9.729999542236328,9.699999809265137,9.789999961853027,7.8602487230132105,7.900849338891678,7.876489279121533,7.949570232824307,7.896789393462682,0.057185673005684924,-9.199999809265137,24.80000114440918,0.0,0.0,0.0,0.0,0.0,,,,,
frame_00027.png,1771858889178162891,1771858889.178163,42.300871065826726,-83.69729898848793,238.5781707763672,0.010066649781262038,-0.999698336595924,-0.01734251569025578,-0.014182225462088912,-0.004510000000000001,-0.018510000000000002,0.007240000000000001,1.2147000000000001,1.718,-9.147400000000001,3.4253601509893508,7.662325136154119,10.0,9.739999771118164,10.059999465942383,10.039999961853027,8.1200922,7.908969616945839,8.168812319540292,8.152572537824307,8.08761166857761,0.05550358734019359,-9.300000190734863,24.67500114440918,0.0,0.0,0.0,0.0,0.0,,,,,
frame_00028.png,1771858889228398875,1771858889.2283988,42.300870990916586,-83.69730150578475,238.5800323486328,0.009875371637130093,-0.9996993737078619,-0.01723357855669969,-0.014375083069932923,0.04859000000000001,-0.006400000000000001,0.00202,1.9366,0.9438000000000001,-9.2529,3.5344999494488567,7.906464316920126,10.300000190734863,10.170000076293945,10.279999732971191,10.219999313354492,8.363695120878468,8.258133829351388,8.347454564770146,8.298733670837517,8.31700429645938,0.051924597782688195,-9.40000057220459,25.125,0.0,0.0,0.0,0.0,0.0,,,,,
frame_00029.png,1771858889279524557,1771858889.2795246,42.300870941243474,-83.69730410131304,238.5813446044922,0.00976705166312375,-0.9997254886886798,-0.01557602941772441,-0.014523748674795734,0.09430000000000001,-0.0028500000000000005,0.0026000000000000003,1.9256000000000002,0.8057000000000001,-9.8485,3.6244646050296248,8.107709853574969,10.559999465942383,10.59000015258789,10.469999313354492,10.460000038146973,8.57481692954029,8.599177763702775,8.501735975837518,8.493616472175693,8.54233678531407,0.05360662130101506,-9.300000190734863,25.125,0.0,0.0,0.0,0.0,0.0,,,,,
frame_00030.png,1771858889329243051,1771858889.3292432,42.30087091565612,-83.6973058789804,238.5825653076172,0.009735431923039994,-0.9997394330334248,-0.0142825846470177,-0.014909566696555826,0.061610000000000005,-0.012100000000000001,0.0010400000000000001,2.1384000000000003,0.9302,-10.167,3.695575737023591,8.266781189177552,10.760000228881836,10.760000228881836,10.6899995803833,10.699999809265137,8.737219393054161,8.737219393054161,8.680378221067372,8.688498499121533,8.710828876574308,0.053714701917849286,-9.199999809265137,25.225000381469727,0.0,0.0,0.0,0.0,0.0,,,,,
frame_00031.png,1771858889371402674,1771858889.3714027,42.30087088306627,-83.69730768845425,238.5828094482422,0.009599032688896003,-0.9997473964842611,-0.013412100618949149,-0.01526818101040208,0.04204000000000001,-0.006410000000000002,0.017140000000000002,0.7733,1.1387,-8.7789,3.753315591941132,8.395941780236797,10.760000228881836,10.9399995803833,10.90999984741211,10.90999984741211,8.737219393054161,8.883380526067372,8.859020466297226,8.859020466297226,8.834660212928995,0.05225362969106067,-9.199999809265137,25.375,0.0,0.0,0.0,0.0,0.0,,,,,
frame_00032.png,1771858889430267090,1771858889.430267,42.300870832940674,-83.69731046162221,238.5826873779297,0.009218938258686471,-0.9997543531493553,-0.012987174059493902,-0.015413560466199154,0.009840000000000002,-0.00396,0.007960000000000002,0.5528000000000001,0.6934,-9.4178,3.8428961854984562,8.596328193188917,10.960000038146973,11.179999351501465,11.279999732971191,11.139999389648438,8.899621082175694,9.07826255301321,9.159463784770146,9.045782215188904,9.045782408786987,0.05228444115874775,-9.0,25.17500114440918,0.0,0.0,0.0,0.0,0.0,,,,,
frame_00033.png,1771858889481279577,1771858889.4812794,42.30087076843371,-83.69731330385628,238.5818634033203,0.00878642791077655,-0.999763226696363,-0.01276690035296614,-0.015274013409150432,0.016440000000000003,0.004710000000000001,0.005690000000000001,0.09530000000000001,0.6518,-9.678600000000001,3.9530689726656005,8.842778107714588,11.029999732971191,11.25,11.639999389648438,11.309999465942383,8.956461479770146,9.135103725,9.451786825188904,9.18382384454029,9.181793968624836,0.03833816214550093,-8.800000190734863,25.024999618530273,0.0,0.0,0.0,0.0,0.0,,,,,
frame_00034.png,1771858889521767558,1771858889.5217676,42.300870687271015,-83.69731622604377,238.58169555664062,0.00834691878840832,-0.999764481415198,-0.012474869447523665,-0.01567444670816111,0.0020000000000000005,-0.026640000000000004,0.011800000000000001,-0.38570000000000004,0.10550000000000001,-10.5896,4.029343746943293,9.01340020128733,11.619999885559082,11.619999885559082,11.40999984741211,11.559999465942383,9.435547043472921,9.435547043472921,9.265025076297226,9.38682614954029,9.38073632819584,0.040754445459555214,-8.699999809265137,25.42500114440918,0.0,0.0,0.0,0.0,0.0,,,,,
frame_00035.png,1771858889581592701,1771858889.5815926,42.30087059676804,-83.69731923236019,238.58279418945312,0.007876434539813904,-0.9997479691251985,-0.012907438388247991,-0.01659391584993253,-0.020360000000000003,-0.031490000000000004,0.013960000000000002,-0.648,1.0349000000000002,-8.9072,4.14815685507521,9.27917799539194,12.119999885559082,11.800000190734863,12.069999694824219,11.889999389648438,9.84155165347292,9.581708950878468,9.800951037594453,9.654789130188902,9.719750193033686,0.04747965798915972,-8.40000057220459,26.5,0.0,0.0,0.0,0.0,0.0,,,,,
frame_00036.png,1771858889632325570,1771858889.6323256,42.30087056703223,-83.69732025083736,238.5831298828125,0.007603902138493213,-0.9997303172405271,-0.013752966925885656,-0.017097642035053342,-0.038130000000000004,-0.08470000000000001,0.022310000000000003,2.2277,1.4875,-9.9821,4.2302254437607765,9.462760504166232,12.199999809265137,12.019999504089355,12.119999885559082,11.90999984741211,9.906512329121533,9.760350421715986,9.84155165347292,9.671029686297226,9.794861022651915,0.03509552189759714,-8.40000057220459,26.575000762939453,0.0,0.0,0.0,0.0,0.0,,,,,
frame_00037.png,1771858889673651742,1771858889.6736517,42.30087047891264,-83.69732334250911,238.58285522460938,0.007257516245443019,-0.9997195175851279,-0.014377918085759993,-0.017363469953477997,-0.007740000000000001,-0.023530000000000002,0.016900000000000002,2.5387,1.1814,-8.2848,4.298779786839047,9.616112456371738,12.369999885559082,12.119999885559082,12.380000114440918,12.300000190734863,10.04455395847292,9.84155165347292,10.05267423652708,9.987713560878468,9.981623352337847,0.03801025597656332,-8.5,26.600000381469727,0.0,0.0,0.0,0.0,0.0,,,,,
frame_00038.png,1771858889732558688,1771858889.7325585,42.30087038563012,-83.69732651492824,238.5806884765625,0.006762448924502118,-0.9997093423681422,-0.01475086427705326,-0.01783008888031725,-0.018490000000000003,-0.0011900000000000003,0.013420000000000001,2.2111,0.5902000000000001,-10.3472,4.405041408610304,9.853813328576733,12.559999465942383,12.710000038146973,12.4399995803833,12.670000076293945,10.198835369540292,10.320637217175694,10.101394356067372,10.288156879351387,10.227255955533685,0.037898285110997965,-8.90000057220459,26.450000762939453,0.0,0.0,0.0,0.0,0.0,,,,,
frame_00039.png,1771858889774603932,1771858889.774604,42.30087031793595,-83.69732866907609,238.5789337158203,0.00643452225089125,-0.9996914450068836,-0.01535801019046843,-0.01843212484879086,-0.05786000000000001,-0.05925000000000001,0.01624,0.1044,0.38170000000000004,-9.1548,4.452729470227225,9.96048866113009,12.829999923706055,12.859999656677246,12.799999237060547,12.710000038146973,10.418078230648614,10.442438290418758,10.39371739648613,10.320637217175694,10.3937177836823,0.043494765898670074,-9.199999809265137,26.67500114440918,0.0,0.0,0.0,0.0,0.0,,,,,
frame_00040.png,1771858889824380364,1771858889.8243804,42.300870221072685,-83.697331954002,238.57424926757812,0.005835760731617401,-0.9996735117614268,-0.016708552196678248,-0.018429271899641643,-0.05514000000000001,0.015570000000000002,0.018630000000000004,1.1442,0.6832,-9.677800000000001,4.542439976476552,10.161165680979458,13.039999961853027,13.119999885559082,12.9399995803833,12.949999809265137,10.588600197824306,10.65356087347292,10.507398966067372,10.515519244121531,10.56626982037153,0.03986788052776084,-9.600000381469727,27.024999618530273,0.0,0.0,0.0,0.0,0.0,,,,,
frame_00041.png,1771858889875905101,1771858889.875905,42.300870190814045,-83.69733305981539,238.5720977783203,0.00561672057686452,-0.9996770707311287,-0.01684572378269569,-0.0181776867237991,-0.007370000000000001,0.014560000000000002,0.0027700000000000003,1.5390000000000001,-1.3181,-9.703000000000001,4.606247865196861,10.303900099573466,13.1899995803833,13.139999389648438,13.229999542236328,13.229999542236328,10.710401271067372,10.669800655188904,10.742881608891679,10.742881608891679,10.716491286009909,0.040042234731441306,-9.90000057220459,26.92500114440918,0.0,0.0,0.0,0.0,0.0,,,,,
frame_00042.png,1771858889925194842,1771858889.9251947,42.30087008747513,-83.69733757090408,238.56480407714844,0.005006732574317385,-0.9996751079713908,-0.017240486437664296,-0.01809355572323542,-0.019390000000000004,-0.013180000000000002,0.01984,0.8887,-0.2248,-12.280700000000001,4.705068226022757,10.524955317519346,13.399999618530273,13.429999351501465,13.59000015258789,13.539999961853027,10.880923238243065,10.905283298013211,11.035205423702774,10.994604807824306,10.954004191945838,0.040764911724833396,-10.0,27.05000114440918,0.0,0.0,0.0,0.0,0.0,,,,,
frame_00043.png,1771858889976722958,1771858889.976723,42.300870076927005,-83.69733872750574,238.56448364257812,0.004667950722026193,-0.9996718158081062,-0.01691217998427768,-0.01866679091756018,0.06237000000000001,-0.052050000000000006,-0.0010500000000000002,1.4297,0.9418000000000001,-9.482800000000001,4.788909943495236,10.712504209002233,13.6899995803833,13.649999618530273,13.729999542236328,13.710000038146973,11.11640588106737,11.083925543243065,11.148886218891679,11.132646437175694,11.120466020094451,0.03808276786947609,-10.0,27.649999618530273,0.0,0.0,0.0,0.0,0.0,,,,,
frame_00044.png,1771858890026513564,1771858890.0265136,42.30087002746436,-83.69734222837005,238.56324768066406,0.004244427823451968,-0.9996750826387684,-0.01609490300253442,-0.019304612945161673,0.04521000000000001,0.010570000000000001,0.0022600000000000003,1.3434000000000001,1.1374,-9.695400000000001,4.859019536580652,10.869335162158723,13.84000015258789,13.979999542236328,13.809999465942383,14.069999694824219,11.238207728702776,11.351888523891677,11.213846894540291,11.424969477594452,11.3072281561823,0.04028700812797529,-10.0,27.80000114440918,0.0,0.0,0.0,0.0,0.0,,,,,
frame_00045.png,1771858890077240958,1771858890.077241,42.30086998875614,-83.6973458007443,238.5621337890625,0.003782464223337334,-0.9996730626974608,-0.01510045944477977,-0.020283905098245257,0.042100000000000005,-0.06140000000000001,0.012660000000000001,1.9324000000000001,2.0632,-9.3971,4.9572033136389395,11.08896638041149,14.109999656677246,14.149999618530273,13.989999771118164,14.109999656677246,11.457449815418759,11.489930153243066,11.36000880194584,11.457449815418759,11.441209646506607,0.03176520281613895,-10.0,27.700000762939453,0.0,0.0,0.0,0.0,0.0,,,,,
frame_00046.png,1771858890135914995,1771858890.135915,42.30086995142891,-83.69734944136253,238.56236267089844,0.003284483157559581,-0.9996653476542734,-0.014267933339982372,-0.021326765996134946,0.022470000000000004,-0.027000000000000003,0.010640000000000002,1.8846,1.0668,-9.2499,5.058730821594662,11.316077324057964,14.50999927520752,14.289999961853027,14.549999237060547,14.4399995803833,11.782253193661825,11.603611722824308,11.81473353148613,11.725412796067372,11.73150281100991,0.03671108592274747,-10.0,27.825000762939453,0.0,0.0,0.0,0.0,0.0,,,,,
frame_00047.png,1771858890178130436,1771858890.1781304,42.30086994203548,-83.69735066274367,238.56248474121094,0.0030057101035063645,-0.9996638804106657,-0.01349735992584186,-0.021929732877907965,0.04542000000000001,-0.06044000000000001,0.00016,1.6397000000000002,-2.1833,-9.5493,5.108718251745193,11.427896206058893,14.569999694824219,14.359999656677246,14.50999927520752,14.649999618530273,11.830974087594452,11.66045212041876,11.782253193661825,11.895934763243066,11.792403541229525,0.03189627632226622,-10.100000381469727,27.875,0.0,0.0,0.0,0.0,0.0,,,,,
frame_00048.png,1771858890227983068,1771858890.227983,42.3008698938816,-83.69735439229879,238.56002807617188,0.002258517002839244,-0.9996629489365212,-0.012591109519858102,-0.022590962474957583,0.0030400000000000006,-0.0023000000000000004,0.029130000000000003,-0.31270000000000003,-0.8424,-9.106200000000001,5.1828166304680146,11.593649833359121,14.739999771118164,14.649999618530273,14.779999732971191,14.84999942779541,11.96901571694584,11.895934763243066,12.001496054770147,12.058336452364598,11.981195746830913,0.033427429587935466,-10.199999809265137,27.700000762939453,0.0,0.0,0.0,0.0,0.0,,,,,
frame_00049.png,1771858890287886774,1771858890.2878869,42.300869847536354,-83.69735817708252,238.55499267578125,0.001628063609039498,-0.9996679893011683,-0.012071372375573555,-0.022705561970902104,0.036000000000000004,0.013790000000000002,0.0039000000000000007,1.5033,-0.7921,-9.1891,5.271411843436228,11.791832009056236,14.889999389648438,15.00999927520752,15.089999198913574,14.880000114440918,12.090816790188905,12.188257803661823,12.253218479310437,12.082697286527083,12.153747589922062,0.03069205706016434,-10.600000381469727,27.475000381469727,0.0,0.0,0.0,0.0,0.0,,,,,
frame_00050.png,1771858890329103079,1771858890.329103,42.300869809416525,-83.69736074719414,238.5509033203125,0.0013119525356639625,-0.9996674897004483,-0.012142126260501583,-0.022710296925013907,-0.021410000000000002,0.0030700000000000002,0.01922,1.8683,0.0095,-8.4449,5.33007058131688,11.923048086170983,15.210000038146973,15.40999984741211,15.199999809265137,15.339999198913574,12.350660267175694,12.513061956297227,12.342539989121533,12.456220784310437,12.415620749226223,0.04131264585157157,-11.100000381469727,27.725000381469727,0.0,0.0,0.0,0.0,0.0,,,,,
frame_00051.png,1771858890379839706,1771858890.3798397,42.30086975415548,-83.69736465709356,238.54286193847656,0.0008761191327321668,-0.9996585464325572,-0.012498916333571235,-0.02293033035301829,-0.029740000000000003,-0.025070000000000002,0.026340000000000002,1.0038,1.4851,-9.953700000000001,5.435264322058359,12.158360172585226,15.519999504089355,15.5,15.539999961853027,15.479999542236328,12.602382691715986,12.586142910000001,12.618623247824306,12.56990235389168,12.594262800857994,0.03585209042051942,-11.300000190734863,27.700000762939453,0.0,0.0,0.0,0.0,0.0,,,,,
frame_00052.png,1771858890439091508,1771858890.4390914,42.30086969223555,-83.69736862764687,238.5344696044922,0.0002456278306315892,-0.9996550920407572,-0.012841160832467316,-0.02290723057091248,-0.026680000000000002,-0.0029800000000000004,0.022180000000000002,2.0460000000000003,0.5741,-8.9451,5.520613443395967,12.349281036070176,15.899999618530273,15.75999927520752,15.84999942779541,15.739999771118164,12.910946288243066,12.797264718661824,12.870345672364598,12.781024936945839,12.839895404053832,0.039728172559248966,-11.0,27.875,0.0,0.0,0.0,0.0,0.0,,,,,
frame_00053.png,1771858890480934422,1771858890.4809344,42.30086964499513,-83.6973713009255,238.52943420410156,-0.0001444470826531544,-0.9996594046049887,-0.013210315907224816,-0.022506476256202508,-0.023600000000000003,0.03373,0.023730000000000005,1.937,0.20500000000000002,-10.3835,5.557738319500192,12.43232715642276,15.9399995803833,15.929999351501465,16.0,15.84999942779541,12.943426626067373,12.93530634801321,12.99214752,12.870345672364598,12.935306541611295,0.04045738009144065,-11.100000381469727,27.325000762939453,0.0,0.0,0.0,0.0,0.0,,,,,
frame_00054.png,1771858890531543670,1771858890.5315435,42.300869581159944,-83.69737537135836,238.52261352539062,-0.0007308849025162714,-0.9996696349686636,-0.013607444173211912,-0.021792755492396277,-0.019180000000000003,0.04088000000000001,0.02492,1.6537000000000002,1.4565000000000001,-9.9069,5.63071890690684,12.595580351616189,16.1299991607666,16.299999237060547,16.149999618530273,16.139999389648438,13.097708037134742,13.23574966648613,13.113948593243066,13.105828315188905,13.138308653013212,0.04308878878513792,-11.199999809265137,27.625,0.0,0.0,0.0,0.0,0.0,,,,,
frame_00055.png,1771858890581963834,1771858890.5819638,42.30086956561314,-83.69737674914485,238.52072143554688,-0.0011150801067063567,-0.9996779912685507,-0.013382772913773943,-0.02153071663390193,0.00727,0.019010000000000003,0.021140000000000003,0.8685,-1.1279000000000001,-11.1677,5.704070428011863,12.759663303236858,16.06999969482422,16.1299991607666,16.350000381469727,16.350000381469727,13.048987917594452,13.097708037134742,13.276351056756935,13.276351056756935,13.174849517060768,0.03253896313381451,-11.40000057220459,27.399999618530273,0.0,0.0,0.0,0.0,0.0,,,,,
frame_00056.png,1771858890631815474,1771858890.6318154,42.30086951326588,-83.6973809233251,238.5162353515625,-0.0018077412189116406,-0.9996715107636098,-0.013420219434282598,-0.021760063180590972,-0.01678,0.0007800000000000001,0.024200000000000003,0.6433,-0.251,-9.8743,5.799104203090353,12.972248156060935,16.65999984741211,16.469999313354492,16.649999618530273,16.53999900817871,13.528073481297227,13.373791295837517,13.519953203243064,13.43063169343197,13.463112418452445,0.037839567705322256,-11.5,27.55000114440918,0.0,0.0,0.0,0.0,0.0,,,,,
frame_00057.png,1771858890696047274,1771858890.6960473,42.300869475579496,-83.69738516298284,238.51197814941406,-0.002377047947821676,-0.999667962914119,-0.013228261869966413,-0.02198469135760124,0.009630000000000001,-0.004210000000000001,0.020190000000000003,-0.039,0.7124,-9.0221,5.885639386526184,13.165822169295883,16.84000015258789,17.020000457763672,16.729999542236328,16.809999465942383,13.674235388702774,13.820397296108322,13.58491387889168,13.649874554540292,13.682355279560767,0.039232879164166075,-11.600000381469727,27.375,0.0,0.0,0.0,0.0,0.0,,,,,
frame_00058.png,1771858890745378678,1771858890.7453785,42.300869449505136,-83.69738946413243,238.50537109375,-0.0027684992909544075,-0.9996825733044761,-0.01253031495300424,-0.021681311081099934,0.025610000000000004,0.014320000000000003,0.016200000000000003,0.9317000000000001,-0.4998,-10.092600000000001,5.966840474404989,13.347464130815498,17.279998779296875,16.989999771118164,17.020000457763672,17.020000457763672,14.031518330377809,13.796036461945839,13.820397296108322,13.820397296108322,13.867087346135072,0.03893048224193483,-11.5,27.600000381469727,0.0,0.0,0.0,0.0,0.0,,,,,
frame_00059.png,1771858890792488699,1771858890.7924888,42.30086942064443,-83.6973938294212,238.4969940185547,-0.003358709733024379,-0.9996909267645487,-0.012383261699144232,-0.02129377475360532,-0.044860000000000004,-0.0016500000000000002,0.025860000000000005,1.8951,-0.7243,-9.8482,6.062713852757116,13.561927125786504,17.549999237060547,17.270000457763672,17.260000228881836,17.239999771118164,14.25076119148613,14.023399601108322,14.01527932305416,13.999038766945839,14.072119720648612,0.0376194762093975,-11.40000057220459,27.524999618530273,0.0,0.0,0.0,0.0,0.0,,,,,
frame_00060.png,1771858890842883264,1771858890.8428833,42.30086940471842,-83.69739677198753,238.49095153808594,-0.0037625519619456376,-0.9996927672192131,-0.012337291221170023,-0.021166143192606804,-0.005580000000000001,0.010360000000000001,0.025670000000000002,1.1540000000000001,-0.9458000000000001,-9.6363,6.113502929753486,13.675539243682765,17.60999870300293,17.549999237060547,17.329999923706055,17.369998931884766,14.29948131102642,14.25076119148613,14.072119720648613,14.104599284080582,14.181740376810438,0.03701507663483955,-11.300000190734863,27.42500114440918,0.0,0.0,0.0,0.0,0.0,,,,,
frame_00061.png,1771858890894000054,1771858890.894,42.30086937224352,-83.6974012442676,238.48011779785156,-0.004476601655719836,-0.9997011318667024,-0.012063898600378736,-0.020786277507284578,-0.0024500000000000004,0.01963,0.03259,0.0337,-0.67,-9.4831,6.1826586072211445,13.830236344837267,17.6299991607666,17.84000015258789,17.510000228881836,17.600000381469727,14.315721867134743,14.486244608702776,14.21828162805416,14.291362581756935,14.327902671412152,0.03598393506562601,-11.100000381469727,27.225000381469727,0.0,0.0,0.0,0.0,0.0,,,,,
frame_00062.png,1771858890943882840,1771858890.9438827,42.30086933679613,-83.69740578492099,238.47007751464844,-0.005233831390693555,-0.9996912222985314,-0.012635030247448846,-0.020746640183128096,-0.05089000000000001,0.02152,0.03331,0.9071,2.0089,-10.5792,6.274922012247589,14.036624046077122,17.670000076293945,17.709999084472656,17.889999389648438,17.75,14.348202979351388,14.380682542783356,14.526844450188904,14.413163655,14.417223406830912,0.027114736385645197,-10.40000057220459,27.600000381469727,0.0,0.0,0.0,0.0,0.0,,,,,
frame_00063.png,1771858890985629170,1771858890.985629,42.30086932385055,-83.69740732018191,238.4680633544922,-0.005618430542739861,-0.999668210174529,-0.012987814611140883,-0.02152253415183486,-0.07110000000000001,-0.036680000000000004,0.021400000000000002,-1.3393000000000002,-1.2492,-12.0282,6.344687950962889,14.192686265026927,17.899999618530273,17.969999313354492,17.969999313354492,17.85999870300293,14.534964728243066,14.591805125837517,14.591805125837517,14.50248361602642,14.555264648986132,0.02554684695966659,-9.800000190734863,27.700000762939453,0.0,0.0,0.0,0.0,0.0,,,,,
frame_00064.png,1771858891035412163,1771858891.0354123,42.300869298482986,-83.69741195195482,238.46437072753906,-0.006193335154934532,-0.9996442373026899,-0.012897573032046191,-0.022509865327560726,0.01856,-0.04922000000000001,0.03449000000000001,-0.10990000000000001,-0.339,-10.285,6.4249131448104855,14.372145210152368,18.119998931884766,18.020000457763672,18.299999237060547,18.170000076293945,14.713606199080584,14.632406516108324,14.859768106486131,14.754207589351388,14.739997102756606,0.025594779848480097,-9.0,27.274999618530273,0.0,0.0,0.0,0.0,0.0,,,,,
frame_00065.png,1771858891086387243,1771858891.0863872,42.30086928787401,-83.69741507705406,238.46238708496094,-0.006565139619561289,-0.999634045399455,-0.012756184511847814,-0.022933686506871054,0.026470000000000004,-0.0017200000000000004,0.0267,1.6677000000000002,1.8923,-9.4596,6.475537677151571,14.485389251527437,18.309999465942383,18.1299991607666,18.440000534057617,18.369998931884766,14.86788838454029,14.721726477134743,14.97345045045971,14.916608504080582,14.869918454053831,0.026546004104504622,-8.800000190734863,27.200000762939453,0.0,0.0,0.0,0.0,0.0,,,,,
frame_00066.png,1771858891136489695,1771858891.1364896,42.300869267346755,-83.69741980979279,238.4594268798828,-0.0072099884416528814,-0.9996078190112403,-0.01277444074936579,-0.023854515333657875,0.010180000000000002,-0.046000000000000006,0.008220000000000002,2.9702,0.6942,-8.1414,6.574816772020306,14.707470630003103,18.549999237060547,18.459999084472656,18.75,18.389999389648438,15.06277041148613,14.989689457783356,15.225172875,14.932849060188905,15.052620451114597,0.023467653262376202,-8.90000057220459,27.399999618530273,0.0,0.0,0.0,0.0,0.0,,,,,
frame_00067.png,1771858891195913276,1771858891.1959133,42.30086924690656,-83.69742460433393,238.45513916015625,-0.007717496294307291,-0.9995688306451033,-0.013156268757014575,-0.025089951098427304,0.010980000000000002,-0.0599,0.014990000000000002,0.1479,-0.2795,-9.6476,6.647887880057245,14.870926314415254,18.93000030517578,18.90999984741211,18.869998931884766,18.799999237060547,15.37133478240555,15.355094226297227,15.322613114080582,15.26577271648613,15.328703709817372,0.030783381325638605,-8.90000057220459,26.975000381469727,0.0,0.0,0.0,0.0,0.0,,,,,
frame_00068.png,1771858891238063609,1771858891.2380636,42.30086924007819,-83.69742621288592,238.4529571533203,-0.007978763647310538,-0.9995606792726539,-0.013332712842715137,-0.025239384915334163,-0.024870000000000003,-0.014070000000000003,0.008440000000000001,1.6353,0.6785,-7.2774,6.686457171562624,14.957203505355299,19.010000228881836,19.1299991607666,18.94999885559082,18.94999885559082,15.436295458054161,15.533735697134745,15.387573789729194,15.387573789729194,15.436294683661824,0.03203079894814502,-9.0,26.350000381469727,0.0,0.0,0.0,0.0,0.0,,,,,
frame_00069.png,1771858891288170147,1771858891.2881703,42.30086922264719,-83.69743107637547,238.44482421875,-0.008534725835035561,-0.9995505018251424,-0.013813106237341402,-0.02520219935050368,0.021330000000000005,0.04263,0.008420000000000002,2.1776,1.2285000000000001,-7.7725,6.753347909201449,15.106834072009091,19.119998931884766,19.189998626708984,19.149999618530273,19.1299991607666,15.525615419080582,15.582455816675035,15.549976253243067,15.533735697134745,15.547945796533357,0.029199481666485352,-9.100000381469727,21.649999618530273,0.0,0.0,0.0,0.0,0.0,,,,,
frame_00070.png,1771858891339816797,1771858891.3398168,42.300869207555294,-83.69743435134893,238.43765258789062,-0.008813353192491102,-0.999542295051247,-0.014033826547568613,-0.025309621127606482,0.007750000000000001,0.027580000000000004,0.023740000000000004,0.4263,0.8833000000000001,-10.8971,6.804816164738193,15.221965471549453,19.35999870300293,19.270000457763672,19.28999900817871,19.3799991607666,15.720497446026421,15.647418041108322,15.663657048431968,15.736738002134743,15.692077634425363,0.030883801684780554,-9.0,0.0,0.0,0.0,0.0,0.0,0.0,,,,,
frame_00071.png,1771858891401128349,1771858891.4011285,42.3008691905313,-83.69743931638068,238.42556762695312,-0.009224421930391635,-0.9995273091641614,-0.014472476827855036,-0.025507169375849924,-0.031610000000000006,-0.0017900000000000004,0.013980000000000001,0.0618,-0.12440000000000001,-11.1173,6.9061348663551305,15.448609327944446,19.6299991607666,19.489999771118164,19.510000228881836,19.5,15.939740307134743,15.82605951194584,15.842300068054161,15.83417979,15.860569919283686,0.026666516227713676,-8.90000057220459,0.0,0.0,0.0,0.0,0.0,0.0,,,,,
frame_00072.png,1771858891448205748,1771858891.4482057,42.300869176415596,-83.6974443424976,238.41311645507812,-0.009741605534771325,-0.9995093522659618,-0.014921136752239014,-0.025758795245571824,-0.0083,0.03347000000000001,0.020420000000000004,0.8227,1.6036000000000001,-9.021700000000001,6.970089718138141,15.591672494091933,19.850000381469727,19.31999969482422,19.8799991607666,19.600000381469727,16.118383326756934,15.688017882594451,16.142742612134743,15.915381021756936,15.966131210810767,0.024016584292719453,-8.699999809265137,0.0,0.0,0.0,0.0,0.0,0.0,,,,,
frame_00073.png,1771858891490907518,1771858891.4909074,42.30086917158382,-83.69744771590308,238.40536499023438,-0.01009839470157925,-0.9995018447244245,-0.014712132688187784,-0.026031480339939933,0.0033300000000000005,0.025370000000000004,0.008140000000000001,0.9003,-2.0401000000000002,-10.2417,7.010551339913435,15.68218271430596,19.8799991607666,19.959999084472656,19.90999984741211,20.0,16.142742612134743,16.207703287783357,16.167103446297226,16.2401844,16.18943343655383,0.03234567097507003,-8.600000381469727,0.0,0.0,0.0,0.0,0.0,0.0,,,,,
frame_00074.png,1771858891550380423,1771858891.5503805,42.300869176248874,-83.6974528246382,238.39547729492188,-0.010647556063485053,-0.9995002763741978,-0.014495575084406364,-0.025994333627724544,-0.03695000000000001,0.016220000000000002,0.03389,-0.7312000000000001,1.3593000000000002,-8.8942,7.06119144996875,15.795461602093097,19.959999084472656,19.709999084472656,20.049999237060547,20.03999900817871,16.207703287783357,16.004700982783355,16.28078424148613,16.27266396343197,16.1914631188712,0.025070588423046127,-8.800000190734863,0.0,0.0,0.0,0.0,0.0,0.0,,,,,
frame_00075.png,1771858891604703663,1771858891.6047037,42.30086918138375,-83.69745796512795,238.38519287109375,-0.011127372187657136,-0.9995139040414209,-0.015273124018357204,-0.024796550138968598,-0.03602,0.036410000000000005,0.01429,1.8863,2.4627000000000003,-10.199300000000001,7.123801828885405,15.935517263106918,20.09000015258789,19.889999389648438,20.189998626708984,20.209999084472656,16.313265353702775,16.150862890188904,16.394465036675037,16.410705592783355,16.317324718337517,0.023959526943912835,-8.699999809265137,0.0,0.0,0.0,0.0,0.0,0.0,,,,,
frame_00076.png,1771858891643263259,1771858891.6432633,42.3008691786783,-83.6974596905624,238.382080078125,-0.011504312204588696,-0.9995021649559097,-0.015999641748964018,-0.02463908506932388,-0.037340000000000005,-0.02389,0.02075,1.8753000000000002,0.9235000000000001,-10.5876,7.131735293657868,15.953263947795032,20.020000457763672,19.889999389648438,20.119998931884766,19.869998931884766,16.256424956108322,16.150862890188904,16.337624639080584,16.134622334080582,16.2198837048646,0.016712552236460614,-8.600000381469727,0.0,0.0,0.0,0.0,0.0,0.0,,,,,
frame_00077.png,1771858891702786011,1771858891.702786,42.30086917714978,-83.69746488986638,238.37411499023438,-0.012140126607857793,-0.9994608196447536,-0.016229872769943105,-0.025831735343447126,-0.008570000000000001,-0.06443000000000002,0.02375,-0.7294,1.3925,-10.2558,7.212015650276463,16.132846288729432,20.170000076293945,20.059999465942383,20.170000076293945,20.189998626708984,16.37822602935139,16.288904519540292,16.37822602935139,16.394465036675037,16.359955403729526,0.014077436240048612,-8.40000057220459,0.0,0.0,0.0,0.0,0.0,0.0,,,,,
frame_00078.png,1771858891751622300,1771858891.7516224,42.30086917741035,-83.69747012115529,238.3675994873047,-0.012544550039940205,-0.9994389933601673,-0.015984783367180174,-0.026623664590270383,-0.011500000000000002,-0.06097000000000001,0.019360000000000002,-0.6990000000000001,-1.2699,-8.9023,7.225872955023355,16.163844248009944,20.260000228881836,20.15999984741211,20.15999984741211,20.1299991607666,16.451306983054163,16.370105751297224,16.370105751297224,16.34574491713474,16.384315850695838,0.013639799994548816,-8.40000057220459,0.0,0.0,0.0,0.0,0.0,0.0,,,,,
frame_00079.png,1771858891793423801,1771858891.793424,42.300869183842295,-83.69747536834986,238.35646057128906,-0.013074332681619505,-0.9994241801171418,-0.01604944267168243,-0.02688466871727128,-0.00875,0.0038600000000000006,0.017900000000000003,-0.0664,-1.8723,-8.911200000000001,7.22639165220798,16.16500454249012,20.239999771118164,20.229999542236328,20.189998626708984,20.15999984741211,16.43506642694584,16.426946148891677,16.394465036675037,16.370105751297224,16.406645840952443,0.01494842131514177,-8.300000190734863,0.0,0.0,0.0,0.0,0.0,0.0,,,,,
frame_00080.png,1771858891853227895,1771858891.8532279,42.300869201316615,-83.6974806080858,238.3412322998047,-0.013656133304626838,-0.9994284051524895,-0.016329947306252316,-0.02626225082685031,-0.00491,0.017570000000000002,0.02236,-1.1808,0.9924000000000001,-10.203000000000001,7.2220927755781945,16.15538821340189,20.34000015258789,20.25,20.189998626708984,20.189998626708984,16.516267658702777,16.443186705,16.394465036675037,16.394465036675037,16.437096109263212,0.017437395631732928,-8.0,0.0,0.0,0.0,0.0,0.0,0.0,,,,,
frame_00081.png,1771858891894536400,1771858891.8945365,42.30086921794215,-83.6974840934787,238.3309326171875,-0.013953293101674591,-0.9994433187708753,-0.016147328662349275,-0.02564414071376318,0.030420000000000006,0.029010000000000005,0.015790000000000002,-0.6458,2.0837,-10.782,7.23411475593365,16.18228066213822,20.149999618530273,20.06999969482422,20.270000457763672,20.03999900817871,16.361985473243067,16.297024797594453,16.459427261108324,16.27266396343197,16.347775373844453,0.010226908997657122,-7.599999904632568,0.0,0.0,0.0,0.0,0.0,0.0,,,,,
frame_00082.png,1771858891953313314,1771858891.9533134,42.300869251839615,-83.69748935300419,238.31980895996094,-0.014259488634186246,-0.9994548654847413,-0.015248988290924963,-0.02557551952302121,0.03246,-0.01574,0.004950000000000001,0.3019,-0.5323,-12.312000000000001,7.2621626084942,16.245022025445017,20.299999237060547,20.049999237060547,20.350000381469727,20.270000457763672,16.48378654648613,16.28078424148613,16.524387936756934,16.459427261108324,16.437096496459382,0.011823589448725505,-7.200000286102295,0.0,0.0,0.0,0.0,0.0,0.0,,,,,
frame_00083.png,1771858891995489516,1771858891.9954896,42.30086927395244,-83.69749287344908,238.31765747070312,-0.014489143830477502,-0.9994326070792623,-0.015408980095501474,-0.02621243884541874,-0.044520000000000004,-0.050760000000000007,0.021410000000000002,0.2283,0.3332,-13.0547,7.2696489614858635,16.26176854790619,20.40999984741211,20.189998626708984,20.389999389648438,20.350000381469727,16.573108056297226,16.394465036675037,16.556867500188904,16.524387936756934,16.512207132479524,0.015400451914904432,-7.200000286102295,0.0,0.0,0.0,0.0,0.0,0.0,,,,,
frame_00084.png,1771858892045449733,1771858892.0454497,42.300869296650966,-83.69749815116305,238.3131103515625,-0.01511925928347635,-0.9993937280690048,-0.015629303816428356,-0.02719024011054738,-0.04363,-0.022320000000000003,0.037910000000000006,-0.48950000000000005,1.7485000000000002,-7.9324,7.272575014549991,16.268313953047457,20.31999969482422,20.189998626708984,20.420000076293945,20.279998779296875,16.50002710259445,16.394465036675037,16.581228334351387,16.467545990377808,16.48581661599967,0.013369711426762208,-7.200000286102295,0.0,0.0,0.0,0.0,0.0,0.0,,,,,
frame_00085.png,1771858892097060264,1771858892.0970604,42.3008692957163,-83.69749991113399,238.31069946289062,-0.01538604675458638,-0.9993881556509063,-0.015571192350800078,-0.02727859744781455,-0.0077800000000000005,-0.0119,0.021180000000000004,-1.4027,0.5929,-8.407,7.273036572124652,16.26934642964852,20.3799991607666,20.270000457763672,20.369998931884766,20.279998779296875,16.548747222134743,16.459427261108324,16.540626944080582,16.467545990377808,16.504086854425367,0.014428386892608351,-7.200000286102295,0.0,0.0,0.0,0.0,0.0,0.0,,,,,
frame_00086.png,1771858892147973149,1771858892.147973,42.3008693311897,-83.6975051835765,238.300048828125,-0.015790863887771123,-0.9993967525252135,-0.015280629696687854,-0.026893902948576534,0.014830000000000003,0.006770000000000001,0.018830000000000003,-0.5717,1.2033,-8.8388,7.278073806927574,16.280614421668567,20.459999084472656,20.739999771118164,20.40999984741211,20.31999969482422,16.613707897783357,16.84107103694584,16.573108056297226,16.50002710259445,16.631978523405216,0.021581747017422392,-7.5,0.0,0.0,0.0,0.0,0.0,0.0,,,,,
frame_00087.png,1771858892197462360,1771858892.1974623,42.30086937117849,-83.69751046480452,238.28656005859375,-0.016219091291311993,-0.9994062962700827,-0.015014591013495046,-0.026430249906072307,-0.0024000000000000002,0.00445,0.01203,0.3668,-0.24980000000000002,-9.6945,7.293199341056753,16.314449333983493,20.44999885559082,20.739999771118164,20.299999237060547,20.389999389648438,16.605587619729196,16.84107103694584,16.48378654648613,16.556867500188904,16.621828175837518,0.01884089591756831,-7.400000095367432,0.0,0.0,0.0,0.0,0.0,0.0,,,,,
frame_00088.png,1771858892248328234,1771858892.2483282,42.30086940303248,-83.69751398643562,238.2771453857422,-0.01648541926787117,-0.9994061062394566,-0.014983631709463567,-0.02628985628803358,-0.011280000000000002,0.01847,0.00824,-1.1172,-0.8315,-9.1644,7.2770357478755185,16.278292345852662,20.5,20.420000076293945,20.389999389648438,20.209999084472656,16.64618901,16.581228334351387,16.556867500188904,16.410705592783355,16.548747609330913,0.016614473909921927,-6.599999904632568,0.0,0.0,0.0,0.0,0.0,0.0,,,,,
frame_00089.png,1771858892300621101,1771858892.300621,42.30086945546609,-83.69751927033086,238.26365661621094,-0.016823211881458744,-0.9994073374629383,-0.015177913333884383,-0.025914943836730098,0.01685,0.0267,0.019050000000000004,-1.3049000000000002,-0.3972,-11.485700000000001,7.276025796061448,16.276033144241694,20.43000030517578,20.40999984741211,20.389999389648438,20.229999542236328,16.589348612405548,16.573108056297226,16.556867500188904,16.426946148891677,16.536567579445837,0.016007244080620306,-5.900000095367432,0.0,0.0,0.0,0.0,0.0,0.0,,,,,
frame_00090.png,1771858892350315362,1771858892.3503153,42.300869517854274,-83.69752456802874,238.2530059814453,-0.0171906858576909,-0.9994121265316518,-0.014043639383778124,-0.026127721945899105,0.06694000000000001,-0.0089,0.012880000000000003,-1.3584,-1.1534,-11.745700000000001,7.292970607617263,16.313937671003362,20.439998626708984,20.28999900817871,20.479999542236328,20.279998779296875,16.597467341675035,16.47566626843197,16.62994845389168,16.467545990377808,16.542657013594123,0.01401987350958746,-5.5,0.0,0.0,0.0,0.0,0.0,0.0,,,,,
frame_00091.png,1771858892402574651,1771858892.4025745,42.300869544384625,-83.69752633625492,238.25022888183594,-0.01758316436206775,-0.999406764953703,-0.013194091064229065,-0.026511628708534542,0.05984000000000001,-0.030130000000000004,0.01912,-0.48140000000000005,1.2093,-10.7492,7.30755777682606,16.346568293293288,20.309999465942383,20.260000228881836,20.44999885559082,20.34000015258789,16.49190682454029,16.451306983054163,16.605587619729196,16.516267658702777,16.516267271506607,0.010381321337209549,-5.599999904632568,0.0,0.0,0.0,0.0,0.0,0.0,,,,,
frame_00092.png,1771858892451423356,1771858892.4514232,42.300869611608064,-83.69753163639372,238.24374389648438,-0.01799205844506241,-0.9993976949026004,-0.012342623058406638,-0.026985049792735884,0.026380000000000004,-0.01353,0.006240000000000001,-1.0026000000000002,0.616,-10.376100000000001,7.2947654281217655,16.3179525767827,20.459999084472656,20.3799991607666,20.489999771118164,20.369998931884766,16.613707897783357,16.548747222134743,16.63806873194584,16.540626944080582,16.585287698986132,0.016382883878691797,-5.700000286102295,0.0,0.0,0.0,0.0,0.0,0.0,,,,,
frame_00093.png,1771858892510149510,1771858892.5101497,42.30086967923188,-83.69753693313235,238.23764038085938,-0.01827100354696093,-0.9993955452760672,-0.01196531933343982,-0.0270471004913232,0.03531,-0.01271,0.00177,-0.48760000000000003,0.49770000000000003,-8.523900000000001,7.295432392271852,16.3194445355686,20.399999618530273,20.44999885559082,20.389999389648438,20.459999084472656,16.564987778243065,16.605587619729196,16.556867500188904,16.613707897783357,16.58528769898613,0.01628996396526349,-5.800000190734863,0.0,0.0,0.0,0.0,0.0,0.0,,,,,
frame_00094.png,1771858892551289004,1771858892.551289,42.30086972665935,-83.69754045938635,238.232421875,-0.018373766987005047,-0.99940572741829,-0.011682118291986295,-0.026723113636661088,0.024830000000000005,0.025640000000000007,0.0015,0.6257,0.6162000000000001,-8.75,7.278633914195861,16.28186734802129,20.229999542236328,20.219999313354492,20.43000030517578,20.40999984741211,16.426946148891677,16.41882587083752,16.589348612405548,16.573108056297226,16.502057172107992,0.013523622283623488,-5.800000190734863,0.0,0.0,0.0,0.0,0.0,0.0,,,,,
frame_00095.png,1771858892601590092,1771858892.60159,42.30086979261655,-83.69754574384416,238.22242736816406,-0.018477617496368004,-0.9994111474294401,-0.011495820108457021,-0.026528893031214425,-0.00109,-0.04553000000000001,0.01012,-3.0929,0.29150000000000004,-9.1956,7.27187232641329,16.266742081846946,20.299999237060547,20.350000381469727,20.34000015258789,20.5,16.48378654648613,16.524387936756934,16.516267658702777,16.64618901,16.54265778798646,0.016961952476484247,-5.800000190734863,0.0,0.0,0.0,0.0,0.0,0.0,,,,,
frame_00096.png,1771858892651964784,1771858892.6519647,42.30086983447598,-83.69755102234078,238.2124786376953,-0.01863830266042721,-0.9994243682794313,-0.012577230054448267,-0.025403917952859404,-0.09696000000000002,-0.03372000000000001,0.021550000000000003,-1.7827000000000002,-0.1589,-10.8293,7.265187908868939,16.251789440865288,20.34000015258789,20.34000015258789,20.469999313354492,20.5,16.516267658702777,16.516267658702777,16.621828175837518,16.64618901,16.575138125810767,0.01989618965480907,-5.800000190734863,0.0,0.0,0.0,0.0,0.0,0.0,,,,,
frame_00097.png,1771858892702578388,1771858892.7025785,42.30086984535831,-83.69755278623909,238.20896911621094,-0.018938610811238987,-0.9994419993665002,-0.01293422022497269,-0.024284251481258127,0.00949,0.02807,-0.005030000000000001,0.7417,-1.6324,-7.9192,7.26552351130793,16.252540163385163,20.25,20.34000015258789,20.369998931884766,20.3799991607666,16.443186705,16.516267658702777,16.540626944080582,16.548747222134743,16.512207132479524,0.015977008300484433,-5.800000190734863,0.0,0.0,0.0,0.0,0.0,0.0,,,,,
frame_00098.png,1771858892752185821,1771858892.7521858,42.30086988828561,-83.69755806761361,238.19912719726562,-0.01913330145014286,-0.9994508685693602,-0.0130709772500331,-0.023686022150172743,-0.0012100000000000001,-0.009580000000000002,-0.007570000000000001,-0.4164,-3.9551000000000003,-11.997200000000001,7.27577965182638,16.275482534356506,20.299999237060547,20.31999969482422,20.270000457763672,20.31999969482422,16.48378654648613,16.50002710259445,16.459427261108324,16.50002710259445,16.48581700319584,0.012923393723985281,-5.700000286102295,0.0,0.0,0.0,0.0,0.0,0.0,,,,,
frame_00099.png,1771858892803567008,1771858892.8035672,42.30086994505641,-83.69756335154821,238.19029235839844,-0.01933874684202852,-0.9994516161342262,-0.013254170867912819,-0.023383901125931913,0.015090000000000003,0.009910000000000002,-0.009630000000000001,0.0707,-0.9489000000000001,-10.815000000000001,7.27691393550225,16.278019858882406,20.299999237060547,20.35999870300293,20.279998779296875,20.279998779296875,16.48378654648613,16.53250666602642,16.467545990377808,16.467545990377808,16.48784629831704,0.012890169765958366,-5.599999904632568,0.0,0.0,0.0,0.0,0.0,0.0,,,,,
frame_00100.png,1771858892853231382,1771858892.8532314,42.300870025809026,-83.69756862986225,238.18267822265625,-0.019571246158991473,-0.9994647262223787,-0.012336606073702575,-0.02313083464970439,0.06244,-0.00101,0.00909,-0.7945,0.6469,-9.9831,7.256518662716849,16.23239685737783,20.270000457763672,20.229999542236328,20.369998931884766,20.189998626708984,16.459427261108324,16.426946148891677,16.540626944080582,16.394465036675037,16.45536634768891,0.013736079290701747,-5.5,0.0,0.0,44.0,0.0,0.0,0.0,,,,,
frame_00101.png,1771858892904696122,1771858892.904696,42.300870084786304,-83.6975721418508,238.17758178710938,-0.01971936177818756,-0.999487850735455,-0.011308876402213126,-0.022523150707693503,0.05757,0.03527,0.01156,-0.1258,0.2605,-10.0256,7.243425823425398,16.20310896145321,20.219999313354492,20.31999969482422,20.44999885559082,20.3799991607666,16.41882587083752,16.50002710259445,16.605587619729196,16.548747222134743,16.518296953823977,0.019452315794492966,-5.800000190734863,0.0,0.0,0.0,0.0,0.0,0.0,,,,,
frame_00102.png,1771858892954389382,1771858892.9543896,42.30087014003066,-83.6975756548808,238.17327880859375,-0.01985831215786743,-0.9995001885145907,-0.010827087390263564,-0.022086076523055533,0.021790000000000004,0.009840000000000002,0.009260000000000001,0.021400000000000002,0.0145,-11.3595,7.249916038045502,16.217627182145506,20.189998626708984,20.15999984741211,20.149999618530273,19.969999313354492,16.394465036675037,16.370105751297224,16.361985473243067,16.215823565837518,16.33559495676321,0.007274046523129961,-6.200000286102295,0.0,0.0,0.0,0.0,0.0,0.0,,,,,
frame_00103.png,1771858893006006570,1771858893.0060065,42.300870210328775,-83.69758093123582,238.16830444335938,-0.020145793931557576,-0.9994963733918505,-0.011106400325743504,-0.02185850944621358,-0.035870000000000006,-0.010600000000000002,0.0059900000000000005,2.3567,-2.2378,-7.175000000000001,7.286713409509368,16.29994069426789,20.119998931884766,20.1299991607666,20.350000381469727,20.260000228881836,16.337624639080584,16.34574491713474,16.524387936756934,16.451306983054163,16.414766119006607,0.007044530215934996,-6.5,0.0,0.0,0.0,0.0,0.0,0.0,,,,,
frame_00104.png,1771858893064815881,1771858893.0648158,42.300870254620314,-83.69758622183073,238.1648406982422,-0.020722001282657332,-0.999424786748178,-0.012860001951893903,-0.023565115021954297,-0.019500000000000003,-0.0942,0.01042,-0.9146000000000001,-0.3734,-8.0749,7.26365231377223,16.248354406769653,20.270000457763672,20.18000030517578,20.279998779296875,20.260000228881836,16.459427261108324,16.38634630740555,16.467545990377808,16.451306983054163,16.44115663548646,0.011865954169271397,-6.200000286102295,0.0,0.0,0.0,0.0,0.0,0.0,,,,,
frame_00105.png,1771858893106037823,1771858893.1060379,42.30087029880633,-83.69759150679309,238.1627960205078,-0.021250641419210847,-0.9993776843593554,-0.013515484151862905,-0.024697893269376086,0.011860000000000002,-0.019680000000000003,0.010770000000000002,-0.1791,0.2369,-8.8854,7.252922709453708,16.22435292568538,20.309999465942383,20.25,20.149999618530273,20.260000228881836,16.49190682454029,16.443186705,16.361985473243067,16.451306983054163,16.43709649645938,0.013112607433310705,-6.200000286102295,0.0,0.0,0.0,0.0,0.0,0.0,,,,,
frame_00106.png,1771858893178540020,1771858893.17854,42.30087035186214,-83.69759677733124,238.15609741210938,-0.021842071628957294,-0.9993450069343066,-0.013988858846303145,-0.025234754815613315,-0.012670000000000002,0.013080000000000001,0.01233,-0.7138,1.8389,-9.1286,7.2391420616737685,16.193526443440522,20.34000015258789,20.119998931884766,20.219999313354492,20.09000015258789,16.516267658702777,16.337624639080584,16.41882587083752,16.313265353702775,16.396495880580915,0.012533986210434672,-6.0,0.0,0.0,44.0,0.0,0.0,0.0,,,,,
frame_00107.png,1771858893219077062,1771858893.219077,42.300870372530724,-83.69759853041973,238.15313720703125,-0.022003048987353224,-0.9993350420055105,-0.014350867818302044,-0.025286206674118468,-0.01932,-0.00591,0.009060000000000002,-1.5350000000000001,2.1357,-9.651100000000001,7.231315879505182,16.176019743500323,20.149999618530273,20.239999771118164,20.189998626708984,20.139999389648438,16.361985473243067,16.43506642694584,16.394465036675037,16.353865195188906,16.386345533013213,0.013002320277050892,-5.599999904632568,0.0,0.0,0.0,0.0,0.0,0.0,,,,,
frame_00108.png,1771858893268080671,1771858893.2680807,42.3008704586559,-83.69760378414146,238.1444549560547,-0.022170311955326483,-0.9993453079429693,-0.013625265632320634,-0.02513533163942976,0.04961000000000001,-0.012210000000000002,0.0029400000000000003,-0.8593000000000001,1.6889,-11.3724,7.228643667133765,16.170042164758204,20.219999313354492,20.189998626708984,20.3799991607666,20.189998626708984,16.41882587083752,16.394465036675037,16.548747222134743,16.394465036675037,16.439125791580583,0.016640873541371053,-4.700000286102295,0.0,0.0,0.0,0.0,0.0,0.0,,,,,
frame_00109.png,1771858893321162298,1771858893.3211622,42.30087052605397,-83.69760728684675,238.14035034179688,-0.02225038479373559,-0.9993536106735275,-0.012538777554854184,-0.025299412399184214,0.03212,-0.016800000000000002,0.01012,-0.2909,-0.07050000000000001,-9.9338,7.22802048013716,16.16864813283802,20.219999313354492,20.1299991607666,20.35999870300293,20.189998626708984,16.41882587083752,16.34574491713474,16.53250666602642,16.394465036675037,16.42288562266843,0.015724103075387245,-4.200000286102295,0.0,0.0,0.0,0.0,0.0,0.0,,,,,
frame_00110.png,1771858893368724213,1771858893.368724,42.30087062919293,-83.69761253855353,238.1365509033203,-0.02251391384547441,-0.9993503886749362,-0.01168525114621526,-0.025600375861735452,0.013050000000000003,-0.00966,0.011420000000000001,-0.4524,-0.36920000000000003,-9.2538,7.2218347273179555,16.15481097492663,20.219999313354492,20.34000015258789,20.18000030517578,20.149999618530273,16.41882587083752,16.516267658702777,16.38634630740555,16.361985473243067,16.420856327547227,0.01646849059599139,-4.5,0.0,0.0,0.0,0.0,0.0,0.0,,,,,
frame_00111.png,1771858893418861480,1771858893.4188616,42.30087072459089,-83.69761778770429,238.1320343017578,-0.022805559699588973,-0.9993454643899509,-0.011576328893797876,-0.025583937526589606,0.00524,0.007490000000000002,0.008090000000000002,-0.2798,-0.4428,-8.9727,7.217334884267167,16.1447450960126,20.260000228881836,20.170000076293945,20.189998626708984,20.189998626708984,16.451306983054163,16.37822602935139,16.394465036675037,16.394465036675037,16.404615771438905,0.016096300925214895,-4.5,0.0,0.0,0.0,0.0,0.0,0.0,,,,,
frame_00112.png,1771858893459119364,1771858893.4591193,42.300870780704365,-83.69762128294683,238.12738037109375,-0.02308464641441821,-0.9993363010738996,-0.011792377104407534,-0.025592895461143298,-0.009450000000000002,0.005230000000000001,0.012770000000000002,-0.6361,0.7191000000000001,-9.0104,7.216500018416964,16.142877551197643,20.19999885559082,20.189998626708984,20.229999542236328,20.189998626708984,16.402585314729194,16.394465036675037,16.426946148891677,16.394465036675037,16.40461538424274,0.016213827566676782,-4.300000190734863,0.0,0.0,28.0,0.0,0.0,0.0,,,,,
frame_00113.png,1771858893519762769,1771858893.5197628,42.30087086320316,-83.69762652589799,238.11825561523438,-0.023336803058005784,-0.9993335116989158,-0.01196221065394472,-0.02539353332672103,0.006870000000000001,0.015520000000000003,0.0036600000000000005,-0.5754,0.4985,-9.1203,7.203431314190758,16.113643643965876,20.239999771118164,20.189998626708984,20.149999618530273,20.189998626708984,16.43506642694584,16.394465036675037,16.361985473243067,16.394465036675037,16.396495493384748,0.01755356241384874,-3.6000001430511475,0.0,0.0,0.0,0.0,0.0,0.0,,,,,
frame_00114.png,1771858893569551597,1771858893.5695517,42.300870920258724,-83.69763001288551,238.11122131347656,-0.023402825283921513,-0.9993461595800395,-0.011971931585164094,-0.024824060011944628,0.0035700000000000007,0.036210000000000006,0.0023300000000000005,-0.5328,0.39280000000000004,-9.7719,7.190607812172937,16.08495823936213,20.19999885559082,20.149999618530273,20.18000030517578,20.170000076293945,16.402585314729194,16.361985473243067,16.38634630740555,16.37822602935139,16.382285781182297,0.01848481900889023,-3.0,0.0,0.0,0.0,0.0,0.0,0.0,,,,,
frame_00115.png,1771858893620657203,1771858893.6206572,42.300871011137076,-83.69763523566051,238.1010284423828,-0.02355921841787567,-0.999379710380395,-0.01149187914175398,-0.02351795954856956,0.022950000000000005,0.032720000000000006,0.007810000000000001,0.08120000000000001,0.7233,-10.689,7.186038944807849,16.07473795719847,20.1299991607666,20.10999870300293,20.189998626708984,20.10999870300293,16.34574491713474,16.32950436102642,16.394465036675037,16.32950436102642,16.349804668965653,0.017111738461901723,-2.6000001430511475,0.0,0.0,0.0,0.0,0.0,0.0,,,,,
frame_00116.png,1771858893680433704,1771858893.6804338,42.30087111152387,-83.6976404499373,238.09344482421875,-0.02368399742059657,-0.9994143902802954,-0.010158881152872674,-0.022510928469707186,0.05816,0.03137,0.0005600000000000002,-0.7055,0.16690000000000002,-10.4068,7.175663875030197,16.05152954861005,20.09000015258789,20.149999618530273,20.279998779296875,20.18000030517578,16.313265353702775,16.361985473243067,16.467545990377808,16.38634630740555,16.3822857811823,0.02060590123642724,-2.5,0.0,0.0,0.0,0.0,0.0,0.0,,,,,
frame_00117.png,1771858893721228527,1771858893.7212286,42.30087114564658,-83.69764218697162,238.091796875,-0.023735380920401727,-0.9994292603207788,-0.00961930157699064,-0.022028489380691074,0.034570000000000004,0.028400000000000005,0.0031800000000000005,-0.4621,0.2889,-10.842400000000001,7.1718775554685354,16.043059778929788,20.03999900817871,20.010000228881836,20.149999618530273,20.189998626708984,16.27266396343197,16.24830467805416,16.361985473243067,16.394465036675037,16.31935478785106,0.017222089347578618,-2.5,0.0,0.0,0.0,0.0,0.0,0.0,,,,,
frame_00118.png,1771858893771053474,1771858893.7710536,42.30087124585318,-83.69764740242768,238.0885772705078,-0.023812413727239246,-0.9994352287042556,-0.009765403848953696,-0.02160623671587451,-0.00909,0.010690000000000002,-0.0015900000000000003,-0.1351,-0.0729,-9.8922,7.17841276369478,16.0576786476194,19.959999084472656,19.969999313354492,20.1299991607666,20.029998779296875,16.207703287783357,16.215823565837518,16.34574491713474,16.26454368537781,16.258453864033356,0.01250337740715224,-2.5,0.0,0.0,44.0,0.0,0.0,0.0,,,,,
frame_00119.png,1771858893822094082,1771858893.822094,42.30087131135933,-83.69765088743442,238.0871124267578,-0.023831201029028803,-0.9994291194212901,-0.0096898268846447,-0.021900145324731703,0.019260000000000003,-0.025860000000000005,-0.0030700000000000002,-0.1218,0.19060000000000002,-9.842500000000001,7.194933160940058,16.094633785033256,20.010000228881836,19.939998626708984,20.0,19.959999084472656,16.24830467805416,16.191462731675035,16.2401844,16.207703287783357,16.22191377437814,0.007908225253515566,-2.5,0.0,0.0,56.0,0.0,0.0,0.0,,,,,
frame_00120.png,1771858893863403101,1771858893.863403,42.300871405787284,-83.69765612218254,238.08421325683594,-0.023914221612199194,-0.9994131467140326,-0.008980700305416965,-0.02282146362226335,0.027470000000000005,-0.04295000000000001,0.0034400000000000008,-0.3759,-0.05,-8.4536,7.203314958810623,16.113383363961834,20.020000457763672,19.969999313354492,19.959999084472656,20.029998779296875,16.256424956108322,16.215823565837518,16.207703287783357,16.26454368537781,16.236123873776755,0.007617302154520499,-2.4000000953674316,0.0,0.0,0.0,0.0,0.0,0.0,,,,,
frame_00121.png,1771858893922851121,1771858893.922851,42.300871502676465,-83.69766135956911,238.07821655273438,-0.024052242341882746,-0.9993737731540928,-0.008905600064665321,-0.024377068272605603,0.006730000000000001,-0.04555000000000001,0.005420000000000001,-0.9154,0.6266,-8.9832,7.199001932238635,16.103735382301892,20.06999969482422,20.0,20.049999237060547,20.0,16.297024797594453,16.2401844,16.28078424148613,16.2401844,16.264544459770146,0.009985824633270158,-2.200000047683716,0.0,0.0,0.0,0.0,0.0,0.0,,,,,
frame_00122.png,1771858893964726881,1771858893.9647267,42.300871563766975,-83.69766484854311,238.07298278808594,-0.024140310101093188,-0.9993541107908948,-0.008964314302791931,-0.0250648706887512,0.0019900000000000004,-0.03373,0.007070000000000001,-0.8691000000000001,1.5721,-9.2421,7.1851122033693455,16.072664892205026,20.09000015258789,20.1299991607666,20.010000228881836,19.979999542236328,16.313265353702775,16.34574491713474,16.24830467805416,16.22394384389168,16.28281469819584,0.013074982114057034,-2.200000047683716,0.0,0.0,0.0,0.0,0.0,0.0,,,,,
frame_00123.png,1771858894036366466,1771858894.0363667,42.300871669041086,-83.6976700582614,238.064208984375,-0.024123208546483255,-0.9993645321869462,-0.007784646331476661,-0.025059966035145827,0.04284,0.018160000000000003,-0.00384,-0.872,0.6161,-10.134,7.150211319783404,15.99459370967629,19.959999084472656,19.979999542236328,20.049999237060547,19.959999084472656,16.207703287783357,16.22394384389168,16.28078424148613,16.207703287783357,16.23003366523613,0.014719970999788987,-2.1000001430511475,0.0,0.0,28.0,0.0,0.0,0.0,,,,,
frame_00124.png,1771858894073887864,1771858894.0738878,42.30087174655059,-83.69767352002272,238.0592041015625,-0.024055827310059785,-0.9993799682195861,-0.007128092478499803,-0.024701955215445888,0.044140000000000006,0.026320000000000003,-0.006950000000000001,-0.3189,-0.07060000000000001,-10.937000000000001,7.144782068142441,15.982448799510554,19.920000076293945,19.959999084472656,20.049999237060547,20.059999465942383,16.175223724351387,16.207703287783357,16.28078424148613,16.288904519540292,16.238153943290293,0.015999121723297483,-2.1000001430511475,0.0,0.0,0.0,0.0,0.0,0.0,,,,,
frame_00125.png,1771858894116917861,1771858894.1169178,42.300871861631045,-83.69767871909167,238.0553436279297,-0.023911893705612253,-0.9993878361181064,-0.006457912855792527,-0.024707685446587278,0.027070000000000004,-0.015770000000000003,-0.011050000000000003,-0.2692,-0.4806,-11.72,7.147753956242159,15.989096734876336,20.03999900817871,19.899999618530273,20.149999618530273,20.079999923706055,16.27266396343197,16.158983168243065,16.361985473243067,16.305145075648614,16.274694420141678,0.017862027480412965,-2.1000001430511475,0.0,0.0,0.0,0.0,0.0,0.0,,,,,
frame_00126.png,1771858894166009102,1771858894.1660092,42.300871897774684,-83.69768045477274,238.05538940429688,-0.02391852685795881,-0.9993730623698025,-0.006589685395858138,-0.025257916163673583,-0.01744,-0.036390000000000006,0.005000000000000001,-0.9306000000000001,0.5304,-10.5207,7.145682978281857,15.98446408143782,20.139999389648438,19.969999313354492,20.18000030517578,20.119998931884766,16.353865195188906,16.215823565837518,16.38634630740555,16.337624639080584,16.32341492687814,0.02120501780437746,-2.1000001430511475,0.0,0.0,0.0,0.0,0.0,0.0,,,,,
frame_00127.png,1771858894239560150,1771858894.2395601,42.30087205382345,-83.6976891050848,238.053466796875,-0.024061367241847098,-0.9993713346364322,-0.006461022524041642,-0.025223824083457105,0.02909,0.028670000000000005,0.006940000000000001,-0.9754,-0.5158,-6.6371,7.116413745351959,15.918990563527613,20.09000015258789,19.969999313354492,19.979999542236328,19.8799991607666,16.313265353702775,16.215823565837518,16.22394384389168,16.142742612134743,16.22394384389168,0.019156571463943915,-2.0,0.0,0.0,0.0,0.0,0.0,0.0,,,,,
frame_00128.png,1771858894268202462,1771858894.2682025,42.30087208560903,-83.69769082998035,238.0504608154297,-0.024115169679112425,-0.9993943598584385,-0.0061325251667724585,-0.024326204175097083,0.025600000000000005,0.07288000000000001,0.0006600000000000001,-0.4766,0.3544,-7.1084000000000005,7.104163602520261,15.891587729021674,20.010000228881836,20.010000228881836,19.8799991607666,19.959999084472656,16.24830467805416,16.24830467805416,16.142742612134743,16.207703287783357,16.211763814006606,0.020147520212861824,-1.899999976158142,0.0,0.0,0.0,0.0,0.0,0.0,,,,,
frame_00129.png,1771858894317854959,1771858894.317855,42.30087218032954,-83.69769599176495,238.03477478027344,-0.024213166427193622,-0.9994379058433971,-0.005679513491807292,-0.02247972556394886,-0.011930000000000003,0.07745000000000002,0.0041800000000000006,-0.19410000000000002,-0.45890000000000003,-8.734200000000001,7.108197828056491,15.900612049492688,19.93000030517578,19.84000015258789,19.779998779296875,19.81999969482422,16.183344002405548,16.110263048702777,16.061541380377808,16.094022492594455,16.112292731020148,0.013312737954273488,-1.0,0.0,0.0,0.0,0.0,0.0,0.0,,,,,
frame_00130.png,1771858894368002720,1771858894.368003,42.300872245368126,-83.69769943493985,238.02281188964844,-0.02420584091101491,-0.9994570029311141,-0.0055565801166084176,-0.02165412143573118,0.024290000000000003,0.033650000000000006,-0.00068,-0.6392,0.2511,-12.905100000000001,7.119379921209436,15.925625720950237,19.899999618530273,19.549999237060547,19.739999771118164,19.84000015258789,16.158983168243065,15.874779631486131,16.029061816945838,16.110263048702777,16.04327191634445,0.007387225937342671,0.20000000298023224,0.0,0.0,0.0,0.0,0.0,0.0,,,,,
frame_00131.png,1771858894418448013,1771858894.4184482,42.30087236051717,-83.69770462322447,238.01100158691406,-0.02413292838233766,-0.9994508123123498,-0.004478191719854235,-0.022262554543388022,0.054290000000000005,-0.06568,-0.0017800000000000001,-0.058100000000000006,1.6631,-13.007000000000001,7.156886755971589,16.009526259903087,19.439998626708984,19.600000381469727,19.75,19.649999618530273,15.785458121675035,15.915381021756936,16.037182095000002,15.955980863243067,15.92350052541876,0.005373409124527566,1.2000000476837158,0.0,0.0,0.0,0.0,0.0,0.0,,,,,
frame_00132.png,1771858894469396993,1771858894.469397,42.30087248800072,-83.69770984649679,238.0072784423828,-0.02399593287401186,-0.9993967719934388,-0.0026454717954793993,-0.02496575281419895,0.07669000000000001,-0.15744000000000002,-0.005860000000000001,1.7118,0.6868000000000001,-12.038300000000001,7.208318267925651,16.124575466253606,19.6299991607666,19.44999885559082,19.59000015258789,19.6299991607666,15.939740307134743,15.793578399729196,15.907260743702773,15.939740307134743,15.895079939425363,0.014232655446249983,1.399999976158142,0.0,0.0,0.0,0.0,0.0,0.0,,,,,
frame_00133.png,1771858894519922190,1771858894.5199223,42.3008725288121,-83.69771159691484,238.00721740722656,-0.023972624536827913,-0.9992953347271067,-0.0018331255053177769,-0.0288233744786749,-0.013720000000000001,-0.21453000000000003,-0.008040000000000002,1.4282000000000001,-1.4693,-9.931700000000001,7.235498310003587,16.185375589579426,19.619998931884766,19.510000228881836,19.69999885559082,19.779998779296875,15.931620029080582,15.842300068054161,15.996580704729196,16.061541380377808,15.958010545560438,0.014047560574706214,1.100000023841858,0.0,0.0,0.0,0.0,0.0,0.0,,,,,
frame_00134.png,1771858894569575777,1771858894.5695758,42.300872635707385,-83.69771686744508,238.0085906982422,-0.023833724283629232,-0.9990699711255917,-0.0019929281367139506,-0.03587721588032543,-0.01896,-0.22967000000000004,-0.007170000000000001,-0.5457000000000001,-1.4056,-8.289100000000001,7.217537799854047,16.145199006005512,19.649999618530273,19.65999984741211,19.739999771118164,19.850000381469727,15.955980863243067,15.964101141297226,16.029061816945838,16.118383326756934,16.01688178706077,0.00794770128860066,1.100000023841858,0.0,0.0,0.0,0.0,0.0,0.0,,,,,
frame_00135.png,1771858894629852363,1771858894.6298525,42.300872720476875,-83.69772211144301,238.00706481933594,-0.02380210705548841,-0.9988906490917375,-0.0029948120310546514,-0.04052112976836883,-0.050420000000000006,-0.17322000000000004,-0.006940000000000001,-3.048,-0.18380000000000002,-8.3134,7.1552696247138865,16.005908834307483,20.0,20.03999900817871,19.959999084472656,19.979999542236328,16.2401844,16.27266396343197,16.207703287783357,16.22394384389168,16.23612387377675,0.014383128246727184,1.899999976158142,0.0,0.0,0.0,0.0,0.0,0.0,,,,,
frame_00136.png,1771858894679415105,1771858894.679415,42.30087279347782,-83.69772728866108,237.9992218017578,-0.023655427516069916,-0.9988322420344008,-0.004120577325020861,-0.041923667111456904,-0.05212000000000001,0.00877,-0.00515,-3.3367,0.5308,-7.9965,7.048864975895034,15.767888019178638,19.75,19.829999923706055,19.920000076293945,20.18000030517578,16.037182095000002,16.102142770648612,16.175223724351387,16.38634630740555,16.175223724351387,0.02583324441911954,2.6000001430511475,0.0,0.0,0.0,0.0,0.0,0.0,,,,,
frame_00137.png,1771858894721271408,1771858894.7212713,42.300872817063635,-83.69772899366528,237.99497985839844,-0.02341010341142663,-0.9989285614758228,-0.005117622718268627,-0.039591742369121594,-0.04293,0.13871000000000003,-0.004890000000000001,-2.2396000000000003,-0.5009,-9.1122,7.015669962178877,15.693632765196417,19.889999389648438,19.84000015258789,20.0,20.10999870300293,16.150862890188904,16.110263048702777,16.2401844,16.32950436102642,16.207703674979527,0.03275665471943236,3.299999952316284,0.0,0.0,0.0,0.0,0.0,0.0,,,,,
frame_00138.png,1771858894780029722,1771858894.7800298,42.30087288099236,-83.69773408363464,237.98049926757812,-0.023187375461814486,-0.9990574915669204,-0.005997231115709134,-0.03620093068072638,-0.016880000000000003,0.18311000000000002,-0.018990000000000003,-1.3675000000000002,-0.162,-9.0297,6.966366318818224,15.583343473217239,19.6299991607666,19.779998779296875,20.229999542236328,20.260000228881836,15.939740307134743,16.061541380377808,16.426946148891677,16.451306983054163,16.2198837048646,0.040847474917136306,3.9000000953674316,0.0,0.0,0.0,0.0,0.0,0.0,,,,,
frame_00139.png,1771858894831001671,1771858894.8310015,42.300872949794744,-83.69773914347854,237.96446228027344,-0.022798220417634907,-0.9992376639755395,-0.007096198700901552,-0.030886501946532894,-0.0037700000000000003,0.18567,-0.025050000000000003,1.6162,1.6858000000000002,-10.4722,6.975396590021361,15.603543648082383,19.670000076293945,19.869998931884766,20.270000457763672,19.94999885559082,15.972221419351389,16.134622334080582,16.459427261108324,16.199583009729196,16.19146350606737,0.03767861142601683,4.099999904632568,0.0,0.0,0.0,0.0,0.0,0.0,,,,,
frame_00140.png,1771858894873761928,1771858894.8737621,42.300873045148926,-83.69774420238932,237.94932556152344,-0.022232459564752005,-0.9993774209107242,-0.006587623037542267,-0.026591192869932608,0.06013000000000001,0.15566000000000002,-0.030760000000000003,1.3006,2.7488,-8.4593,6.9893490121076,15.634754379143976,19.78999900817871,19.93000030517578,19.829999923706055,20.079999923706055,16.06966165843197,16.183344002405548,16.102142770648612,16.305145075648614,16.165073376783685,0.03391924073633862,3.9000000953674316,0.0,0.0,0.0,0.0,0.0,0.0,,,,,
frame_00141.png,1771858894923694746,1771858894.9236948,42.30087307955192,-83.69774588881938,237.9439239501953,-0.021609782809512312,-0.9994804697841684,-0.005013253601512143,-0.02338108413377275,0.04653000000000001,0.19254000000000002,-0.026230000000000003,-0.8676,-1.5392000000000001,-6.164000000000001,6.986697288910092,15.628822633454542,19.6299991607666,19.869998931884766,19.53999900817871,19.44999885559082,15.939740307134743,16.134622334080582,15.866659353431968,15.793578399729196,15.933650098594121,0.019504186098259,3.5,0.0,0.0,0.0,0.0,0.0,0.0,,,,,
frame_00142.png,1771858894983521455,1771858894.9835215,42.30087321565132,-83.69775265817992,237.90399169921875,-0.02065721252195185,-0.999598569147983,-0.004603663785533734,-0.018835774682182525,-0.022490000000000003,0.07219000000000002,-0.016010000000000003,0.10790000000000001,1.0927,-15.3244,7.014506799638278,15.691030840382851,19.549999237060547,19.619998931884766,19.25,19.350000381469727,15.874779631486131,15.931620029080582,15.631177485000002,15.712378716756936,15.787488965580913,0.006147341508616163,3.1000001430511475,0.0,0.0,0.0,0.0,0.0,0.0,,,,,
frame_00143.png,1771858895034449238,1771858895.034449,42.30087329859608,-83.69775776266883,237.8759307861328,-0.02019342768815391,-0.9996272598712039,-0.0045802319360290725,-0.017792927696250186,-0.032440000000000004,-0.05927000000000001,-0.009880000000000002,0.0337,-0.4249,-13.406500000000001,7.057665336463578,15.787573897748837,19.25,19.34000015258789,19.309999465942383,19.35999870300293,15.631177485000002,15.704258438702775,15.679897604540292,15.720497446026421,15.683957743567372,0.006563146107980489,2.9000000953674316,0.0,0.0,0.0,0.0,0.0,0.0,,,,,
frame_00144.png,1771858895095658648,1771858895.0956588,42.30087334338973,-83.69776118177538,237.86444091796875,-0.020013086761613952,-0.9995920179445632,-0.0053340546609623235,-0.019667787894470535,-0.02324,-0.08220000000000001,-0.00026000000000000003,-1.0526,-0.6708000000000001,-13.7232,7.05691733618624,15.785900666008448,19.189998626708984,19.1299991607666,18.969999313354492,19.010000228881836,15.582455816675035,15.533735697134745,15.403814345837517,15.436295458054161,15.489075329425365,0.018803192979810965,2.1000001430511475,0.0,0.0,0.0,0.0,0.0,0.0,,,,,
frame_00145.png,1771858895124627253,1771858895.124627,42.30087337184348,-83.697764619027,237.8614959716797,-0.019857530358978637,-0.9995124064992882,-0.0063012855979707825,-0.023257720048554045,-0.04876000000000001,-0.23634000000000005,-0.0021400000000000004,-1.469,-0.012700000000000001,-15.1287,7.085872294714238,15.85067117093807,19.09000015258789,19.059999465942383,19.18000030517578,19.229999542236328,15.501256133702775,15.476895299540292,15.57433708740555,15.614936928891678,15.541856362385074,0.019482759135095916,1.399999976158142,0.0,0.0,0.0,0.0,0.0,0.0,,,,,
frame_00146.png,1771858895174534550,1771858895.1745346,42.30087340420099,-83.69776978110566,237.86602783203125,-0.019715013379441926,-0.9993302473884402,-0.008086788552281558,-0.029748592452718665,-0.07513,-0.21602000000000005,-0.006600000000000001,-1.0292000000000001,-0.8061,-11.434000000000001,7.067527903702471,15.809635868908208,19.3799991607666,19.15999984741211,19.510000228881836,19.600000381469727,15.736738002134743,15.558096531297227,15.842300068054161,15.915381021756936,15.763128905810767,0.002941684646191194,0.4000000059604645,0.0,0.0,0.0,0.0,0.0,0.0,,,,,
frame_00147.png,1771858895225308892,1771858895.225309,42.300873428700534,-83.69777492227584,237.87823486328125,-0.019669621192367592,-0.9991416575380332,-0.010103625814186933,-0.03502814467977656,-0.06538000000000001,-0.19023000000000004,-0.00124,-0.5802,1.8903,-7.7974000000000006,7.008531305318868,15.677664018119989,19.5,19.44999885559082,19.469999313354492,19.529998779296875,15.83417979,15.793578399729196,15.809818955837516,15.85853907537781,15.824029055236132,0.009335895765273203,0.20000000298023224,0.0,0.0,0.0,0.0,0.0,0.0,,,,,
frame_00148.png,1771858895285247973,1771858895.285248,42.300873457367054,-83.69777999419753,237.88247680664062,-0.019616372148156758,-0.9990541926627186,-0.011051372975617507,-0.03719926373118504,-0.039520000000000007,-0.00576,-0.010470000000000002,-3.3057000000000003,0.4752,-4.0325,6.9105384913606365,15.458459972864263,19.59000015258789,19.6299991607666,19.6299991607666,19.559999465942383,15.907260743702773,15.939740307134743,15.939740307134743,15.882899909540292,15.917410316878138,0.02968926690107003,0.20000000298023224,0.0,0.0,0.0,0.0,0.0,0.0,,,,,
frame_00149.png,1771858895335392459,1771858895.3353925,42.30087348421664,-83.69778334394249,237.87625122070312,-0.019243682828194553,-0.9991229979412524,-0.011321327894888124,-0.03542235439363371,0.013380000000000003,0.09018000000000002,-0.01616,-0.9522,1.1740000000000002,-6.7138,6.874700610887064,15.378292784517711,19.579999923706055,19.559999465942383,19.469999313354492,19.549999237060547,15.899140465648614,15.882899909540292,15.809818955837516,15.874779631486131,15.866659740628137,0.03175690325015109,0.20000000298023224,0.0,0.0,0.0,0.0,0.0,0.0,,,,,
frame_00150.png,1771858895376777481,1771858895.3767774,42.300873532308266,-83.69778667049802,237.8636016845703,-0.01909404434612999,-0.999227893849141,-0.01071454985961689,-0.032622569574206436,0.048650000000000006,0.18014000000000005,-0.00286,-0.7155,0.9427000000000001,-8.2402,6.862251684695797,15.350445283563417,19.420000076293945,19.34000015258789,19.489999771118164,19.44999885559082,15.769219114351388,15.704258438702775,15.82605951194584,15.793578399729196,15.773278866182299,0.027545362678933715,0.20000000298023224,0.0,0.0,0.0,0.0,0.0,0.0,,,,,
frame_00151.png,1771858895427885776,1771858895.4278858,42.30087355066957,-83.6977883334891,237.85671997070312,-0.01888849363121564,-0.9993578206704545,-0.010046944215211217,-0.028744216550102668,0.020170000000000004,0.14461000000000002,-0.0017200000000000004,0.0954,0.8076,-10.212,6.881126106458566,15.392666232581425,19.43000030517578,19.489999771118164,19.3799991607666,19.439998626708984,15.77733939240555,15.82605951194584,15.736738002134743,15.785458121675035,15.781398757040291,0.02525439833393141,0.4000000059604645,0.0,0.0,0.0,0.0,0.0,0.0,,,,,
frame_00152.png,1771858895487307207,1771858895.4873073,42.30087365438056,-83.69779500065036,237.82655334472656,-0.018703844811274184,-0.9994318737464847,-0.00987498145158441,-0.026240820684521243,-0.012620000000000003,0.0405,-0.00222,-0.22610000000000002,0.2911,-10.6569,6.925157744032839,15.491162363936821,19.329999923706055,19.549999237060547,19.420000076293945,19.43000030517578,15.696138160648614,15.874779631486131,15.769219114351388,15.77733939240555,15.77936907472292,0.018604589120893838,0.5,0.0,0.0,0.0,0.0,0.0,0.0,,,,,
frame_00153.png,1771858895529910013,1771858895.52991,42.300873702318746,-83.6977983466122,237.8141326904297,-0.018578077104041635,-0.9994697962922561,-0.00966282688152417,-0.024932130420209895,0.0014700000000000002,0.05118000000000001,-0.01157,0.7971,-0.9438000000000001,-10.4547,6.923545501935945,15.487555875100593,19.459999084472656,19.459999084472656,19.479999542236328,19.369998931884766,15.801698677783357,15.801698677783357,15.817939233891678,15.728617724080582,15.787488578384743,0.019366044952667597,0.6000000238418579,0.0,0.0,0.0,0.0,0.0,0.0,,,,,
frame_00154.png,1771858895579005650,1771858895.5790057,42.30087379049187,-83.69780505208767,237.79454040527344,-0.01844885034154825,-0.9994867469235947,-0.0098607646780288,-0.024262068442934614,0.00468,0.0009000000000000002,-0.009130000000000001,-0.1779,-0.1544,-10.592400000000001,6.93162516678441,15.505629600586719,19.15999984741211,19.399999618530273,19.439998626708984,19.44999885559082,15.558096531297227,15.752978558243067,15.785458121675035,15.793578399729196,15.722527902736132,0.013988358276093883,0.5,0.0,0.0,0.0,0.0,0.0,0.0,,,,,
frame_00155.png,1771858895629888589,1771858895.6298885,42.3008738174607,-83.69780673141736,237.79006958007812,-0.018267762126550402,-0.9995017778684273,-0.009952062592060966,-0.02373691965913419,0.010410000000000003,0.0024600000000000004,-0.01523,0.7617,-1.0541,-11.2067,6.944963932365154,15.53546761886491,19.6299991607666,19.15999984741211,19.369998931884766,19.510000228881836,15.939740307134743,15.558096531297227,15.728617724080582,15.842300068054161,15.767188657641679,0.014915614029885204,0.800000011920929,0.0,0.0,0.0,0.0,0.0,0.0,,,,,
frame_00156.png,1771858895689237566,1771858895.6892376,42.30087386557354,-83.69781177838777,237.78065490722656,-0.018201567939140406,-0.9994807928192122,-0.011071032634789821,-0.02417188338618435,-0.04113000000000001,-0.022060000000000003,-0.006840000000000001,-0.5930000000000001,-0.1136,-10.0435,6.9286530439281275,15.498981140084586,19.59000015258789,19.489999771118164,19.459999084472656,19.439998626708984,15.907260743702773,15.82605951194584,15.801698677783357,15.785458121675035,15.830119263776751,0.021365154309127568,1.3000000715255737,0.0,0.0,0.0,0.0,0.0,0.0,,,,,
frame_00157.png,1771858895732706774,1771858895.7327068,42.30087390732466,-83.69781680009619,237.77210998535156,-0.018103984178382382,-0.9994819375374047,-0.011766132497343058,-0.023867559980013178,-0.0023500000000000005,0.028140000000000005,-0.0038700000000000006,-2.1762,1.0846,-9.310500000000001,6.882510232672945,15.395762439875417,19.439998626708984,19.549999237060547,19.5,19.469999313354492,15.785458121675035,15.874779631486131,15.83417979,15.809818955837516,15.82605912474967,0.027949033804248135,1.600000023841858,0.0,0.0,0.0,0.0,0.0,0.0,,,,,
frame_00158.png,1771858895781700469,1771858895.7817004,42.30087391688513,-83.69781846971482,237.7693328857422,-0.017998331364624587,-0.9995106176354537,-0.012072658646123197,-0.022557398238665125,-0.03327000000000001,0.06499,-0.010690000000000002,-1.2765,-0.1077,-8.7864,6.864904162151899,15.35637871648407,19.5,19.510000228881836,19.84000015258789,19.739999771118164,15.83417979,15.842300068054161,16.110263048702777,16.029061816945838,15.953951180925696,0.038913631623331287,1.899999976158142,0.0,0.0,0.0,0.0,0.0,0.0,,,,,
frame_00159.png,1771858895831557760,1771858895.8315578,42.3008739611803,-83.6978234536216,237.75942993164062,-0.017837766375054243,-0.9995660510632208,-0.011852378186089266,-0.020224855598039684,8e-05,0.07801000000000001,-0.004390000000000001,-1.0597,-0.8206,-9.769300000000001,6.850495876055816,15.324148244984297,19.479999542236328,19.489999771118164,19.510000228881836,19.43000030517578,15.817939233891678,15.82605951194584,15.842300068054161,15.77733939240555,15.815909551574308,0.032090612719761935,1.899999976158142,0.0,0.0,0.0,0.0,0.0,0.0,,,,,
frame_00160.png,1771858895883361014,1771858895.883361,42.30087401087234,-83.69782843210801,237.74951171875,-0.017710563543141156,-0.9996245532632808,-0.011782341407444866,-0.01727034693134642,0.00338,0.11877000000000001,-0.0033000000000000004,-1.0219,-0.2624,-8.807,6.839178134281937,15.298831135700638,19.209999084472656,19.399999618530273,19.19999885559082,19.25,15.598696372783357,15.752978558243067,15.590576094729194,15.631177485000002,15.643357127688905,0.022519759119655675,1.899999976158142,0.0,0.0,0.0,0.0,0.0,0.0,,,,,
frame_00161.png,1771858895953452606,1771858895.9534526,42.30087407901794,-83.69783508762099,237.73724365234375,-0.017378251536842915,-0.9996682616756669,-0.012342910694878972,-0.014457369312942562,0.00412,0.01806,-0.004950000000000001,0.10400000000000001,0.6936,-10.7612,6.868066684889306,15.363453090096286,19.229999542236328,19.279998779296875,19.520000457763672,19.329999923706055,15.614936928891678,15.65553677037781,15.850420346108324,15.696138160648614,15.704258051506606,0.022182836072836585,1.899999976158142,0.0,0.0,0.0,0.0,0.0,0.0,,,,,
frame_00162.png,1771858895983978740,1771858895.9839787,42.30087407901794,-83.69783508762099,237.73724365234375,-0.017212364213329556,-0.9996716597806996,-0.012499291820817616,-0.014285477012224254,-0.026960000000000005,-0.024270000000000003,-0.007040000000000001,0.0024000000000000002,0.3718,-10.648800000000001,6.890178291815999,15.41291542809488,19.189998626708984,19.19999885559082,19.35999870300293,19.329999923706055,15.582455816675035,15.590576094729194,15.720497446026421,15.696138160648614,15.647416879519817,0.015214607029990175,1.899999976158142,0.0,0.0,0.0,0.0,0.0,0.0,,,,,
frame_00163.png,1771858896042436297,1771858896.0424364,42.30087412895692,-83.69784010153361,237.73374938964844,-0.01700453145949532,-0.9996649905744817,-0.012287942746066467,-0.015157803027945973,0.022600000000000006,-0.05376000000000001,-0.011860000000000002,-0.6681,0.6485000000000001,-10.5516,6.89846185049883,15.431445251854853,19.28999900817871,19.139999389648438,19.059999465942383,18.989999771118164,15.663657048431968,15.541855975188904,15.476895299540292,15.42005490194584,15.525615806276752,0.0061025103536935035,1.899999976158142,0.0,0.0,0.0,0.0,0.0,0.0,,,,,
frame_00164.png,1771858896083896024,1771858896.0838962,42.300874178646225,-83.69784512291353,237.7311248779297,-0.016782783075302565,-0.9996537766341547,-0.012096688985232907,-0.016258387648015706,-0.009020000000000002,-0.05547000000000001,-0.0023000000000000004,-1.4062000000000001,1.2136,-8.7729,6.893237757547257,15.419759269367763,19.15999984741211,19.10999870300293,19.010000228881836,19.010000228881836,15.558096531297227,15.517495141026421,15.436295458054161,15.436295458054161,15.487045647107992,0.004363646446407095,1.899999976158142,0.0,0.0,0.0,0.0,0.0,0.0,,,,,
frame_00165.png,1771858896134625860,1771858896.1346257,42.30087421813143,-83.69785014434729,237.7296600341797,-0.016707245616426614,-0.999632621597855,-0.012740189546616605,-0.01712242248130241,0.004280000000000001,-0.034050000000000004,0.0005700000000000001,-0.10070000000000001,2.9027000000000003,-11.1693,6.872636761497911,15.373676077265138,18.81999969482422,18.94999885559082,19.149999618530273,18.959999084472656,15.282013272594453,15.387573789729194,15.549976253243067,15.395694067783356,15.403814345837517,0.0019603813961547195,1.899999976158142,0.0,0.0,0.0,0.0,0.0,0.0,,,,,
frame_00166.png,1771858896184220212,1771858896.18422,42.30087422312456,-83.697851818903,237.7308807373047,-0.016493875410938774,-0.9995994505337442,-0.01293159104540301,-0.019017479317712582,0.020160000000000004,-0.08513000000000001,-0.0030400000000000006,0.42400000000000004,2.7070000000000003,-11.2039,6.876694775397342,15.382753610877332,19.029998779296875,19.059999465942383,19.189998626708984,19.170000076293945,15.45253446537781,15.476895299540292,15.582455816675035,15.566216809351387,15.51952559773613,0.008891255123665604,1.899999976158142,0.0,0.0,0.0,0.0,0.0,0.0,,,,,
frame_00167.png,1771858896235273512,1771858896.2352734,42.300874269397774,-83.69785851224682,237.74264526367188,-0.016314420153723364,-0.9995642693773061,-0.012529357080538494,-0.021168993608769303,0.031810000000000005,-0.08280000000000001,-0.007130000000000001,-1.1277000000000001,2.6503,-9.0815,6.855589460657236,15.335542288122598,19.020000457763672,19.1299991607666,19.149999618530273,19.15999984741211,15.444415736108322,15.533735697134745,15.549976253243067,15.558096531297227,15.521556054445838,0.012129585170738198,1.8000000715255737,0.0,0.0,0.0,0.0,0.0,0.0,,,,,
frame_00168.png,1771858896294851765,1771858896.2948518,42.30087431191041,-83.69786352117495,237.75155639648438,-0.01596781695766908,-0.9995402048177611,-0.011808290282760106,-0.022912268658357073,0.01314,-0.02553,-0.016840000000000004,-0.7337,-0.7169,-8.4291,6.8352632162888485,15.290073699045177,19.029998779296875,19.100000381469727,19.139999389648438,19.260000228881836,15.45253446537781,15.509376411756936,15.541855975188904,15.639297763054161,15.535766153844452,0.01606875543148091,1.7000000476837158,0.0,0.0,0.0,0.0,0.0,0.0,,,,,
frame_00169.png,1771858896346969731,1771858896.3469698,42.30087434097328,-83.6978668541897,237.75474548339844,-0.015741756908606463,-0.9995330986784521,-0.011499444544845687,-0.023527526662229264,0.011530000000000002,-0.0177,-0.01984,-0.4975,-0.8356,-7.8936,6.825956081578535,15.269254197126289,19.100000381469727,19.059999465942383,19.100000381469727,19.139999389648438,15.509376411756936,15.476895299540292,15.509376411756936,15.541855975188904,15.509376024560767,0.015725838625416953,1.7000000476837158,0.0,0.0,0.0,0.0,0.0,0.0,,,,,
frame_00170.png,1771858896388010414,1771858896.3880105,42.30087439629645,-83.69787183260584,237.75233459472656,-0.015413629494991865,-0.9995363213116505,-0.01115237489358562,-0.023773660609937592,0.0061400000000000005,-0.006520000000000001,-0.015430000000000001,-0.6183000000000001,-0.9452,-7.5906,6.8157217400325365,15.246360589148383,19.059999465942383,19.1299991607666,19.049999237060547,19.100000381469727,15.476895299540292,15.533735697134745,15.46877502148613,15.509376411756936,15.497195607479526,0.016452124221020676,1.7000000476837158,0.0,0.0,0.0,0.0,0.0,0.0,,,,,
frame_00171.png,1771858896446937327,1771858896.4469373,42.30087444575261,-83.69787679973301,237.74319458007812,-0.01505367977909522,-0.9995559474935325,-0.010731115049769738,-0.02336958975257863,0.023950000000000003,0.00855,-0.013700000000000002,-0.5206000000000001,-0.4471,-8.523900000000001,6.804580050533272,15.221437298239898,19.06999969482422,19.170000076293945,18.989999771118164,19.10999870300293,15.485015577594451,15.566216809351387,15.42005490194584,15.517495141026421,15.497195607479524,0.01811644352872724,1.600000023841858,0.0,0.0,0.0,0.0,0.0,0.0,,,,,
frame_00172.png,1771858896487492468,1771858896.4874923,42.30087445805788,-83.6978784488403,237.7391357421875,-0.014853201109221337,-0.9995725945693796,-0.010563919326082496,-0.02285638228416761,0.0166,0.027230000000000004,-0.011300000000000003,-0.37360000000000004,0.5437000000000001,-9.7094,6.798770013225498,15.208440593384648,19.100000381469727,19.10999870300293,19.010000228881836,19.049999237060547,15.509376411756936,15.517495141026421,15.436295458054161,15.46877502148613,15.482985508080912,0.01805214104697134,1.2000000476837158,0.0,0.0,0.0,0.0,0.0,0.0,,,,,
frame_00173.png,1771858896547470723,1771858896.5474708,42.30087450103562,-83.69788340516081,237.7267608642578,-0.01454444039814451,-0.9995961119791914,-0.010429983291431313,-0.022074592139594226,-0.0008900000000000001,0.0238,-0.008040000000000002,-0.6449,0.5546,-10.9505,6.790999210436896,15.19105777379471,19.100000381469727,19.15999984741211,18.969999313354492,19.100000381469727,15.509376411756936,15.558096531297227,15.403814345837517,15.509376411756936,15.495165925162155,0.02001889242314943,0.6000000238418579,0.0,0.0,0.0,0.0,0.0,0.0,,,,,
frame_00174.png,1771858896589883027,1771858896.589883,42.300874528801685,-83.69788671123918,237.71983337402344,-0.014379660427714103,-0.9996067602121328,-0.010380976393544268,-0.021720626908629446,-0.006260000000000001,0.023250000000000003,-0.011580000000000002,-0.4732,-0.5854,-10.6788,6.787533229815575,15.183304583103654,19.0,19.03999900817871,18.94999885559082,19.03999900817871,15.428175180000002,15.46065474343197,15.387573789729194,15.46065474343197,15.434264614148283,0.016528683177699243,0.30000001192092896,0.0,0.0,0.0,0.0,0.0,0.0,,,,,
frame_00175.png,1771858896641508849,1771858896.6415088,42.30087456962946,-83.69789166685868,237.71295166015625,-0.014097705342196287,-0.9996211172368753,-0.010260396294296849,-0.021297909429562795,-0.00034,0.004890000000000001,-0.00812,0.1778,-0.4546,-10.953700000000001,6.791143656203842,15.191380890308624,19.139999389648438,19.1299991607666,18.94999885559082,19.09000015258789,15.541855975188904,15.533735697134745,15.387573789729194,15.501256133702775,15.491105398938904,0.01972990545062894,-0.5,0.0,0.0,0.0,0.0,0.0,0.0,,,,,
frame_00176.png,1771858896700294497,1771858896.7002945,42.300874614481806,-83.69789663729924,237.71109008789062,-0.013823491381282305,-0.9996118883093421,-0.01005970713687979,-0.02199513875798685,0.0088,-0.016940000000000004,-0.00487,-0.5877,1.6332,-10.2878,6.793769818888968,15.19725545866549,19.15999984741211,18.939998626708984,19.03999900817871,19.029998779296875,15.558096531297227,15.379453511675035,15.46065474343197,15.45253446537781,15.462684812945511,0.01746561114287734,-1.399999976158142,0.0,0.0,0.0,0.0,0.0,0.0,,,,,
frame_00177.png,1771858896740630870,1771858896.7406309,42.300874634893994,-83.69789994344137,237.71121215820312,-0.013658173085522196,-0.9996022230447477,-0.009835862877304494,-0.022629754603693836,-0.0049900000000000005,-0.052050000000000006,-0.0035100000000000005,-1.9131,-0.42060000000000003,-10.2555,6.78576331825984,15.179345397148168,19.03999900817871,18.979999542236328,18.989999771118164,19.0,15.46065474343197,15.411934623891678,15.42005490194584,15.428175180000002,15.430204862317373,0.016526369128956976,-1.7000000476837158,0.0,0.0,0.0,0.0,0.0,0.0,,,,,
frame_00178.png,1771858896801215168,1771858896.8012152,42.3008746688357,-83.69790490983091,237.71078491210938,-0.013485178977317824,-0.9995917637206297,-0.010087171109093379,-0.023080399234982407,0.014140000000000002,0.0038000000000000004,-0.009130000000000001,-1.1058000000000001,0.6355000000000001,-9.1556,6.7742666736932176,15.153628093051307,18.739999771118164,18.889999389648438,18.989999771118164,18.93000030517578,15.21705259694584,15.338853670188904,15.42005490194584,15.37133478240555,15.336823987871533,0.012089243163109619,-2.1000001430511475,0.0,0.0,0.0,0.0,0.0,0.0,,,,,
frame_00179.png,1771858896843962578,1771858896.8439627,42.30087468152489,-83.69790656783695,237.7103729248047,-0.013451464336634245,-0.9995817762472594,-0.010156455909871135,-0.02349844898976735,-0.0029500000000000004,-0.031520000000000006,0.0034300000000000003,-0.8013,0.9055000000000001,-8.9216,6.788199926177841,15.18479594286426,18.989999771118164,18.989999771118164,18.959999084472656,18.85999870300293,15.42005490194584,15.42005490194584,15.395694067783356,15.314492836026421,15.387574176925362,0.013354030888797844,-2.4000000953674316,0.0,0.0,0.0,0.0,0.0,0.0,,,,,
frame_00180.png,1771858896891145074,1771858896.891145,42.3008747158258,-83.69791152759628,237.70657348632812,-0.013440079576459318,-0.9995684923246004,-0.009903911411405907,-0.024168284003187948,0.016710000000000003,-0.01565,0.00099,-0.5569000000000001,0.43320000000000003,-8.887500000000001,6.787235475639081,15.182638524876086,19.0,18.969999313354492,18.81999969482422,18.850000381469727,15.428175180000002,15.403814345837517,15.282013272594453,15.306374106756934,15.355094226297227,0.01135874381376991,-2.4000000953674316,0.0,0.0,0.0,0.0,0.0,0.0,,,,,
frame_00181.png,1771858896951370331,1771858896.9513702,42.30087475052721,-83.69791648814049,237.69976806640625,-0.013436507106133366,-0.9995558471606929,-0.00989909401164113,-0.024689605533604813,-0.013170000000000001,-0.012870000000000003,-0.0015900000000000003,-1.2656,0.09820000000000001,-9.3148,6.774486288000218,15.154119357079209,19.029998779296875,19.059999465942383,18.90999984741211,18.959999084472656,15.45253446537781,15.476895299540292,15.355094226297227,15.395694067783356,15.420054514749673,0.01754870417766857,-2.1000001430511475,0.0,0.0,0.0,0.0,0.0,0.0,,,,,
frame_00182.png,1771858896991949912,1771858896.9919498,42.300874781896795,-83.6979214302934,237.69140625,-0.013386645874665926,-0.9995578843440448,-0.010302614866644962,-0.02446813611195249,-0.00897,0.025860000000000005,-0.0026000000000000003,-0.9832000000000001,0.4919,-9.9234,6.751112664200755,15.101833963057237,19.020000457763672,19.100000381469727,19.059999465942383,18.969999313354492,15.444415736108322,15.509376411756936,15.476895299540292,15.403814345837517,15.458625448310766,0.023625705733908084,-1.899999976158142,0.0,0.0,0.0,0.0,0.0,0.0,,,,,
frame_00183.png,1771858897051922287,1771858897.051922,42.30087480803836,-83.6979247126423,237.68650817871094,-0.013341320897544473,-0.9995736098278016,-0.009855767709469831,-0.024030637431908718,0.04377000000000001,0.030170000000000006,-0.004240000000000001,-1.2906,0.40700000000000003,-10.5769,6.737236759741273,15.070794397335645,19.0,18.959999084472656,18.85999870300293,18.760000228881836,15.428175180000002,15.395694067783356,15.314492836026421,15.233293153054163,15.342913809215986,0.018056076189882145,-1.5,0.0,0.0,0.0,0.0,0.0,0.0,,,,,
frame_00184.png,1771858897112543089,1771858897.1125429,42.3008748771516,-83.69793126901182,237.67919921875,-0.013261688743463285,-0.9996356473109167,-0.007831612575498604,-0.022166778778686436,0.025770000000000005,0.05387000000000001,-0.0022500000000000003,-0.9159,-0.1295,-10.1613,6.718155697717725,15.028111206452689,18.85999870300293,18.719999313354492,18.93000030517578,19.020000457763672,15.314492836026421,15.200812040837517,15.37133478240555,15.444415736108322,15.33276384884445,0.020272184455286158,-1.600000023841858,0.0,0.0,0.0,0.0,0.0,0.0,,,,,
frame_00185.png,1771858897153187709,1771858897.1531875,42.30087489036846,-83.69793290038395,237.6776885986328,-0.0133017981272745,-0.9996470422596575,-0.007541030495807405,-0.021725237102526444,0.03676000000000001,0.042690000000000006,0.00493,-0.36160000000000003,0.8434,-11.0873,6.719498131209909,15.031114149628696,18.84000015258789,18.760000228881836,18.889999389648438,18.989999771118164,15.298253828702775,15.233293153054163,15.338853670188904,15.42005490194584,15.32261388847292,0.019393089290817848,-1.8000000715255737,0.0,0.0,0.0,0.0,0.0,0.0,,,,,
frame_00186.png,1771858897203218077,1771858897.2032182,42.30087493626721,-83.69793780870285,237.67576599121094,-0.013344734518167811,-0.9996561437963061,-0.007448945446240667,-0.02130787278630938,-0.01893,-0.008420000000000002,0.006370000000000001,-0.7048,1.1081,-9.672500000000001,6.7374027793378595,15.071165773212032,18.84000015258789,18.899999618530273,18.84000015258789,18.84000015258789,15.298253828702775,15.346973948243065,15.298253828702775,15.298253828702775,15.310433858587848,0.015875884385871362,-1.8000000715255737,0.0,0.0,0.0,0.0,0.0,0.0,,,,,
frame_00187.png,1771858897245135230,1771858897.245135,42.30087495249388,-83.69793945083478,237.6753692626953,-0.013390199935475411,-0.9996475400872479,-0.007658694998466389,-0.021606539151894002,-0.0342,-0.005470000000000001,0.012720000000000002,-0.6769000000000001,0.8143,-8.096300000000001,6.74098248046511,15.079173349851624,18.93000030517578,18.799999237060547,18.85999870300293,18.84000015258789,15.37133478240555,15.26577271648613,15.314492836026421,15.298253828702775,15.312463540905219,0.015471019905470482,-1.8000000715255737,0.0,0.0,0.0,0.0,0.0,0.0,,,,,
frame_00188.png,1771858897295970624,1771858897.2959707,42.300874980181334,-83.69794437495253,237.672119140625,-0.013386978481007117,-0.999638988077283,-0.007890267793071299,-0.021918622153968056,-0.025820000000000003,0.0035300000000000006,0.006670000000000001,-1.443,-0.5811000000000001,-8.0877,6.733762641359761,15.063023002963305,18.94999885559082,18.899999618530273,18.75,18.779998779296875,15.387573789729194,15.346973948243065,15.225172875,15.249532160377807,15.302313193337515,0.015885934073600925,-1.7000000476837158,0.0,0.0,0.0,0.0,0.0,0.0,,,,,
frame_00189.png,1771858897346619618,1771858897.3466196,42.300875006182864,-83.69794928916498,237.66278076171875,-0.013414129830680022,-0.9996365540507255,-0.008349938495723259,-0.021842606382812536,0.005420000000000001,0.007500000000000001,0.007700000000000001,-0.8481000000000001,0.371,-8.96,6.737438371149675,15.071245389959554,18.8799991607666,18.869998931884766,18.68000030517578,18.760000228881836,15.330733392134745,15.322613114080582,15.16833247740555,15.233293153054163,15.26374303416876,0.012772510779862164,-1.5,0.0,0.0,0.0,0.0,0.0,0.0,,,,,
frame_00190.png,1771858897396011220,1771858897.3960114,42.300875029869566,-83.69795419950512,237.6488494873047,-0.013473050518944318,-0.9996465358704981,-0.008217024181027714,-0.021395344013013042,-0.01076,0.016270000000000003,0.005030000000000001,-0.6038,0.1573,-9.9772,6.7240682547982145,15.04133724188832,18.719999313354492,18.56999969482422,18.619998931884766,18.809999465942383,15.200812040837517,15.079010967594453,15.119610809080582,15.273892994540292,15.16833170301321,0.008443029970182881,-1.5,0.0,0.0,0.0,0.0,0.0,0.0,,,,,
frame_00191.png,1771858897458514083,1771858897.4585142,42.30087505103331,-83.69795910833155,237.63754272460938,-0.013593108179922764,-0.9996403049598241,-0.009128601365398387,-0.02124045072380129,-0.05049000000000001,-0.012740000000000001,0.0036900000000000006,0.1144,-0.2079,-11.2704,6.732756476041013,15.060772271515185,19.09000015258789,18.760000228881836,18.60999870300293,18.600000381469727,15.501256133702775,15.233293153054163,15.111490531026423,15.103371801756936,15.237352904885075,0.011724540427708395,-1.899999976158142,0.0,0.0,0.0,0.0,0.0,0.0,,,,,
frame_00192.png,1771858897498395451,1771858897.4983954,42.300875061897194,-83.69796238628795,237.634033203125,-0.013511443833380654,-0.9996098101151332,-0.010302877002569502,-0.022170230774499464,-0.05305000000000001,-0.07021000000000001,-0.0056300000000000005,0.1471,0.8510000000000001,-13.026900000000001,6.754518411493687,15.10945241540669,18.690000534057617,18.799999237060547,18.760000228881836,18.65999984741211,15.17645275545971,15.26577271648613,15.233293153054163,15.152091921297227,15.206902636574307,0.006449619647913284,-1.399999976158142,0.0,0.0,0.0,0.0,0.0,0.0,,,,,
frame_00193.png,1771858897562218009,1771858897.562218,42.30087507460681,-83.697967305209,237.63565063476562,-0.0132619492457563,-0.9995417216663096,-0.012491434982397614,-0.024175016083415407,-0.030390000000000004,-0.05899000000000001,-0.02253,0.9081,1.7894,-9.4534,6.728720131141235,15.051743210155076,18.639999389648438,18.65999984741211,18.959999084472656,18.779998779296875,15.135851365188906,15.152091921297227,15.395694067783356,15.249532160377807,15.233292378661826,0.012061670596682988,0.6000000238418579,0.0,0.0,0.0,0.0,0.0,0.0,,,,,
frame_00194.png,1771858897599405405,1771858897.5994053,42.30087509722856,-83.69797057912373,237.6381072998047,-0.013144363743074816,-0.9995167246127763,-0.012637998132928117,-0.02517585995213394,0.007130000000000001,-0.01208,-0.012940000000000002,0.0908,0.7166,-10.0037,6.695075083455143,14.97648125718415,18.779998779296875,18.869998931884766,18.94999885559082,18.760000228881836,15.249532160377807,15.322613114080582,15.387573789729194,15.233293153054163,15.298253054310436,0.02148514004061764,1.399999976158142,0.0,0.0,0.0,0.0,0.0,0.0,,,,,
frame_00195.png,1771858897659447849,1771858897.659448,42.300875140845946,-83.697975460221,237.6409454345703,-0.013004423913265062,-0.99953661200962,-0.010406863098785905,-0.02547829294630714,0.07316000000000002,0.029930000000000005,-0.011030000000000002,-0.8045,-0.6911,-7.9401,6.666286083509786,14.912081991646382,18.760000228881836,18.799999237060547,18.739999771118164,18.760000228881836,15.233293153054163,15.26577271648613,15.21705259694584,15.233293153054163,15.237352904885073,0.02181257542849519,1.2000000476837158,0.0,0.0,0.0,0.0,0.0,0.0,,,,,
frame_00196.png,1771858897709604916,1771858897.709605,42.300875191708485,-83.69798031847695,237.6361083984375,-0.013028017921300483,-0.9995750018690779,-0.008957163014948973,-0.024491950069334564,0.037840000000000006,0.051730000000000005,-0.0085,-1.5659,-1.4563000000000001,-8.0,6.649402565447724,14.874314574752631,18.799999237060547,18.8799991607666,18.729999542236328,18.69999885559082,15.26577271648613,15.330733392134745,15.20893231889168,15.184571484729195,15.247502478060438,0.02508941850276911,0.5,0.0,0.0,0.0,0.0,0.0,0.0,,,,,
frame_00197.png,1771858897749879856,1771858897.7498798,42.300875205306525,-83.69798193226413,237.6329803466797,-0.0129970788223292,-0.999609410918185,-0.008964507423519404,-0.023059469910189503,0.0023600000000000006,0.06459000000000001,-7.000000000000002e-05,0.3851,0.7947000000000001,-9.1599,6.657533891184073,14.892503862545302,18.739999771118164,18.799999237060547,18.690000534057617,18.690000534057617,15.21705259694584,15.26577271648613,15.17645275545971,15.17645275545971,15.208932706087847,0.021247524691825934,-0.20000000298023224,0.0,0.0,0.0,0.0,0.0,0.0,,,,,
frame_00198.png,1771858897809494743,1771858897.8094947,42.30087525166511,-83.69798677461496,237.62078857421875,-0.012686441933622228,-0.9996587149226112,-0.008851449359288227,-0.021051358972245113,0.011970000000000001,0.04381000000000001,-0.015160000000000003,-0.1356,0.268,-9.877600000000001,6.660094585766994,14.89823198268562,18.639999389648438,18.729999542236328,18.779998779296875,18.649999618530273,15.135851365188906,15.20893231889168,15.249532160377807,15.143971643243065,15.184571871925364,0.019219722821642235,-0.30000001192092896,0.0,0.0,0.0,0.0,0.0,0.0,,,,,
frame_00199.png,1771858897860508619,1771858897.8605087,42.300875290672366,-83.69799162583655,237.60853576660156,-0.012384358622462233,-0.9996822022654328,-0.008884355745665888,-0.020079600549548247,-0.010570000000000001,0.033010000000000005,-0.012290000000000002,0.48600000000000004,-1.1019,-9.9397,6.669160080331445,14.918510950096625,18.719999313354492,18.729999542236328,18.60999870300293,18.190000534057617,15.200812040837517,15.20893231889168,15.111490531026423,14.77044814545971,15.072920759053833,0.010350215881043278,-0.5,0.0,0.0,0.0,0.0,0.0,0.0,,,,,
frame_00200.png,1771858897901886456,1771858897.9018865,42.300875299625986,-83.69799486849277,237.60211181640625,-0.012311685876137346,-0.9996759831265947,-0.009915391817379021,-0.019950843487727833,-0.07472000000000002,0.0022500000000000003,0.005510000000000001,-0.48600000000000004,-0.8279000000000001,-10.2616,6.668400197992309,14.916811138896916,18.649999618530273,18.510000228881836,18.53999900817871,18.34000015258789,15.143971643243065,15.030290848054163,15.05465013343197,14.892249218702775,15.030290460857993,0.0076074786296093065,-0.9000000357627869,0.0,0.0,0.0,0.0,0.0,0.0,,,,,
frame_00201.png,1771858897952839509,1771858897.9528394,42.30087527257692,-83.69799973105093,237.59197998046875,-0.01242483702764352,-0.9996553868087543,-0.0121107092192862,-0.019699283522051143,-0.11099000000000002,0.014310000000000002,0.006830000000000001,-0.7671,-2.3085,-8.8467,6.6663001383654175,14.912113431515138,18.600000381469727,18.459999084472656,18.459999084472656,18.529998779296875,15.103371801756936,14.989689457783356,14.989689457783356,15.046529855377807,15.032320143175363,0.00806101108419559,-1.0,0.0,0.0,0.0,0.0,0.0,0.0,,,,,
frame_00202.png,1771858898001756876,1771858898.001757,42.30087525789118,-83.69800134788856,237.589599609375,-0.012859481991169375,-0.9996064794456736,-0.014559905638707668,-0.020236825861209406,-0.06696,-0.030160000000000003,0.024470000000000006,-0.32930000000000004,3.6857,-16.0172,6.66353543218076,14.90592894966243,18.459999084472656,18.529998779296875,18.56999969482422,18.56999969482422,14.989689457783356,15.046529855377807,15.079010967594453,15.079010967594453,15.048560312087517,0.009568767093064477,-0.800000011920929,0.0,0.0,0.0,0.0,0.0,0.0,,,,,
frame_00203.png,1771858898052375527,1771858898.0523756,42.30087522412174,-83.69800784657322,237.5918426513672,-0.013076283894649543,-0.9995440106143294,-0.014914234461912326,-0.02276724082849676,0.04535,-0.09762000000000001,-0.015870000000000002,-2.0789,1.4875,-12.091600000000001,6.6790177976518565,14.940562072279345,18.520000457763672,18.510000228881836,18.600000381469727,18.59000015258789,15.038411126108322,15.030290848054163,15.103371801756936,15.095251523702775,15.06683132490555,0.008451439244075326,-0.6000000238418579,0.0,0.0,0.0,0.0,0.0,0.0,,,,,
frame_00204.png,1771858898103291573,1771858898.1032917,42.30087523138178,-83.69801109377771,237.59426879882812,-0.012933462660002282,-0.9995308020708669,-0.014033034328612762,-0.023957779586685584,0.06381,-0.06267000000000002,-0.011470000000000001,-0.5373,2.321,-7.663,6.667406815052432,14.914589000863389,18.529998779296875,18.60999870300293,18.60999870300293,18.56999969482422,15.046529855377807,15.111490531026423,15.111490531026423,15.079010967594453,15.087130471256277,0.011568637284131652,-0.6000000238418579,0.0,0.0,0.0,0.0,0.0,0.0,,,,,
frame_00205.png,1771858898153607262,1771858898.1536071,42.300875276285055,-83.69801595415296,237.59632873535156,-0.012516442432291164,-0.9995267861537808,-0.012838486924455203,-0.024994313021644187,0.04259,-0.015390000000000003,-0.015550000000000001,-0.34550000000000003,0.7092,-9.3736,6.6485613278670685,14.872432776758961,18.53999900817871,18.53999900817871,18.649999618530273,18.56999969482422,15.05465013343197,15.05465013343197,15.143971643243065,15.079010967594453,15.083070719425365,0.014162978298719637,-0.699999988079071,0.0,0.0,0.0,0.0,0.0,0.0,,,,,
frame_00206.png,1771858898203513341,1771858898.2035134,42.300875326451546,-83.69802080088095,237.5946502685547,-0.012062821436980231,-0.9995316122833424,-0.011929916243310912,-0.025470011457972435,0.020780000000000003,-0.004070000000000001,-0.009850000000000003,-0.3224,0.3436,-8.1936,6.633752405016242,14.839306104877034,18.53999900817871,18.579999923706055,18.60999870300293,18.529998779296875,15.05465013343197,15.087131245648612,15.111490531026423,15.046529855377807,15.074950441371202,0.015879740927826957,-1.0,0.0,0.0,0.0,0.0,0.0,0.0,,,,,
frame_00207.png,1771858898263723734,1771858898.2637239,42.30087536084525,-83.69802563724078,237.58798217773438,-0.011944466154199307,-0.9995485671278008,-0.011346914274247777,-0.02512447447219546,0.012100000000000001,0.026960000000000005,0.0007600000000000002,-0.0362,-0.456,-8.6256,6.627220041761803,14.82469360021865,18.619998931884766,18.56999969482422,18.549999237060547,18.5,15.119610809080582,15.079010967594453,15.06277041148613,15.02217057,15.07089068954029,0.01660722952938529,-1.3000000715255737,0.0,0.0,0.0,0.0,0.0,0.0,,,,,
frame_00208.png,1771858898306050346,1771858898.3060503,42.300875365287965,-83.69802724871322,237.5850830078125,-0.011982644898170858,-0.9995548321613503,-0.011195677529813122,-0.024924095345417514,0.008000000000000002,0.025410000000000002,0.0045000000000000005,-0.755,-0.7409,-9.917,6.6219698209953926,14.812949171377435,18.56999969482422,18.559999465942383,18.469999313354492,18.559999465942383,15.079010967594453,15.070890689540292,14.997809735837517,15.070890689540292,15.054650520628138,0.016316895876327942,-1.3000000715255737,0.0,0.0,0.0,0.0,0.0,0.0,,,,,
frame_00209.png,1771858898365062288,1771858898.3650625,42.300875369794326,-83.69803207944595,237.57571411132812,-0.01212874347761661,-0.9995592525308288,-0.01161143527010906,-0.024482010387896824,-0.022400000000000003,0.014650000000000003,0.005940000000000001,-0.8494,-0.165,-9.7744,6.620581233447414,14.80984298434786,18.56999969482422,18.53999900817871,18.510000228881836,18.53999900817871,15.079010967594453,15.05465013343197,15.030290848054163,15.05465013343197,15.054650520628138,0.016530056161905927,-1.3000000715255737,0.0,0.0,0.0,0.0,0.0,0.0,,,,,
frame_00210.png,1771858898429690379,1771858898.4296904,42.300875365654605,-83.69803689878943,237.56568908691406,-0.012241115191708507,-0.9995580417398888,-0.012406265860459582,-0.024082376531013236,-0.012020000000000001,0.011550000000000003,0.0021400000000000004,-0.7261000000000001,0.43920000000000003,-10.284600000000001,6.612340714755527,14.79140943846523,18.479999542236328,18.489999771118164,18.5,18.559999465942383,15.005930013891678,15.01405029194584,15.02217057,15.070890689540292,15.028260391344453,0.01601273724891216,-1.2000000476837158,0.0,0.0,0.0,0.0,0.0,0.0,,,,,
frame_00211.png,1771858898479204405,1771858898.4792044,42.30087536504746,-83.6980417120956,237.55706787109375,-0.01219076199793473,-0.9995652512168129,-0.012500150066959865,-0.023757948776843642,0.00032,0.013410000000000002,-0.0036600000000000005,-0.8340000000000001,0.5211,-10.1675,6.604174611548545,14.773142355557402,18.440000534057617,18.399999618530273,18.549999237060547,18.549999237060547,14.97345045045971,14.940969338243065,15.06277041148613,15.06277041148613,15.009990152918757,0.016032323500372734,-1.0,0.0,0.0,0.0,0.0,0.0,0.0,,,,,
frame_00212.png,1771858898507496164,1771858898.507496,42.30087536997502,-83.69804491815178,237.55206298828125,-0.012122458772805378,-0.9995735133246297,-0.012504898936844373,-0.023440668841505304,0.0017400000000000002,0.025060000000000002,-0.0048600000000000015,-0.613,0.7779,-10.038300000000001,6.600237135323833,14.764334457491296,18.459999084472656,18.43000030517578,18.56999969482422,18.529998779296875,14.989689457783356,14.965330172405547,15.079010967594453,15.046529855377807,15.02014011329029,0.017325918519083716,-1.0,0.0,0.0,0.0,0.0,0.0,0.0,,,,,
frame_00213.png,1771858898567925390,1771858898.5679255,42.30087538532999,-83.69804972322306,237.54571533203125,-0.011937917886433946,-0.9995918846452116,-0.012312985550718518,-0.022846020546225174,0.007320000000000001,0.011870000000000002,-0.0074600000000000005,-0.0949,0.4258,-9.8195,6.601414213956366,14.766967511767554,18.440000534057617,18.420000076293945,18.440000534057617,18.399999618530273,14.97345045045971,14.957209894351388,14.97345045045971,14.940969338243065,14.961270033378469,0.01315791623812258,-0.9000000357627869,0.0,0.0,0.0,0.0,0.0,0.0,,,,,
