image_filename,timestamp_ns,timestamp_sec,latitude,longitude,altitude,orientation_x,orientation_y,orientation_z,orientation_w,angular_velocity_x,angular_velocity_y,angular_velocity_z,linear_acceleration_x,linear_acceleration_y,linear_acceleration_z,vehicle_speed_mps,vehicle_speed_mph,wheel_speed_fl_rads,wheel_speed_fr_rads,wheel_speed_rl_rads,wheel_speed_rr_rads,wheel_speed_fl_mph,wheel_speed_fr_mph,wheel_speed_rl_mph,wheel_speed_rr_mph,avg_wheel_speed_mph,wheel_slip,steering_angle_deg,throttle_pedal,brake_pedal,brake_torque_actual,abs_active,esc_active,trac_active,marwis_road_condition,marwis_friction,marwis_surface_temp_c,marwis_ice_percent,marwis_water_film_height
frame_00000.png,1771859345478946102,1771859345.478946,42.30012711976008,-83.69859047745202,236.2947998046875,-0.7065527911230407,-0.70762602316759,0.005865803858623584,0.003762583866743101,-0.0027600000000000003,-0.00013000000000000002,0.004880000000000001,2.8864,-0.1811,-10.130600000000001,1.9566573781743628,4.3769251555333595,5.309999942779541,5.259999752044678,5.210000038146973,5.259999752044678,4.3117689117364595,4.271168295857993,4.230568067175693,4.271168295857993,4.271168392657034,0.024162342082232377,-0.800000011920929,33.54999923706055,0.0,0.0,0.0,0.0,0.0,,,,,
frame_00001.png,1771859345517005563,1771859345.5170057,42.30012785619566,-83.69859049306034,236.2963409423828,-0.7065493830833643,-0.707628838460713,0.005951714241345208,0.003738093210287608,0.00455,-0.004410000000000001,0.00198,2.7363,-0.24130000000000001,-10.0736,2.076719772621903,4.64549752816884,5.609999656677246,5.619999885559082,5.650000095367432,5.599999904632568,4.555371445418758,4.56349172347292,4.587852170439234,4.547251554560767,4.56349172347292,0.017652749613720112,-0.9000000357627869,33.95000076293945,0.0,0.0,0.0,0.0,0.0,,,,,
frame_00002.png,1771859345565044197,1771859345.5650442,42.30012863765036,-83.69859050929894,236.29803466796875,-0.7065588382007394,-0.7076179631396278,0.006149257844741651,0.003689584055782542,0.0019500000000000003,-0.01088,-0.00026000000000000003,2.7226,-0.2036,-9.991800000000001,2.2245728546036543,4.9762360013770985,6.019999980926514,5.980000019073486,6.049999713897705,6.009999752044678,4.888295488912154,4.855815151087847,4.912655548682299,4.880175210857993,4.884235349885073,0.01848800005999826,-0.9000000357627869,34.17499923706055,0.0,0.0,0.0,0.0,0.0,,,,,
frame_00003.png,1771859345615499790,1771859345.6154997,42.30012988060744,-83.69859053422566,236.30081176757812,-0.7065726726699274,-0.7076028504545004,0.006300849405831822,0.003682874082340228,0.0024300000000000007,-0.004950000000000001,0.00013000000000000002,2.7688,-0.0587,-9.9872,2.368746957830034,5.298744819848317,6.480000019073486,6.440000057220459,6.460000038146973,6.46999979019165,5.261819761087847,5.229339423263541,5.245579592175694,5.253699483033686,5.247609564890192,0.00965044679384825,-0.9000000357627869,34.5,0.0,0.0,0.0,0.0,0.0,,,,,
frame_00004.png,1771859345666206687,1771859345.6662068,42.30013075737957,-83.69859055250005,236.302734375,-0.7065970030500786,-0.7075767105186507,0.006457043156134591,0.0037657145314678453,0.008260000000000002,-0.0008700000000000001,0.00035000000000000005,2.6377,-0.098,-9.8096,2.5109397544265697,5.616821574266972,6.829999923706055,6.859999656677246,6.889999866485596,6.920000076293945,5.546022910648613,5.570382970418759,5.5947434173850725,5.619103864351388,5.582563290700958,0.0060992294508633365,-0.9000000357627869,34.57500076293945,0.0,0.0,0.0,0.0,0.0,,,,,
frame_00005.png,1771859345716352970,1771859345.716353,42.300132155082366,-83.69859057547387,236.30552673339844,-0.7066086428749003,-0.7075618290145164,0.006652307507321618,0.0040287393750249945,0.013920000000000002,0.006070000000000001,0.00026000000000000003,2.6833,-0.2848,-9.8363,2.6512446632491824,5.930675237008627,7.230000019073486,7.289999961853027,7.289999961853027,7.299999713897705,5.870826676087847,5.9195471828243065,5.9195471828243065,5.927667073682299,5.9093970288546895,0.0035878221793628077,-0.9000000357627869,34.45000076293945,0.0,0.0,0.0,0.0,0.0,,,,,
frame_00006.png,1771859345767026011,1771859345.767026,42.30013313703004,-83.69859058904599,236.30731201171875,-0.7066140671650674,-0.7075527831083342,0.006859629855799184,0.004308674776948759,0.01467,0.00111,-0.00096,2.6546000000000003,-0.14850000000000002,-9.8952,2.79114060183353,6.243614057865497,7.699999809265137,7.690000057220459,7.62999963760376,7.690000057220459,6.252470839121533,6.24435094826354,6.195630054330912,6.24435094826354,6.234200697494882,0.001507678130546334,-0.9000000357627869,34.20000076293945,0.0,0.0,0.0,0.0,0.0,,,,,
frame_00007.png,1771859345817083239,1771859345.8170831,42.300134685567016,-83.69859060404076,236.3105010986328,-0.7066007471994373,-0.7075607022520304,0.007165761927420032,0.0046785191898773976,0.023990000000000004,-0.00117,-0.0011300000000000001,2.6186000000000003,-0.0664,-9.952,2.92962181798307,6.553388229519049,8.069999694824219,8.059999465942383,8.09000015258789,8.119999885559082,6.5529141575944525,6.544793879540292,6.569154713702774,6.59351477347292,6.565094381077609,0.0017862746946427752,-0.9000000357627869,34.35000228881836,0.0,0.0,0.0,0.0,0.0,,,,,
frame_00008.png,1771859345868007174,1771859345.8680072,42.30013577279263,-83.69859061257208,236.3128662109375,-0.7066039900278678,-0.7075484394575545,0.007694238433342592,0.0051774311011518505,0.032720000000000006,-0.004700000000000001,0.0010000000000000002,2.6332,-0.2514,-9.8294,3.0686985096370574,6.864494444147519,8.470000267028809,8.510000228881836,8.510000228881836,8.4399995803833,6.877718310229855,6.910198648054161,6.910198648054161,6.853357476067372,6.887868270601388,0.0034050324672920676,-0.9000000357627869,34.375,0.0,0.0,0.0,0.0,0.0,,,,,
frame_00009.png,1771859345917953697,1771859345.9179537,42.30013747101213,-83.69859062832438,236.3165740966797,-0.7066218040322704,-0.7075207496826168,0.008239192529258641,0.0056683808264104026,0.024970000000000003,-0.0036200000000000004,0.00042000000000000007,2.674,-0.5693,-9.8277,3.2043945505401465,7.168038345885276,8.84999942779541,8.829999923706055,8.869999885559082,8.84999942779541,7.186281132364598,7.170041350648613,7.2025216884729195,7.186281132364598,7.186281325962682,0.0025450449895929933,-0.9000000357627869,34.22500228881836,0.0,0.0,0.0,0.0,0.0,,,,,
frame_00010.png,1771859345969049757,1771859345.96905,42.3001386469366,-83.69859064413723,236.3192138671875,-0.7066702683395374,-0.7074690007389667,0.008432605822790533,0.005799654935539113,-0.0003800000000000001,0.00032,0.0025400000000000006,2.5353000000000003,-0.5538000000000001,-9.8818,3.3363721569959743,7.463264332870575,9.289999961853027,9.229999542236328,9.229999542236328,9.199999809265137,7.543565622824306,7.494844728891678,7.494844728891678,7.470484669121532,7.500934937432299,0.005047470233073538,-0.9000000357627869,34.57500076293945,0.0,0.0,0.0,0.0,0.0,,,,,
frame_00011.png,1771859346019027590,1771859346.0190277,42.30014049276427,-83.69859068354579,236.32398986816406,-0.7067172403143427,-0.7074269301478598,0.008344676864851476,0.005314801226385864,-0.023710000000000005,-0.014280000000000003,0.0030900000000000003,2.5547,-0.1356,-9.8992,3.479180127635184,7.78271719471225,9.59000015258789,9.65999984741211,9.619999885559082,9.609999656677246,7.787168543702775,7.844008941297226,7.81152860347292,7.803408325418759,7.81152860347292,0.0037019729793400444,-1.0,33.97500228881836,0.0,0.0,0.0,0.0,0.0,,,,,
frame_00012.png,1771859346069891922,1771859346.069892,42.300141777846605,-83.69859071530408,236.32769775390625,-0.706640818697395,-0.707507027330575,0.008590374895738422,0.004331868843698497,-0.004320000000000001,-0.030750000000000003,-0.005830000000000001,2.4074,-0.3634,-9.5901,3.6438964000191105,8.15117761305875,9.979999542236328,9.949999809265137,10.039999961853027,9.989999771118164,8.103851643891678,8.079491584121532,8.152572537824307,8.11197192194584,8.11197192194584,0.004809819264654437,-1.0,34.07500076293945,0.0,0.0,0.0,0.0,0.0,,,,,
frame_00013.png,1771859346120314026,1771859346.1203141,42.30014377318738,-83.6985907688442,236.33285522460938,-0.7065770724672392,-0.7075684946058645,0.00898921007957852,0.0038548938975780872,0.0003800000000000001,-0.007410000000000001,-0.0036600000000000005,2.116,-0.632,-9.1699,3.763577246041345,8.418896484759726,10.319999694824219,10.300000190734863,10.300000190734863,10.34999942779541,8.379934902594453,8.363695120878468,8.363695120878468,8.404294962364597,8.377905026678997,0.0048689823131729355,-1.0,33.70000076293945,0.0,0.0,0.0,0.0,0.0,,,,,
frame_00014.png,1771859346171039205,1771859346.1710393,42.300145147923075,-83.69859080346936,236.33566284179688,-0.7065494179291142,-0.7075989341038558,0.00884462844527914,0.0036662005921485065,-0.0026500000000000004,0.014110000000000001,-0.0034100000000000007,2.3280000000000003,-0.5304,-9.572600000000001,3.876975887951674,8.672562442794618,10.789999961853027,10.619999885559082,10.719999313354492,10.729999542236328,8.761579452824307,8.623537823472919,8.704738280837518,8.712858558891678,8.700678529006606,0.003241958348232722,-0.9000000357627869,33.54999923706055,0.0,0.0,0.0,0.0,0.0,,,,,
frame_00015.png,1771859346221117641,1771859346.2211177,42.300147268833676,-83.69859085394415,236.33926391601562,-0.7065346634808515,-0.7076158513609951,0.008531715051066894,0.003973165103728851,0.00223,0.022500000000000003,-0.0015600000000000002,2.4797000000000002,-0.3655,-10.0143,3.99756897087646,8.942321933712389,11.109999656677246,11.050000190734863,11.069999694824219,11.09000015258789,9.021422155418758,8.972702035878468,8.988941817594451,9.005182373702773,8.997062095648612,0.006121470725612543,-0.699999988079071,33.35000228881836,0.0,0.0,0.0,0.0,0.0,,,,,
frame_00016.png,1771859346271973798,1771859346.2719738,42.30014872299413,-83.69859088074946,236.3415985107422,-0.7065228287075926,-0.7076269659548854,0.008400214414582316,0.004359583270689834,0.013700000000000002,0.010700000000000001,-0.0004700000000000001,2.498,-0.1393,-10.2356,4.127133868873724,9.232150836638388,11.469999313354492,11.399999618530273,11.429999351501465,11.449999809265137,9.313745195837516,9.256904798243067,9.28126485801321,9.297505414121533,9.28735506655383,0.00597956325587331,-0.699999988079071,32.35000228881836,0.0,0.0,0.0,0.0,0.0,,,,,
frame_00017.png,1771859346322301280,1771859346.3223011,42.30015098299853,-83.69859091461618,236.34605407714844,-0.7064939060690887,-0.707649440014596,0.008789485595148085,0.004623383743881156,0.023420000000000003,-0.0054800000000000005,-0.003,2.3933,-0.1337,-10.2696,4.2571810545299975,9.523058588120334,11.729999542236328,11.710000038146973,11.699999809265137,11.75,9.524867778891679,9.508627997175694,9.500507719121533,9.541108335,9.518777957547226,0.00044950165259383606,-0.699999988079071,32.150001525878906,0.0,0.0,0.0,0.0,0.0,,,,,
frame_00018.png,1771859346372739367,1771859346.3727393,42.30015253861601,-83.69859093407948,236.3496856689453,-0.7064645632613744,-0.7076682417321399,0.009572775022686676,0.004673593694592066,0.024740000000000005,-0.024700000000000003,-0.00177,2.4782,-0.1419,-10.0731,4.382138198982582,9.802580222832097,12.050000190734863,12.059999465942383,12.069999694824219,12.019999504089355,9.784711255878468,9.79283075954029,9.800951037594453,9.760350421715986,9.784710868682298,0.0018229235307023904,-0.699999988079071,32.25,0.0,0.0,0.0,0.0,0.0,,,,,
frame_00019.png,1771859346422931343,1771859346.4229314,42.30015493350078,-83.6985909651121,236.35557556152344,-0.7064336804072384,-0.7076864851414028,0.010455020645177258,0.004688974066837587,0.026630000000000004,-0.02527,-0.0009500000000000001,2.3537,-0.17220000000000002,-9.425600000000001,4.497463771382691,10.060556608756798,12.399999618530273,12.1899995803833,12.389999389648438,12.369999885559082,10.068914018243065,9.898392051067372,10.060793740188904,10.04455395847292,10.018163441993066,0.004213799336592659,-0.699999988079071,32.32500076293945,0.0,0.0,0.0,0.0,0.0,,,,,
frame_00020.png,1771859346473665358,1771859346.4736652,42.300156572428556,-83.6985909890907,236.35891723632812,-0.7064200221157144,-0.7076887858718867,0.01113751392592465,0.004826022042880759,0.020950000000000003,-0.0034200000000000003,0.0011900000000000003,2.2794000000000003,-0.3619,-9.2118,4.605058447011835,10.301239442458655,12.710000038146973,12.710000038146973,12.710000038146973,12.75,10.320637217175694,10.320637217175694,10.320637217175694,10.353117554999999,10.32875730163177,0.002671315362275144,-0.699999988079071,32.150001525878906,0.0,0.0,0.0,0.0,0.0,,,,,
frame_00021.png,1771859346523704558,1771859346.5237045,42.30015908589623,-83.69859102952965,236.36277770996094,-0.7063973492090567,-0.7077029894498034,0.011551511126829521,0.0050819627031594575,0.013430000000000003,0.0021100000000000003,0.00022000000000000003,1.8559,-0.4364,-9.8559,4.70806574430156,10.531660586057933,13.049999237060547,13.039999961853027,13.029999732971191,13.049999237060547,10.59671970148613,10.588600197824306,10.580479919770147,10.59671970148613,10.590629880141678,0.005599239892122061,-0.699999988079071,31.125,0.0,0.0,0.0,0.0,0.0,,,,,
frame_00022.png,1771859346574813107,1771859346.5748131,42.30016166854999,-83.69859107148352,236.36654663085938,-0.7063814743057986,-0.7077132077745171,0.011788694525568133,0.0053155414072690275,0.009140000000000002,0.0008100000000000001,-0.00035000000000000005,1.8712000000000002,-0.14450000000000002,-10.290700000000001,4.815369719697829,10.771693140780862,13.380000114440918,13.4399995803833,13.34999942779541,13.389999389648438,10.86468345652708,10.91340357606737,10.840322622364598,10.872802960188904,10.872803153786988,0.009386640677994336,-0.699999988079071,26.625,0.0,0.0,0.0,0.0,0.0,,,,,
frame_00023.png,1771859346624632745,1771859346.6246328,42.30016342429289,-83.69859109926139,236.36964416503906,-0.7062971127276705,-0.7077899951557868,0.012135621891530068,0.005517063642324139,0.015640000000000005,-0.007660000000000001,-0.00412,1.7554,-0.0528,-10.264100000000001,4.921061386441304,11.008119057786011,13.670000076293945,13.75999927520752,13.679999351501465,13.729999542236328,11.100166099351387,11.173246278661823,11.108285603013211,11.148886218891679,11.132646049979524,0.01131228609899845,-0.699999988079071,26.274999618530273,0.0,0.0,0.0,0.0,0.0,,,,,
frame_00024.png,1771859346684865982,1771859346.684866,42.300166119602935,-83.69859114174162,236.37579345703125,-0.7061506961107821,-0.707928636794477,0.012608552480243135,0.005409620404859929,-0.00288,-0.023870000000000006,-0.00464,1.5519,-0.5808,-10.1973,5.0410010683416475,11.276416929816167,13.949999809265137,13.9399995803833,14.210000038146973,13.90999984741211,11.327528464121533,11.319408186067372,11.538651047175694,11.295048126297226,11.370158955915455,0.008313103948065616,-0.699999988079071,26.649999618530273,0.0,0.0,0.0,0.0,0.0,,,,,
frame_00025.png,1771859346735014608,1771859346.7350147,42.30016887599702,-83.69859120040823,236.3816375732422,-0.7061348395738881,-0.7079483781213476,0.012550546117449511,0.005016577266082194,-0.016200000000000003,-0.0018700000000000004,0.0033900000000000007,1.3601,-0.0639,-8.7538,5.129597028034498,11.47460077589149,14.269999504089355,14.269999504089355,14.399999618530273,14.269999504089355,11.587371166715984,11.587371166715984,11.692932458243066,11.587371166715984,11.613761489597755,0.012127717244738087,-0.699999988079071,26.25,0.0,0.0,0.0,0.0,0.0,,,,,
frame_00026.png,1771859346786095581,1771859346.7860956,42.30017074385165,-83.69859124482971,236.38377380371094,-0.7061575987076077,-0.7079286978468184,0.012425099523952586,0.004901168659906832,-0.00557,0.0026500000000000004,0.005640000000000001,1.2101,0.3181,-9.7184,5.209628945808787,11.653627374037509,14.529999732971191,14.489999771118164,14.4399995803833,14.420000076293945,11.798493749770145,11.76601341194584,11.725412796067372,11.709173014351387,11.749773243033687,0.008250295458251589,-0.800000011920929,25.600000381469727,0.0,0.0,0.0,0.0,0.0,,,,,
frame_00027.png,1771859346835901584,1771859346.8359017,42.30017358705862,-83.69859131849668,236.38729858398438,-0.7061832208152347,-0.70790120875787,0.012462261759422158,0.005082254421794217,0.01251,-0.008260000000000002,-0.0041,1.5783,-0.44160000000000005,-10.1217,5.291219351679472,11.836140216545878,14.729999542236328,14.769999504089355,14.699999809265137,14.699999809265137,11.96089543889168,11.993375776715984,11.936535379121532,11.936535379121532,11.95683549346268,0.01019718208036101,-0.800000011920929,7.224999904632568,0.0,0.0,0.0,0.0,0.0,,,,,
frame_00028.png,1771859346886897577,1771859346.8868976,42.30017551110906,-83.69859136124936,236.3902587890625,-0.7061692317291228,-0.7079143387421448,0.012478715641705274,0.0051562407144825,0.010490000000000001,-0.0031000000000000003,-0.00487,1.4007,-0.2928,-9.5915,5.366778087457625,12.005160574957461,14.979999542236328,15.049999237060547,14.880000114440918,14.969999313354492,12.16389774389168,12.22073814148613,12.082697286527083,12.155777465837517,12.155777659435604,0.01254602831321779,-0.800000011920929,0.0,0.0,0.0,0.0,0.0,0.0,,,,,
frame_00029.png,1771859346936798926,1771859346.936799,42.30017843246155,-83.6985914246851,236.3953094482422,-0.7061316366859528,-0.7079509928627827,0.01250274950090429,0.005213888254995599,-0.00023000000000000003,0.009900000000000003,-0.00034,1.3121,-0.5569000000000001,-9.6409,5.433500314424978,12.154414193349812,15.130000114440918,15.1899995803833,15.139999389648438,15.149999618530273,12.28569959152708,12.33441971106737,12.293819095188905,12.301939373243066,12.303969442756605,0.012304603663138389,-0.699999988079071,0.0,0.0,0.0,0.0,0.0,0.0,,,,,
frame_00030.png,1771859346987899370,1771859346.9878993,42.30018039969325,-83.69859146557926,236.39894104003906,-0.7061049845612409,-0.7079776381866765,0.012513505410516573,0.005179458246394677,-0.0032600000000000003,-0.0020900000000000003,0.0003800000000000001,0.9865,-0.312,-9.9213,5.4886339853034505,12.277744907084701,15.369999885559082,15.269999504089355,15.299999237060547,15.319999694824219,12.480581618472918,12.399380386715984,12.42374044648613,12.439981002594452,12.43592086356737,0.012883144069184546,-0.699999988079071,0.0,0.0,0.0,0.0,0.0,0.0,,,,,
frame_00031.png,1771859347028992788,1771859347.0289927,42.30018238490562,-83.69859150704534,236.40237426757812,-0.7060826358225535,-0.7079982545799288,0.012605233906472394,0.005185651339279485,0.003110000000000001,-0.005690000000000001,-0.0006600000000000001,0.6094,-0.1852,-9.8642,5.524464761554361,12.357896203711412,15.329999923706055,15.380000114440918,15.519999504089355,15.429999351501465,12.448101280648613,12.48870189652708,12.602382691715986,12.529301738013212,12.517121901726222,0.012884531103845158,-0.699999988079071,0.0,0.0,0.0,0.0,0.0,0.0,,,,,
frame_00032.png,1771859347080320739,1771859347.0803208,42.300185381452316,-83.69859156867795,236.4078826904297,-0.7060722249274352,-0.7080023356620794,0.012965484312875116,0.00515772232620035,0.0037500000000000003,-0.012430000000000002,-0.00010000000000000002,0.254,0.004,-9.5997,5.558532006595503,12.434102586833745,15.4399995803833,15.420000076293945,15.460000038146973,15.460000038146973,12.53742201606737,12.521182234351388,12.553662572175694,12.553662572175694,12.541482348692538,0.008635907666749942,-0.699999988079071,3.424999952316284,0.0,0.0,0.0,0.0,0.0,,,,,
frame_00033.png,1771859347129870398,1771859347.1298704,42.30018738676069,-83.69859161052564,236.4113006591797,-0.7060517089817908,-0.7080186682490416,0.013189746123784086,0.005155603935177075,0.00506,-0.00255,-0.0005400000000000001,0.1189,-0.16590000000000002,-9.7786,5.571729695098377,12.463625024153364,15.449999809265137,15.489999771118164,15.519999504089355,15.479999542236328,12.545542294121534,12.578022631945839,12.602382691715986,12.56990235389168,12.57396249291876,0.008852759012853149,-0.699999988079071,4.724999904632568,0.0,0.0,0.0,0.0,0.0,,,,,
frame_00034.png,1771859347189898183,1771859347.1898983,42.30019040121953,-83.69859167386856,236.41648864746094,-0.7060128362230569,-0.7080552497211524,0.013328866565267336,0.0050970331249445035,-0.00135,-0.005610000000000001,0.0011500000000000002,0.08320000000000001,-0.4637,-9.9387,5.584740779270025,12.49273003878029,15.529999732971191,15.529999732971191,15.559999465942383,15.559999465942383,12.610502969770145,12.610502969770145,12.634863029540291,12.634863029540291,12.622682999655218,0.010402286807729276,-0.800000011920929,3.7250001430511475,0.0,0.0,0.0,0.0,0.0,,,,,
frame_00035.png,1771859347231825211,1771859347.231825,42.30019241323758,-83.69859171908102,236.42001342773438,-0.7060205765352748,-0.7080478439656286,0.013347058280980418,0.005005217244753734,-0.00708,-0.0024000000000000002,0.0019000000000000002,0.0937,-0.633,-9.7781,5.588962553371559,12.502173894138975,15.619999885559082,15.559999465942383,15.559999465942383,15.639999389648438,12.68358392347292,12.634863029540291,12.634863029540291,12.699823705188903,12.663283421935603,0.012886521109113326,-0.800000011920929,1.3250000476837158,0.0,0.0,0.0,0.0,0.0,,,,,
frame_00036.png,1771859347282138958,1771859347.2821388,42.30019543548674,-83.6985917944383,236.42526245117188,-0.7060766126518895,-0.7079938670065118,0.013325857310607668,0.004787783843951426,-0.00783,-0.006070000000000001,0.00455,-0.1095,-0.13090000000000002,-9.7141,5.593158235478122,12.51155938327043,15.59999942779541,15.649999618530273,15.549999237060547,15.589999198913574,12.667343367364598,12.707943983243066,12.62674275148613,12.659223089310435,12.665313297851059,0.01228894895277538,-0.800000011920929,0.0,0.0,0.0,0.0,0.0,0.0,,,,,
frame_00037.png,1771859347331896965,1771859347.331897,42.30019745010346,-83.69859184715725,236.42970275878906,-0.706111658417669,-0.707958873561434,0.013402395805842904,0.004575475815479072,-0.004430000000000001,-0.007910000000000002,0.005110000000000001,-0.1652,-0.1691,-9.943,5.596379374860094,12.518764878799539,15.569999694824219,15.529999732971191,15.569999694824219,15.549999237060547,12.642983307594454,12.610502969770145,12.642983307594454,12.62674275148613,12.630803084111296,0.008949621340160571,-0.9000000357627869,0.0,0.0,0.0,0.0,0.0,0.0,,,,,
frame_00038.png,1771859347391909542,1771859347.3919096,42.30020047241587,-83.69859192682335,236.43609619140625,-0.7061740820339378,-0.7078970508743647,0.013533238409013985,0.004096667556330445,-0.015100000000000002,-0.014230000000000001,0.0038800000000000006,-0.2427,-0.2639,-9.8733,5.589575540614696,12.503545109822639,15.489999771118164,15.579999923706055,15.559999465942383,15.559999465942383,12.578022631945839,12.651103585648613,12.634863029540291,12.634863029540291,12.624713069168758,0.009690688383323435,-0.9000000357627869,0.0,0.0,0.0,0.0,0.0,0.0,,,,,
frame_00039.png,1771859347432875690,1771859347.4328759,42.300202485119804,-83.69859197857477,236.4406280517578,-0.706174400113278,-0.7078983189176047,0.013577211859339942,0.00365322000539999,-0.015930000000000003,-0.015420000000000003,-0.0007600000000000002,-0.44,-0.2903,-9.979000000000001,5.582607792926171,12.48795867630827,15.569999694824219,15.50999927520752,15.489999771118164,15.559999465942383,12.642983307594454,12.594262413661824,12.578022631945839,12.634863029540291,12.612532845685601,0.009975543049615359,-0.9000000357627869,0.30000001192092896,0.0,0.0,0.0,0.0,0.0,,,,,
frame_00040.png,1771859347483842370,1771859347.4838424,42.30020549968382,-83.6985920541644,236.44833374023438,-0.7061485815973316,-0.7079239535066953,0.013730323574119671,0.003055318981152749,-0.018150000000000003,-0.019670000000000003,-0.0008300000000000001,-0.43010000000000004,-0.2987,-10.0283,5.5749865680768,12.470910453593717,15.460000038146973,15.5,15.460000038146973,15.579999923706055,12.553662572175694,12.586142910000001,12.553662572175694,12.651103585648613,12.586142910000001,0.009240099737311304,-0.9000000357627869,0.7750000357627869,0.0,0.0,0.0,0.0,0.0,,,,,
frame_00041.png,1771859347533730556,1771859347.5337305,42.30020750695682,-83.6985921005378,236.45370483398438,-0.7061125140765038,-0.70795804039091,0.01395440423316937,0.0024093801939890393,-0.016290000000000002,-0.030040000000000004,0.00101,-0.5973,-0.0285,-9.7448,5.564152969016795,12.44667634251243,15.479999542236328,15.5,15.4399995803833,15.529999732971191,12.56990235389168,12.586142910000001,12.53742201606737,12.610502969770145,12.5759925624323,0.010389618590641917,-1.0,2.1500000953674316,0.0,0.0,0.0,0.0,0.0,,,,,
frame_00042.png,1771859347584834621,1771859347.5848346,42.30021050784186,-83.69859217390871,236.46253967285156,-0.7060994389254422,-0.7079667783285969,0.014259024165357828,0.0018175153520363753,-0.010410000000000003,-0.026970000000000004,0.00075,-0.4763,-0.3602,-9.4716,5.553149087961219,12.42206132082397,15.4399995803833,15.389999389648438,15.449999809265137,15.479999542236328,12.53742201606737,12.496821400188903,12.545542294121534,12.56990235389168,12.53742201606737,0.00928675944064245,-1.0,3.4000000953674316,0.0,0.0,0.0,0.0,0.0,,,,,
frame_00043.png,1771859347634684287,1771859347.634684,42.300213499210024,-83.69859224858922,236.47027587890625,-0.7061036332748533,-0.7079585910007915,0.014504772212193909,0.0013798866974261267,-0.0015600000000000002,-0.020630000000000003,-6e-05,-0.3311,-0.6164000000000001,-9.5264,5.539431265812176,12.39137537574589,15.380000114440918,15.399999618530273,15.369999885559082,15.389999389648438,12.48870189652708,12.504941678243066,12.480581618472918,12.496821400188903,12.492761648357991,0.008182003170572069,-1.0,5.625,0.0,0.0,0.0,0.0,0.0,,,,,
frame_00044.png,1771859347686066465,1771859347.6860664,42.30021548777847,-83.69859230089496,236.4754180908203,-0.706144998219877,-0.7079117918269509,0.01480321866908349,0.0010005990411064234,-0.00412,-0.022430000000000002,0.004810000000000001,-0.3521,-0.6771,-9.7661,5.526992612579217,12.363550854782954,15.399999618530273,15.170000076293945,15.380000114440918,15.319999694824219,12.504941678243066,12.318179929351386,12.48870189652708,12.439981002594452,12.437951126678996,0.006017710669848536,-1.0,6.675000190734863,0.0,0.0,0.0,0.0,0.0,,,,,
frame_00045.png,1771859347736012761,1771859347.7360127,42.300218464940684,-83.69859237963774,236.4817657470703,-0.7061950780923443,-0.7078582033895072,0.014999781526450436,0.0005311558013212803,-0.011290000000000001,-0.01882,0.004890000000000001,-0.7276,-0.3251,-9.5411,5.510739495352349,12.327193606733486,15.34999942779541,15.449999809265137,15.369999885559082,15.40999984741211,12.464341062364598,12.545542294121534,12.480581618472918,12.513061956297227,12.50088173281407,0.014089835174302023,-1.0,6.625,0.0,0.0,0.0,0.0,0.0,,,,,
frame_00046.png,1771859347787121151,1771859347.787121,42.30022044628937,-83.69859243425554,236.48521423339844,-0.7062448331720927,-0.7078095098408789,0.014964197683707322,7.863981673390368e-05,-0.015090000000000003,-0.01624,0.0026000000000000003,-0.4173,-0.2582,-9.6432,5.502053708949664,12.307764023697864,15.309999465942383,15.289999961853027,15.34999942779541,15.319999694824219,12.431860724540291,12.415620942824306,12.464341062364598,12.439981002594452,12.437950933080911,0.010577624752341702,-1.0,6.700000286102295,0.0,0.0,0.0,0.0,0.0,,,,,
frame_00047.png,1771859347836862390,1771859347.8368626,42.30022341184902,-83.69859251207701,236.49009704589844,-0.7062681610265797,-0.7077890115143733,0.014830565032499403,-0.00023289580592886916,-0.0105,-0.004220000000000001,-0.0016700000000000003,-0.312,0.0085,-9.5866,5.493735577371616,12.289156862445664,15.319999694824219,15.309999465942383,15.4399995803833,15.319999694824219,12.439981002594452,12.431860724540291,12.53742201606737,12.439981002594452,12.462311186449142,0.014090008447415904,-1.100000023841858,6.200000286102295,0.0,0.0,0.0,0.0,0.0,,,,,
frame_00048.png,1771859347887851573,1771859347.8878515,42.30022538739374,-83.69859256090177,236.49295043945312,-0.706248667981859,-0.7078090632588017,0.01480041928318629,-0.00031069533181045736,0.00024,-0.0012000000000000001,-0.0031000000000000003,-0.2661,-0.0078000000000000005,-9.664900000000001,5.4866695570404085,12.273350598925973,15.299999237060547,15.299999237060547,15.309999465942383,15.359999656677246,12.42374044648613,12.42374044648613,12.431860724540291,12.472461340418759,12.437950739482828,0.013411182156831656,-1.100000023841858,6.150000095367432,0.0,0.0,0.0,0.0,0.0,,,,,
frame_00049.png,1771859347937630939,1771859347.937631,42.300228347081806,-83.69859262663417,236.4976806640625,-0.7062178892909123,-0.7078397844208387,0.014800443070069771,-0.00028164069068478513,-0.00034,0.0017900000000000004,-0.0013300000000000002,-0.0091,-0.0824,-10.0672,5.482704944186173,12.264481997847819,15.299999237060547,15.289999961853027,15.269999504089355,15.319999694824219,12.42374044648613,12.415620942824306,12.399380386715984,12.439981002594452,12.419680694655218,0.01265432138386555,-1.100000023841858,5.550000190734863,0.0,0.0,0.0,0.0,0.0,,,,,
frame_00050.png,1771859347988823433,1771859347.9888237,42.30023031913873,-83.69859266828963,236.5016632080078,-0.7062101056927587,-0.7078430131611286,0.015015695644070761,-0.00029020806618854095,0.00474,-0.0038700000000000006,0.0018400000000000003,0.024800000000000003,-0.26180000000000003,-9.946200000000001,5.483445370721818,12.266138287582464,15.289999961853027,15.25999927520752,15.299999237060547,15.25,12.415620942824306,12.391260108661823,12.42374044648613,12.383140605000001,12.403440525743065,0.011193599398728247,-1.100000023841858,4.300000190734863,0.0,0.0,0.0,0.0,0.0,,,,,
frame_00051.png,1771859348039019884,1771859348.0390198,42.30023327712764,-83.69859273019608,236.50775146484375,-0.706257887075431,-0.7077846967009612,0.015508779332181283,-0.00031276716841381966,0.011770000000000001,-0.015260000000000003,0.0024600000000000004,-0.042300000000000004,-0.3564,-9.836400000000001,5.483496844029703,12.266253430283804,15.279999732971191,15.269999504089355,15.299999237060547,15.269999504089355,12.407500664770147,12.399380386715984,12.42374044648613,12.399380386715984,12.40750047117206,0.011515092337774094,-1.100000023841858,4.125,0.0,0.0,0.0,0.0,0.0,,,,,
frame_00052.png,1771859348089867383,1771859348.0898674,42.30023524869007,-83.6985927738292,236.5116424560547,-0.7063215303992798,-0.707705996953217,0.016183770516758577,-0.0004507135823190404,-0.00192,-0.019420000000000003,0.0066900000000000015,0.0478,-0.5522,-9.1997,5.485578683234973,12.270910379675641,15.269999504089355,15.359999656677246,15.289999961853027,15.219999313354492,12.399380386715984,12.472461340418759,12.415620942824306,12.358779770837517,12.41156061019914,0.011462086036946316,-1.100000023841858,3.924999952316284,0.0,0.0,0.0,0.0,0.0,,,,,
frame_00053.png,1771859348139818140,1771859348.1398182,42.30023820459334,-83.69859284134851,236.516845703125,-0.706366536587626,-0.7076499050867384,0.0166521220450188,-0.0007966500674472157,0.00111,-0.020020000000000003,0.00651,-0.4824,-0.4177,-9.5142,5.479494041403753,12.257299400977713,15.229999542236328,15.239999771118164,15.269999504089355,15.279999732971191,12.36690004889168,12.375020326945839,12.399380386715984,12.407500664770147,12.387200356830911,0.010597844729389318,-1.100000023841858,4.325000286102295,0.0,0.0,0.0,0.0,0.0,,,,,
frame_00054.png,1771859348191178857,1771859348.1911788,42.30024017550412,-83.69859288464451,236.5193634033203,-0.706383766179723,-0.7076200648701138,0.017175852728109516,-0.0008993075273221705,0.014770000000000002,-0.02024,0.0019600000000000004,-0.3649,-0.5613,-9.6,5.476985518089408,12.251687984834922,15.219999313354492,15.15999984741211,15.299999237060547,15.229999542236328,12.358779770837517,12.310059651297227,12.42374044648613,12.36690004889168,12.364869979378138,0.009238073535933396,-1.100000023841858,4.5,0.0,0.0,0.0,0.0,0.0,,,,,
frame_00055.png,1771859348240748089,1771859348.240748,42.300243126077305,-83.69859295220526,236.52206420898438,-0.7064130945376378,-0.7075838220379993,0.017458613811801478,-0.0009335200189547685,0.00192,-0.005410000000000001,0.0022400000000000007,-0.41650000000000004,-0.2515,-9.5588,5.470013699350838,12.236092444625864,15.339999198913574,15.229999542236328,15.25999927520752,15.239999771118164,12.456220784310437,12.36690004889168,12.391260108661823,12.375020326945839,12.397350317202445,0.013178870076893362,-1.100000023841858,4.425000190734863,0.0,0.0,0.0,0.0,0.0,,,,,
frame_00056.png,1771859348291741650,1771859348.2917416,42.300245087265914,-83.6985929977677,236.52377319335938,-0.7064185041509677,-0.7075785631270544,0.017442544747460334,-0.0011097877703519794,-0.0034700000000000004,-0.006620000000000001,-0.0009500000000000001,-0.30870000000000003,-0.1313,-10.040600000000001,5.4647040096646755,12.2242149873793,15.25999927520752,15.199999809265137,15.25999927520752,15.219999313354492,12.391260108661823,12.342539989121533,12.391260108661823,12.358779770837517,12.370959994320675,0.012004452399837478,-1.100000023841858,4.099999904632568,0.0,0.0,0.0,0.0,0.0,,,,,
frame_00057.png,1771859348341647752,1771859348.3416479,42.30024803083114,-83.69859306138714,236.52647399902344,-0.706422608096129,-0.7075694037210862,0.01764074594182983,-0.0012007377170328223,0.008510000000000002,-0.01314,-0.0010400000000000001,-0.0898,-0.3365,-10.2352,5.465976558621734,12.227061603043303,15.179999351501465,15.179999351501465,15.1899995803833,15.25999927520752,12.326299433013212,12.326299433013212,12.33441971106737,12.391260108661823,12.344569671438904,0.009610491237432997,-1.100000023841858,2.7750000953674316,0.0,0.0,0.0,0.0,0.0,,,,,
frame_00058.png,1771859348392764526,1771859348.3927643,42.30024999474236,-83.6985930995663,236.52906799316406,-0.7064182150305615,-0.7075571306866271,0.01829026832638203,-0.0012955200082537099,0.021300000000000003,-0.021970000000000003,-0.0006100000000000001,0.0206,-0.24750000000000003,-9.8497,5.465376618183209,12.225719572278747,15.25999927520752,15.229999542236328,15.229999542236328,15.1899995803833,12.391260108661823,12.36690004889168,12.36690004889168,12.33441971106737,12.364869979378138,0.01138177644896326,-1.100000023841858,0.0,0.0,0.0,0.0,0.0,0.0,,,,,
frame_00059.png,1771859348442841708,1771859348.4428415,42.30025293827101,-83.6985931560565,236.53402709960938,-0.7064193600852098,-0.7075370156287742,0.01899910593773259,-0.001446784537129311,0.014510000000000002,-0.025130000000000006,0.0009500000000000001,-0.12340000000000001,-0.4662,-10.067300000000001,5.4576629901477265,12.208464649181057,15.1899995803833,15.15999984741211,15.1899995803833,15.1899995803833,12.33441971106737,12.310059651297227,12.33441971106737,12.33441971106737,12.328329696124834,0.009818191753687732,-1.100000023841858,0.0,0.0,0.0,0.0,0.0,0.0,,,,,
frame_00060.png,1771859348493833711,1771859348.4938338,42.30025489956708,-83.69859319228287,236.5375213623047,-0.7064293790423988,-0.7075069056823214,0.01972422848791404,-0.0015702382475346627,0.019420000000000003,-0.02035,-0.00010000000000000002,-0.41240000000000004,-0.5732,-9.861,5.446814689164673,12.184197650780023,15.1899995803833,15.119999885559082,15.179999351501465,15.149999618530273,12.33441971106737,12.27757931347292,12.326299433013212,12.301939373243066,12.310059457699142,0.0103299216350993,-1.0,0.0,0.0,0.0,0.0,0.0,0.0,,,,,
frame_00061.png,1771859348543773292,1771859348.5437732,42.30025783316292,-83.6985932422779,236.54299926757812,-0.7064476408461174,-0.7074691700286866,0.020418809074818273,-0.0014752755140561413,0.030250000000000003,-0.00979,-0.00011000000000000002,-0.42560000000000003,-0.09730000000000001,-9.5827,5.435311336543946,12.158465341168615,15.15999984741211,15.229999542236328,15.229999542236328,15.199999809265137,12.310059651297227,12.36690004889168,12.36690004889168,12.342539989121533,12.346599934550529,0.015473547697248397,-1.0,0.0,0.0,0.0,0.0,0.0,0.0,,,,,
frame_00062.png,1771859348595318597,1771859348.5953186,42.30026075751174,-83.69859328102729,236.54698181152344,-0.7064627728090165,-0.7074275888549449,0.021348453089671447,-0.000894825431629484,0.051460000000000006,-0.011130000000000001,-0.0004700000000000001,-0.2748,0.0131,-9.3238,5.426579268507833,12.138932228895913,15.1899995803833,15.109999656677246,15.210000038146973,15.089999198913574,12.33441971106737,12.269459035418759,12.350660267175694,12.253218479310437,12.301939373243066,0.013428458226261918,-1.0,0.0,0.0,0.0,0.0,0.0,0.0,,,,,
frame_00063.png,1771859348644760318,1771859348.6447604,42.30026270080762,-83.69859330322514,236.54867553710938,-0.7064636272896947,-0.7074040209257991,0.022104166429458016,-0.00031673515360368046,0.028540000000000006,-0.0053100000000000005,-0.0019700000000000004,-0.08600000000000001,-0.2763,-9.021,5.419331631863753,12.122719700581305,15.089999198913574,15.139999389648438,15.199999809265137,15.119999885559082,12.253218479310437,12.293819095188905,12.342539989121533,12.27757931347292,12.291789219273449,0.01394650069192284,-1.0,0.0,0.0,0.0,0.0,0.0,0.0,,,,,
frame_00064.png,1771859348696284964,1771859348.696285,42.30026561492878,-83.69859333825018,236.54931640625,-0.7064629800434764,-0.7073897023806572,0.022579863717182944,0.0001286406199715352,0.021640000000000003,0.0029400000000000003,0.0024600000000000004,-0.9413,-0.22940000000000002,-9.5791,5.4057909224753535,12.092429946122017,15.049999237060547,15.179999351501465,15.109999656677246,15.15999984741211,12.22073814148613,12.326299433013212,12.269459035418759,12.310059651297227,12.281639065303832,0.015646906372403093,-1.0,0.0,0.0,0.0,0.0,0.0,0.0,,,,,
frame_00065.png,1771859348746161555,1771859348.7461617,42.30026755532884,-83.69859336338655,236.5486602783203,-0.7064229680810693,-0.7074205286590054,0.022852214737043436,0.0007497205864740748,0.027440000000000003,0.01602,-0.004190000000000001,-0.9439000000000001,-0.5876,-9.5586,5.392841412593924,12.063462669487853,15.139999389648438,15.049999237060547,15.119999885559082,15.109999656677246,12.293819095188905,12.22073814148613,12.27757931347292,12.269459035418759,12.26539889639168,0.016739491175662605,-1.0,0.0,0.0,0.0,0.0,0.0,0.0,,,,,
frame_00066.png,1771859348797438016,1771859348.797438,42.30027045632565,-83.69859340668793,236.54782104492188,-0.7064059458342646,-0.7074382933499473,0.022794967919100156,0.0014457626634152756,0.016730000000000002,0.018680000000000006,-0.0026300000000000004,-0.5357000000000001,-0.9977,-9.9099,5.38333892562363,12.042206176284525,15.109999656677246,15.079999923706055,15.059999465942383,15.079999923706055,12.269459035418759,12.245098975648615,12.228858419540291,12.245098975648615,12.24712885156407,0.01701703759923269,-1.0,0.0,0.0,0.0,0.0,0.0,0.0,,,,,
frame_00067.png,1771859348847439625,1771859348.8474395,42.300272388040376,-83.69859344029899,236.54757690429688,-0.7064338168312597,-0.7074181422505872,0.022520428528753883,0.0019143538930051877,0.00918,0.011480000000000002,0.0014500000000000003,-0.5205000000000001,-0.8128000000000001,-10.1194,5.376110785051192,12.026037259512414,15.059999465942383,15.049999237060547,15.059999465942383,15.109999656677246,12.228858419540291,12.22073814148613,12.228858419540291,12.269459035418759,12.236978503996369,0.01754037842491329,-1.0,0.0,0.0,0.0,0.0,0.0,0.0,,,,,
frame_00068.png,1771859348898400072,1771859348.8984,42.300275277465076,-83.69859349946144,236.5482635498047,-0.7064875430017242,-0.7073741956902326,0.022178880967336008,0.0022794942465183612,0.0048200000000000005,0.013170000000000001,0.00079,-0.2664,-0.4722,-10.0816,5.367953937677638,12.007790881348615,15.049999237060547,15.00999927520752,14.989999771118164,15.039999961853027,12.22073814148613,12.188257803661823,12.172018021945838,12.212618637824306,12.198408151229525,0.015874466149888643,-1.0,0.0,0.0,0.0,0.0,0.0,0.0,,,,,
frame_00069.png,1771859348948292612,1771859348.9482925,42.30027719755627,-83.69859354049859,236.54949951171875,-0.7065285567282968,-0.7073416864848429,0.021884549661765222,0.0024906975548677976,-0.0006900000000000001,0.011940000000000001,-0.0011200000000000003,-0.11950000000000001,-0.1521,-9.824,5.357547208237615,11.984511651995051,15.0,15.059999465942383,15.029999732971191,15.0,12.180138300000001,12.228858419540291,12.204498359770147,12.180138300000001,12.19840834482761,0.01784776042976705,-1.0,0.0,0.0,0.0,0.0,0.0,0.0,,,,,
frame_00070.png,1771859348999047180,1771859348.9990473,42.30028007927916,-83.69859360647479,236.55162048339844,-0.7065668625629016,-0.7073122861821882,0.021588326003305736,0.002557874922452512,-0.012090000000000002,0.012870000000000003,0.00124,-0.3687,0.22660000000000002,-9.639700000000001,5.3465359082748956,11.959880034656445,15.029999732971191,15.00999927520752,15.029999732971191,15.039999961853027,12.204498359770147,12.188257803661823,12.204498359770147,12.212618637824306,12.202468290256606,0.02028350241785093,-0.9000000357627869,0.0,0.0,0.0,0.0,0.0,0.0,,,,,
frame_00071.png,1771859349049142944,1771859349.049143,42.30028199863784,-83.69859364855326,236.552734375,-0.7065881091158852,-0.7072983006182344,0.021339170669890124,0.002645334329924122,-0.009070000000000002,0.012250000000000002,0.0027700000000000003,-0.41440000000000005,0.020800000000000003,-9.8169,5.337248820118967,11.939105375676924,15.059999465942383,14.960000038146973,15.00999927520752,14.929999351501465,12.228858419540291,12.147657962175694,12.188257803661823,12.123297128013212,12.172017828347757,0.019508367280628627,-0.800000011920929,0.0,0.0,0.0,0.0,0.0,0.0,,,,,
frame_00072.png,1771859349100023597,1771859349.1000235,42.3002848726771,-83.69859370398012,236.5546112060547,-0.706563202759233,-0.7073297113227978,0.02112859925277908,0.002588876250024968,-0.0026500000000000004,0.0016600000000000002,-0.004880000000000001,-0.4652,-0.0112,-9.5433,5.326120227617418,11.914211381966508,14.889999389648438,14.929999351501465,14.90999984741211,15.029999732971191,12.090816790188905,12.123297128013212,12.107057346297227,12.204498359770147,12.131417406067373,0.01823083518810402,-0.5,3.125,0.0,0.0,0.0,0.0,0.0,,,,,
frame_00073.png,1771859349149890199,1771859349.1498904,42.30028678494534,-83.69859373773821,236.55563354492188,-0.706487512538162,-0.707409783081146,0.020931279527524188,0.002945329534524822,0.013330000000000003,0.020690000000000004,-0.00578,-0.7421,-0.3257,-9.4527,5.306602054655561,11.87055040014121,14.929999351501465,14.899999618530273,14.929999351501465,14.9399995803833,12.123297128013212,12.098937068243064,12.123297128013212,12.131417406067373,12.119237182584214,0.020949894828806385,-0.30000001192092896,5.474999904632568,0.0,0.0,0.0,0.0,0.0,,,,,
frame_00074.png,1771859349201186673,1771859349.2011867,42.30028964171898,-83.69859377973184,236.55612182617188,-0.7064284652624094,-0.7074804617561727,0.02043590945765316,0.0035487046803183535,0.0027800000000000004,0.03841000000000001,-0.007040000000000001,-0.5576,-0.3951,-9.590300000000001,5.291532477406418,11.836840660009512,14.929999351501465,14.929999351501465,14.869999885559082,14.960000038146973,12.123297128013212,12.123297128013212,12.07457700847292,12.147657962175694,12.117207306668758,0.02368593569113912,-0.10000000149011612,8.449999809265137,0.0,0.0,0.0,0.0,0.0,,,,,
frame_00075.png,1771859349250879856,1771859349.2508798,42.30029153845666,-83.69859380581758,236.5560760498047,-0.7063767828829022,-0.7075460190029822,0.019833830203236674,0.004134099237069205,0.00099,0.03602,-0.0043300000000000005,-0.42060000000000003,-0.5357000000000001,-10.1339,5.282953256403484,11.817649457379211,14.880000114440918,14.889999389648438,14.869999885559082,14.889999389648438,12.082697286527083,12.090816790188905,12.07457700847292,12.090816790188905,12.084726968844453,0.022599884387201286,0.10000000149011612,10.100000381469727,0.0,0.0,0.0,0.0,0.0,,,,,
frame_00076.png,1771859349301914883,1771859349.301915,42.300294386188845,-83.69859384977545,236.55618286132812,-0.7063531838528211,-0.707574637554941,0.019529520498075173,0.0046807882981218275,0.00903,0.021400000000000002,-0.00072,-0.2277,-0.6493,-10.1981,5.282807145143989,11.817322615258396,14.819999694824219,14.839999198913574,14.869999885559082,14.84999942779541,12.033976392594452,12.050216174310437,12.07457700847292,12.058336452364598,12.054276506935603,0.02005140245314571,0.10000000149011612,10.52500057220459,0.0,0.0,0.0,0.0,0.0,,,,,
frame_00077.png,1771859349352060238,1771859349.35206,42.30029628874408,-83.6985938795551,236.55703735351562,-0.7063436525379481,-0.7075795372576309,0.0196207210858712,0.004987010898126183,0.015710000000000002,0.0023300000000000005,-0.0008100000000000001,0.0565,-0.5451,-10.081100000000001,5.293695204430435,11.841678550598617,14.84999942779541,14.609999656677246,14.84999942779541,14.75999927520752,12.058336452364598,11.863454425418759,12.058336452364598,11.985255498661825,11.991345707202445,0.012639015319011657,0.10000000149011612,10.52500057220459,0.0,0.0,0.0,0.0,0.0,,,,,
frame_00078.png,1771859349402985673,1771859349.4029858,42.30029914389652,-83.69859392487867,236.55885314941406,-0.7063322223123415,-0.7075815318575522,0.019928390131928077,0.005101643282166217,0.0029300000000000003,-0.0027600000000000003,0.00338,-0.0419,-0.6967,-9.7178,5.294713560782678,11.843956552657204,14.859999656677246,14.889999389648438,14.819999694824219,14.84999942779541,12.066456730418759,12.090816790188905,12.033976392594452,12.058336452364598,12.062396591391678,0.018443164474920944,0.10000000149011612,10.449999809265137,0.0,0.0,0.0,0.0,0.0,,,,,
frame_00079.png,1771859349452694846,1771859349.452695,42.30030104855848,-83.69859395827095,236.5605010986328,-0.7063344329475001,-0.707582575132759,0.01984096798035975,0.004990409885885063,-0.014930000000000002,0.005600000000000001,-0.00022000000000000003,-0.3557,-0.5704,-9.8931,5.291578927767908,11.836944566681145,14.819999694824219,14.84999942779541,14.880000114440918,14.84999942779541,12.033976392594452,12.058336452364598,12.082697286527083,12.058336452364598,12.058336645962683,0.018703481969892483,0.10000000149011612,10.475000381469727,0.0,0.0,0.0,0.0,0.0,,,,,
frame_00080.png,1771859349503846477,1771859349.5038464,42.30030390502774,-83.69859401524259,236.56277465820312,-0.7063296445216529,-0.7076041327407377,0.01929155349356868,0.00476031111889564,-0.021580000000000005,0.011100000000000002,-0.0006300000000000001,-0.1754,-0.5949,-10.1396,5.294521462215942,11.84352683968933,14.929999351501465,14.880000114440918,14.869999885559082,14.869999885559082,12.123297128013212,12.082697286527083,12.07457700847292,12.07457700847292,12.088787107871534,0.020708381169053613,0.10000000149011612,10.375,0.0,0.0,0.0,0.0,0.0,,,,,
frame_00081.png,1771859349553910242,1771859349.5539103,42.30030580991164,-83.69859405141615,236.5643768310547,-0.7063078635033399,-0.7076397060387671,0.018810195382975965,0.004628708282985401,-0.0083,0.007850000000000001,-0.0007100000000000001,-0.0068000000000000005,-0.10070000000000001,-9.7139,5.305958784408683,11.86911144319516,14.929999351501465,14.889999389648438,14.859999656677246,14.899999618530273,12.123297128013212,12.090816790188905,12.066456730418759,12.098937068243064,12.094876929215985,0.019021262636324903,0.10000000149011612,10.52500057220459,0.0,0.0,0.0,0.0,0.0,,,,,
frame_00082.png,1771859349605217062,1771859349.605217,42.30030867815851,-83.69859410776564,236.56756591796875,-0.7062776500641673,-0.7076692381263545,0.018815423146429096,0.004702157092572442,0.0020800000000000003,0.007260000000000001,0.0013900000000000002,-0.07390000000000001,-0.3279,-9.6274,5.318852567294112,11.897954061882892,14.84999942779541,14.929999351501465,14.960000038146973,14.869999885559082,12.058336452364598,12.123297128013212,12.147657962175694,12.07457700847292,12.100967137756607,0.017062855917733072,0.10000000149011612,10.52500057220459,0.0,0.0,0.0,0.0,0.0,,,,,
frame_00083.png,1771859349654973313,1771859349.6549735,42.3003115532656,-83.69859416916378,236.570556640625,-0.7062741137801327,-0.7076795623589177,0.018611981778703268,0.00448412286274719,-0.02202,-0.00023000000000000003,0.00143,0.10890000000000001,-0.5334,-10.152800000000001,5.328911222680915,11.920454670463847,14.920000076293945,14.859999656677246,14.929999351501465,14.880000114440918,12.115177624351388,12.066456730418759,12.123297128013212,12.082697286527083,12.09690719232761,0.014802499295683003,0.0,10.25,0.0,0.0,0.0,0.0,0.0,,,,,
frame_00084.png,1771859349706755989,1771859349.706756,42.30031347307307,-83.69859421543167,236.5728302001953,-0.7063284778869504,-0.7076390410864466,0.01820076636569698,0.003975042120458598,-0.025720000000000003,-0.0007800000000000001,0.0037500000000000003,-0.0108,-0.37170000000000003,-9.9143,5.334865423609628,11.933773860689323,14.929999351501465,14.899999618530273,14.9399995803833,14.920000076293945,12.123297128013212,12.098937068243064,12.131417406067373,12.115177624351388,12.117207306668758,0.015370950390109035,-0.10000000149011612,10.449999809265137,0.0,0.0,0.0,0.0,0.0,,,,,
frame_00085.png,1771859349756778739,1771859349.7567787,42.30031635643555,-83.69859428333575,236.57662963867188,-0.7063720137117196,-0.7076058613672016,0.017895035683767664,0.00350583820318105,-0.018420000000000002,-0.005330000000000001,0.00289,-0.1837,-0.2624,-10.0091,5.3411650622953015,11.947865774450852,15.029999732971191,15.039999961853027,14.960000038146973,14.9399995803833,12.204498359770147,12.212618637824306,12.147657962175694,12.131417406067373,12.17404809145938,0.01893077151002086,-0.20000000298023224,10.425000190734863,0.0,0.0,0.0,0.0,0.0,,,,,
frame_00086.png,1771859349807601069,1771859349.8076012,42.30031828327587,-83.69859432968595,236.5800323486328,-0.7064028745646904,-0.7075773968384539,0.01786100376252613,0.003192308671502794,-0.00131,-0.008100000000000001,0.00144,-0.23390000000000002,-0.1405,-9.9336,5.352442355240522,11.973092402131735,14.960000038146973,14.90999984741211,15.00999927520752,15.0,12.147657962175694,12.107057346297227,12.188257803661823,12.180138300000001,12.155777853033687,0.015258000587168735,-0.20000000298023224,10.375,0.0,0.0,0.0,0.0,0.0,,,,,
frame_00087.png,1771859349857764876,1771859349.857765,42.30032117801268,-83.69859439287521,236.585205078125,-0.7064172873221214,-0.7075608819156722,0.01796896095260581,0.003054668141619318,0.0026800000000000005,-0.0021200000000000004,-1e-05,-0.0086,-0.1973,-9.6533,5.361914952875995,11.994282034686428,15.019999504089355,15.0,15.059999465942383,15.0,12.196378081715984,12.180138300000001,12.228858419540291,12.180138300000001,12.19637827531407,0.016849382067488202,-0.4000000059604645,10.425000190734863,0.0,0.0,0.0,0.0,0.0,,,,,
frame_00088.png,1771859349909273139,1771859349.9092731,42.30032311010973,-83.69859442892975,236.58807373046875,-0.7064054416808025,-0.7075750555992825,0.017897495201144857,0.0029278529587148834,-0.0027300000000000007,0.0010500000000000002,-0.004470000000000001,-0.1915,-0.026000000000000002,-9.3742,5.367166279664671,12.00602893763309,15.00999927520752,15.079999923706055,15.109999656677246,15.079999923706055,12.188257803661823,12.245098975648615,12.269459035418759,12.245098975648615,12.236978697594452,0.019236148868294528,-0.699999988079071,10.25,0.0,0.0,0.0,0.0,0.0,,,,,
frame_00089.png,1771859349966737544,1771859349.9667377,42.30032601066502,-83.69859448188959,236.59115600585938,-0.7063292585973822,-0.7076594251989384,0.017547311686167598,0.003034506379811593,-0.0066900000000000015,0.01353,-0.004560000000000001,-0.0548,-0.43510000000000004,-9.9564,5.374067700338997,12.021467001596315,15.059999465942383,15.079999923706055,15.049999237060547,15.089999198913574,12.228858419540291,12.245098975648615,12.22073814148613,12.253218479310437,12.236978503996369,0.017927221558852662,-0.9000000357627869,10.324999809265137,0.0,0.0,0.0,0.0,0.0,,,,,
frame_00090.png,1771859350008804467,1771859350.0088043,42.30032794755095,-83.69859451816717,236.59298706054688,-0.7063005058527371,-0.7076962156670179,0.017214509662570175,0.003053263799117559,-0.014430000000000002,0.010820000000000001,-0.00237,0.0902,-0.5024000000000001,-10.007200000000001,5.381308096084164,12.037663332454512,15.079999923706055,15.089999198913574,15.09999942779541,15.179999351501465,12.245098975648615,12.253218479310437,12.261338757364596,12.326299433013212,12.271488911334215,0.019424498959801455,-0.9000000357627869,10.225000381469727,0.0,0.0,0.0,0.0,0.0,,,,,
frame_00091.png,1771859350058809036,1771859350.058809,42.30033086132933,-83.69859457579547,236.59666442871094,-0.7063326021018442,-0.7076690188769208,0.017024858795310745,0.002994847711317159,-0.00011000000000000002,0.00111,0.00221,0.3382,-0.39940000000000003,-10.1103,5.397893464208166,12.074763805825816,15.109999656677246,15.049999237060547,15.09999942779541,15.130000114440918,12.269459035418759,12.22073814148613,12.261338757364596,12.28569959152708,12.25930888144914,0.015283535031491498,-0.9000000357627869,10.27500057220459,0.0,0.0,0.0,0.0,0.0,,,,,
frame_00092.png,1771859350110078486,1771859350.1100786,42.30033280882912,-83.69859461390942,236.59959411621094,-0.7064324897128768,-0.7075559183756612,0.01757614540846927,0.0029730392229408284,0.02059,-0.014490000000000001,0.007790000000000001,-0.07300000000000001,-0.0206,-9.485000000000001,5.4131354160000535,12.10885913746716,15.119999885559082,15.079999923706055,15.139999389648438,15.149999618530273,12.27757931347292,12.245098975648615,12.293819095188905,12.301939373243066,12.279609189388376,0.014101250165912156,-0.9000000357627869,10.100000381469727,0.0,0.0,0.0,0.0,0.0,,,,,
frame_00093.png,1771859350159736333,1771859350.1597364,42.300335736899605,-83.69859466667216,236.60385131835938,-0.7064695134661017,-0.7075070551292592,0.018015838661243174,0.003165918922724149,0.011220000000000003,-0.0029400000000000003,0.0018300000000000002,-0.0256,-0.201,-9.887500000000001,5.418090787953205,12.119944007204044,15.179999351501465,15.109999656677246,15.139999389648438,15.109999656677246,12.326299433013212,12.269459035418759,12.293819095188905,12.269459035418759,12.28975914975991,0.014011215105855951,-0.9000000357627869,10.27500057220459,0.0,0.0,0.0,0.0,0.0,,,,,
frame_00094.png,1771859350210810209,1771859350.2108102,42.30033769114024,-83.69859469844704,236.60638427734375,-0.7064814921387355,-0.7074913833265474,0.01813149934833826,0.0033305428229684093,0.004300000000000001,0.007730000000000001,-0.0004300000000000001,-0.2752,-0.5754,-9.569600000000001,5.419816670353853,12.12380470258135,15.170000076293945,15.179999351501465,15.229999542236328,15.1899995803833,12.318179929351386,12.326299433013212,12.36690004889168,12.33441971106737,12.336449780580912,0.017539467453998748,-0.9000000357627869,10.600000381469727,0.0,0.0,0.0,0.0,0.0,,,,,
frame_00095.png,1771859350260733308,1771859350.2607331,42.30034062161303,-83.69859474828343,236.60943603515625,-0.706487008542079,-0.7074920350702361,0.01784221220995736,0.0035752673878423156,0.00557,0.016100000000000003,-0.0006600000000000001,-0.042100000000000005,-0.38880000000000003,-9.9457,5.423944236749042,12.133037820953403,15.25,15.1899995803833,15.25999927520752,15.1899995803833,12.383140605000001,12.33441971106737,12.391260108661823,12.33441971106737,12.360810033949141,0.018772892358612965,-0.9000000357627869,10.52500057220459,0.0,0.0,0.0,0.0,0.0,,,,,
frame_00096.png,1771859350311772232,1771859350.311772,42.30034257497831,-83.69859478456232,236.61151123046875,-0.7064934147489664,-0.7074924777860052,0.017499608021751226,0.0039003219929949475,0.0022400000000000007,0.01776,-0.0023500000000000005,0.2414,-0.33690000000000003,-9.8893,5.431792378432074,12.150593643009843,15.089999198913574,15.329999923706055,15.269999504089355,15.229999542236328,12.253218479310437,12.448101280648613,12.399380386715984,12.36690004889168,12.366900048891678,0.017802126565747995,-0.9000000357627869,10.375,0.0,0.0,0.0,0.0,0.0,,,,,
frame_00097.png,1771859350361396286,1771859350.3613963,42.30034551054246,-83.69859484250442,236.61509704589844,-0.7064796220061507,-0.707511971353804,0.017209356963413802,0.004146337420700024,-0.0009300000000000002,0.011600000000000003,-0.00316,0.2457,-0.4898,-10.0478,5.4438668180844765,12.177603440045889,15.289999961853027,15.25999927520752,15.269999504089355,15.25999927520752,12.415620942824306,12.391260108661823,12.399380386715984,12.391260108661823,12.399380386715984,0.018211871306367623,-0.9000000357627869,10.675000190734863,0.0,0.0,0.0,0.0,0.0,,,,,
frame_00098.png,1771859350412085901,1771859350.412086,42.30034747273953,-83.69859488147537,236.61793518066406,-0.7064790040155416,-0.7075124283532881,0.017219597882835464,0.004131108760971786,0.0085,-0.012420000000000002,-0.00286,0.5658000000000001,-0.3687,-9.908100000000001,5.467041620889359,12.229444083432243,15.319999694824219,15.229999542236328,15.289999961853027,15.389999389648438,12.439981002594452,12.36690004889168,12.415620942824306,12.496821400188903,12.429830848624835,0.01638559887313803,-0.9000000357627869,10.40000057220459,0.0,0.0,0.0,0.0,0.0,,,,,
frame_00099.png,1771859350462479551,1771859350.4624796,42.300350430320925,-83.69859493617727,236.62319946289062,-0.7064696543321851,-0.7075074796490094,0.017874287747775067,0.0037820081939385197,0.00863,-0.04266000000000001,0.00033000000000000005,0.3169,-0.5267000000000001,-9.9917,5.492350805684743,12.28605921126843,15.130000114440918,15.149999618530273,15.299999237060547,15.289999961853027,12.28569959152708,12.301939373243066,12.42374044648613,12.415620942824306,12.356750088520146,0.005753747075130481,-0.9000000357627869,10.300000190734863,0.0,0.0,0.0,0.0,0.0,,,,,
frame_00100.png,1771859350513094493,1771859350.5130944,42.30035240923668,-83.69859497339361,236.62704467773438,-0.7065087481294275,-0.7074528274902727,0.018609023158900333,0.003096764388710269,-0.00859,-0.042260000000000006,0.00464,0.3392,-0.4279,-9.560500000000001,5.501488965654007,12.306500726830075,15.25,15.279999732971191,15.34999942779541,15.279999732971191,12.383140605000001,12.407500664770147,12.464341062364598,12.407500664770147,12.415620749226223,0.008866860273144046,-0.9000000357627869,10.475000381469727,0.0,0.0,0.0,0.0,0.0,,,,,
frame_00101.png,1771859350563480511,1771859350.5634806,42.30035538277912,-83.69859503035119,236.63221740722656,-0.7065559183617275,-0.7073925256572577,0.019198895835233293,0.0024395226930363223,-0.0018300000000000002,-0.026650000000000004,0.004880000000000001,-0.0129,-0.2987,-9.1193,5.502759522283444,12.30934288577673,15.329999923706055,15.369999885559082,15.319999694824219,15.299999237060547,12.448101280648613,12.480581618472918,12.439981002594452,12.42374044648613,12.448101087050528,0.01127259209215236,-0.800000011920929,10.52500057220459,0.0,0.0,0.0,0.0,0.0,,,,,
frame_00102.png,1771859350614858364,1771859350.6148582,42.30035835396603,-83.69859508395784,236.63516235351562,-0.7065812470675135,-0.7073594929649386,0.019489275908308824,0.0023784720877564787,0.0119,0.005350000000000001,-0.00099,-0.032100000000000004,-0.22110000000000002,-8.8069,5.4990536395310725,12.301053048412639,15.359999656677246,15.429999351501465,15.429999351501465,15.399999618530273,12.472461340418759,12.529301738013212,12.529301738013212,12.504941678243066,12.509001623672061,0.016904940938065185,-0.800000011920929,10.675000190734863,0.0,0.0,0.0,0.0,0.0,,,,,
frame_00103.png,1771859350664677812,1771859350.6646779,42.30036033453849,-83.69859511609828,236.63601684570312,-0.7065477801987995,-0.7073903583854315,0.019510647328688506,0.0029068540203019758,0.023880000000000002,0.026120000000000004,-0.006470000000000001,0.2635,-0.1827,-9.999,5.501280521732998,12.306034450285413,15.549999237060547,15.40999984741211,15.479999542236328,15.429999351501465,12.62674275148613,12.513061956297227,12.56990235389168,12.529301738013212,12.55975219992206,0.020617344333109956,-0.699999988079071,10.475000381469727,0.0,0.0,0.0,0.0,0.0,,,,,
frame_00104.png,1771859350715918438,1771859350.7159183,42.30036331209423,-83.69859516791443,236.63768005371094,-0.7065569567223623,-0.7073806069345854,0.019480108197299114,0.003235618134614801,-0.00128,0.012800000000000002,-0.00111,-0.1043,-0.2401,-10.054,5.51119623366574,12.328215302936242,15.329999923706055,15.529999732971191,15.4399995803833,15.449999809265137,12.448101280648613,12.610502969770145,12.53742201606737,12.545542294121534,12.535392140151917,0.01680509563832254,-0.5,10.425000190734863,0.0,0.0,0.0,0.0,0.0,,,,,
frame_00105.png,1771859350765656043,1771859350.765656,42.3003653014816,-83.69859520488782,236.6397705078125,-0.7065243787895935,-0.7074143468257545,0.019448040812902946,0.00316508919457344,-0.007720000000000001,-0.0007800000000000001,0.00019000000000000004,-0.29200000000000004,-0.7471,-10.9379,5.526321539360833,12.362049704257823,15.479999542236328,15.449999809265137,15.429999351501465,15.449999809265137,12.56990235389168,12.545542294121534,12.529301738013212,12.545542294121534,12.54757217003699,0.015007419498990369,-0.5,10.175000190734863,0.0,0.0,0.0,0.0,0.0,,,,,
frame_00106.png,1771859350816782082,1771859350.816782,42.300368292142224,-83.69859526452872,236.64544677734375,-0.7065089359830315,-0.707430341076404,0.019482802372896704,0.0028029114053345783,-0.015460000000000002,-0.014710000000000003,-0.0004000000000000001,-0.4091,-0.7794000000000001,-10.499500000000001,5.535978864155252,12.383652560383451,15.460000038146973,15.539999961853027,15.460000038146973,15.559999465942383,12.553662572175694,12.618623247824306,12.553662572175694,12.634863029540291,12.590202855428997,0.016679270840197866,-0.5,10.625,0.0,0.0,0.0,0.0,0.0,,,,,
frame_00107.png,1771859350866772280,1771859350.8667722,42.30037029139243,-83.69859530943852,236.65089416503906,-0.7064991030704117,-0.707441819959958,0.019514384687153795,0.002068217282508795,-0.016000000000000004,-0.03819000000000001,0.0020100000000000005,-0.019100000000000002,-0.3302,-10.3527,5.557115105705257,12.430933064556317,15.489999771118164,15.469999313354492,15.519999504089355,15.489999771118164,12.578022631945839,12.561782075837517,12.602382691715986,12.578022631945839,12.580052507861296,0.01199583671881846,-0.5,10.574999809265137,0.0,0.0,0.0,0.0,0.0,,,,,
frame_00108.png,1771859350917720769,1771859350.9177208,42.300373298770026,-83.69859537907074,236.65972900390625,-0.7065308902470835,-0.7073996449847918,0.019961351214169594,0.001178074598174426,-0.007250000000000001,-0.04531000000000001,0.00478,-0.098,0.1048,-9.4055,5.570278757668441,12.460379364178843,15.460000038146973,15.429999351501465,15.549999237060547,15.59999942779541,12.553662572175694,12.529301738013212,12.62674275148613,12.667343367364598,12.594262607259907,0.010744716446270638,-0.5,10.425000190734863,0.0,0.0,0.0,0.0,0.0,,,,,
frame_00109.png,1771859350967547578,1771859350.9675477,42.30037530633164,-83.69859542297743,236.663818359375,-0.7065777930362844,-0.7073387909598113,0.020470592935875435,0.0007823147317997017,0.009250000000000001,-0.012570000000000003,0.0019900000000000004,-0.11750000000000001,-0.0315,-7.9453000000000005,5.569920675088034,12.459578354931429,15.539999961853027,15.529999732971191,15.65999984741211,15.649999618530273,12.618623247824306,12.610502969770145,12.716064261297227,12.707943983243066,12.663283615533686,0.016349290064188407,-0.5,10.350000381469727,0.0,0.0,0.0,0.0,0.0,,,,,
frame_00110.png,1771859351018839540,1771859351.0188396,42.300378314731034,-83.69859548520529,236.66546630859375,-0.706589904844661,-0.7073297934753959,0.020354106517749958,0.000989940165242214,-0.00446,0.023410000000000004,0.0017800000000000001,-0.459,0.0772,-8.3831,5.56232218669358,12.442580992302338,15.6899995803833,15.739999771118164,15.679999351501465,15.6899995803833,12.74042432106737,12.781024936945839,12.732304043013212,12.74042432106737,12.748544405523448,0.024590027857596154,-0.5,10.5,0.0,0.0,0.0,0.0,0.0,,,,,
frame_00111.png,1771859351068536013,1771859351.068536,42.3003803228247,-83.69859552341934,236.6639862060547,-0.7065671520741411,-0.707369148230681,0.0197266005186949,0.0016152316286644625,-0.0026300000000000004,0.045340000000000005,-0.0010600000000000002,-0.015700000000000002,-0.1131,-8.3895,5.569917309543382,12.459570826409974,15.670000076293945,15.6899995803833,15.710000038146973,15.609999656677246,12.724184539351388,12.74042432106737,12.756664877175693,12.675463645418759,12.724184345753303,0.021237771591814312,-0.4000000059604645,10.300000190734863,0.0,0.0,0.0,0.0,0.0,,,,,
frame_00112.png,1771859351119181928,1771859351.1191819,42.300383340345206,-83.6985955760106,236.66024780273438,-0.7065034488601731,-0.7074495602176903,0.019049430804959203,0.0022617874533297742,-0.004850000000000001,0.02934,0.0004700000000000001,-0.18660000000000002,0.3786,-10.9219,5.5844111785920445,12.491992741839688,15.859999656677246,15.75,15.65999984741211,15.529999732971191,12.878465950418759,12.789145215000001,12.716064261297227,12.610502969770145,12.748544599121534,0.02053730438239618,-0.4000000059604645,10.350000381469727,0.0,0.0,0.0,0.0,0.0,,,,,
frame_00113.png,1771859351169056118,1771859351.169056,42.30038536007622,-83.69859560914131,236.6593017578125,-0.7064566141272163,-0.7075068378098381,0.018596880033266854,0.0026986776875131853,-0.00029,-0.0015700000000000002,0.00037000000000000005,0.1424,0.3133,-11.1447,5.606801419005544,12.542078366230262,15.729999542236328,15.719999313354492,15.65999984741211,15.789999961853027,12.772904658891678,12.764784380837519,12.716064261297227,12.821625552824306,12.768844713462682,0.01808044413460149,-0.4000000059604645,10.425000190734863,0.0,0.0,0.0,0.0,0.0,,,,,
frame_00114.png,1771859351220230185,1771859351.22023,42.300388397525666,-83.69859566070426,236.66065979003906,-0.7064280114828415,-0.7075320396119125,0.018686289116873336,0.002949595573249624,-0.0028700000000000006,0.005710000000000001,0.0030100000000000005,-0.126,-0.1627,-10.7009,5.62339240764323,12.579191412353449,15.789999961853027,15.719999313354492,15.739999771118164,15.670000076293945,12.821625552824306,12.764784380837519,12.781024936945839,12.724184539351388,12.772904852489763,0.015399514466889879,-0.4000000059604645,10.425000190734863,0.0,0.0,0.0,0.0,0.0,,,,,
frame_00115.png,1771859351270342359,1771859351.2703424,42.30039042812132,-83.69859569687311,236.66336059570312,-0.7064538597464416,-0.7074980244343295,0.01900807367756526,0.0028605254664771373,0.0031400000000000004,0.003650000000000001,0.0025200000000000005,0.2763,-0.9525,-10.5791,5.6386853701393225,12.613400851879456,15.769999504089355,15.719999313354492,15.75,15.829999923706055,12.805384996715986,12.764784380837519,12.789145215000001,12.854105890648613,12.803355120800529,0.015059718719140539,-0.4000000059604645,10.52500057220459,0.0,0.0,0.0,0.0,0.0,,,,,
frame_00116.png,1771859351330329711,1771859351.3303297,42.30039348229462,-83.69859575529128,236.66944885253906,-0.706488845271228,-0.7074566494161982,0.019347599314705064,0.0020666651617512986,-0.018040000000000004,-0.03714,0.007280000000000001,-0.373,-0.507,-10.189,5.6485623953846655,12.635495164731774,15.719999313354492,15.6899995803833,15.809999465942383,15.799999237060547,12.764784380837519,12.74042432106737,12.837865334540291,12.82974505648613,12.793204773232828,0.012481474326487338,-0.4000000059604645,10.5,0.0,0.0,0.0,0.0,0.0,,,,,
frame_00117.png,1771859351371095935,1771859351.371096,42.30039551958026,-83.6985957985278,236.67437744140625,-0.7065481540018849,-0.7073974667014788,0.019392626519076528,0.001567232449420938,-0.018690000000000002,-0.01861,0.007550000000000001,-0.45270000000000005,-0.3718,-8.8907,5.649038189071695,12.636559486662039,15.789999961853027,15.75999927520752,15.809999465942383,15.829999923706055,12.821625552824306,12.797264718661824,12.837865334540291,12.854105890648613,12.827715374168758,0.015127209879278066,-0.5,10.699999809265137,0.0,0.0,0.0,0.0,0.0,,,,,
frame_00118.png,1771859351431055257,1771859351.4310553,42.30039857716257,-83.69859587026171,236.68016052246094,-0.7066156752285428,-0.7073464055365087,0.018810856986803765,0.0012254612654291792,-0.016040000000000002,0.006950000000000001,0.00046000000000000007,-0.17320000000000002,-0.199,-8.997300000000001,5.65117189583269,12.64133246066398,15.869999885559082,15.869999885559082,15.949999809265137,15.90999984741211,12.88658622847292,12.88658622847292,12.951546904121534,12.919066566297225,12.91094648184115,0.021327974880506213,-0.5,10.574999809265137,0.0,0.0,0.0,0.0,0.0,,,,,
frame_00119.png,1771859351471856968,1771859351.4718568,42.300400616110686,-83.69859591644818,236.68186950683594,-0.7066341022123276,-0.7073422095686175,0.01825675317805773,0.0013910846700897518,-0.01139,0.030260000000000002,-0.0009100000000000001,-0.00030000000000000003,0.30260000000000004,-8.9312,5.652920943832224,12.645244976096055,15.899999618530273,15.880000114440918,15.9399995803833,15.920000076293945,12.910946288243066,12.894706506527081,12.943426626067373,12.927186844351388,12.919066566297227,0.02165411510166787,-0.5,10.350000381469727,0.0,0.0,0.0,0.0,0.0,,,,,
frame_00120.png,1771859351523064118,1771859351.5230641,42.30040367682585,-83.69859598358944,236.68263244628906,-0.7066275544523339,-0.7073653890691053,0.017579384893843003,0.0016342773881060351,-0.007510000000000001,0.030370000000000005,-0.00221,0.11330000000000001,0.17120000000000002,-9.649700000000001,5.663646504969275,12.669237412825971,15.899999618530273,15.90999984741211,15.949999809265137,15.859999656677246,12.910946288243066,12.919066566297225,12.951546904121534,12.878465950418759,12.915006427270146,0.019398879856443875,-0.5,10.350000381469727,0.0,0.0,0.0,0.0,0.0,,,,,
frame_00121.png,1771859351572991517,1771859351.5729914,42.30040572081751,-83.69859602952832,236.68316650390625,-0.7066095086838499,-0.7073991283183414,0.01693544332461114,0.001632866013511254,-0.016790000000000003,0.022850000000000006,-0.0033000000000000004,-0.13340000000000002,-0.0887,-9.4368,5.676340704572515,12.697633575686442,15.989999771118164,15.920000076293945,15.920000076293945,15.9399995803833,12.98402724194584,12.927186844351388,12.927186844351388,12.943426626067373,12.945456889178997,0.019517283438316376,-0.5,10.475000381469727,0.0,0.0,0.0,0.0,0.0,,,,,
frame_00122.png,1771859351623876735,1771859351.6238766,42.30040879394526,-83.69859609431309,236.68418884277344,-0.7065854553566701,-0.7074350553175552,0.016431116377436668,0.0016294787036916095,-0.007420000000000001,0.011230000000000002,-0.0014700000000000002,-0.14700000000000002,-0.23320000000000002,-10.184800000000001,5.690509219065069,12.729327692495415,15.969999313354492,15.960000038146973,15.949999809265137,15.899999618530273,12.967786685837519,12.959667182175693,12.951546904121534,12.910946288243066,12.947486765094453,0.017138302812932826,-0.5,10.75,0.0,0.0,0.0,0.0,0.0,,,,,
frame_00123.png,1771859351673716941,1771859351.673717,42.300410846068225,-83.69859613853791,236.68533325195312,-0.7065984366186049,-0.7074329148609889,0.015969386055351836,0.0015162613373345271,-0.025710000000000004,0.011920000000000002,0.00068,0.0877,-0.34690000000000004,-10.1037,5.699487079867345,12.74941062843846,16.0,16.10999870300293,15.9399995803833,15.989999771118164,12.99214752,13.08146748102642,12.943426626067373,12.98402724194584,13.000267217259907,0.019675936098716127,-0.5,10.475000381469727,0.0,0.0,0.0,0.0,0.0,,,,,
frame_00124.png,1771859351725111301,1771859351.7251112,42.300413927769306,-83.69859620709722,236.6884307861328,-0.706607798248947,-0.7074374925579137,0.015364043761463792,0.0012488940879223495,-0.029230000000000003,0.01327,0.0006900000000000001,-0.1545,-0.3511,-9.9463,5.70366384148664,12.758753793575126,15.979999542236328,16.020000457763672,16.029998779296875,16.049999237060547,12.975906963891678,13.008388076108323,13.016506805377809,13.03274736148613,13.008387301715985,0.019565665438780192,-0.6000000238418579,10.574999809265137,0.0,0.0,0.0,0.0,0.0,,,,,
frame_00125.png,1771859351775182523,1771859351.7751825,42.300417013295544,-83.69859627349098,236.6924591064453,-0.7065978393643646,-0.7074579659725942,0.014869218527657473,0.0012751972035812808,-0.00144,0.014420000000000002,-0.0014700000000000002,0.0613,-0.34750000000000003,-9.9901,5.71190226079504,12.777182643262858,16.06999969482422,16.06999969482422,16.09000015258789,16.020000457763672,13.048987917594452,13.048987917594452,13.065228473702776,13.008388076108323,13.042898096250001,0.020796091001113556,-0.6000000238418579,10.5,0.0,0.0,0.0,0.0,0.0,,,,,
frame_00126.png,1771859351826131781,1771859351.8261318,42.30041907759362,-83.69859631290277,236.69554138183594,-0.7065832568420131,-0.7074710443244996,0.014902748512380883,0.0016524768417627228,0.019450000000000002,0.0007800000000000001,-0.00102,0.08220000000000001,0.069,-9.915000000000001,5.726628100747415,12.810123463685922,16.06999969482422,16.049999237060547,16.119998931884766,16.119998931884766,13.048987917594452,13.03274736148613,13.089587759080583,13.089587759080583,13.065227699310437,0.01991426830097954,-0.6000000238418579,10.425000190734863,0.0,0.0,0.0,0.0,0.0,,,,,
frame_00127.png,1771859351876193661,1771859351.8761935,42.300422179252976,-83.69859636423396,236.70010375976562,-0.7065628912188611,-0.7074837047432038,0.01522083536700378,0.002003608246592927,0.012700000000000001,-0.00136,-0.0035700000000000007,0.0449,-0.4252,-9.8209,5.739412856886099,12.83872219608279,16.09000015258789,16.020000457763672,16.119998931884766,16.010000228881836,13.065228473702776,13.008388076108323,13.089587759080583,13.00026779805416,13.04086802673646,0.01574501165819653,-0.6000000238418579,10.65000057220459,0.0,0.0,0.0,0.0,0.0,,,,,
frame_00128.png,1771859351927021163,1771859351.927021,42.300424251084095,-83.6985963991096,236.70333862304688,-0.7065287142736938,-0.7075164332463063,0.015308448110420179,0.0018231866707871438,-0.014130000000000002,-0.008220000000000002,-0.0019400000000000003,0.10830000000000001,-0.9951000000000001,-9.742,5.751041387070941,12.864734520394473,16.1299991607666,16.09000015258789,16.09000015258789,16.09000015258789,13.097708037134742,13.065228473702776,13.065228473702776,13.065228473702776,13.073348364560767,0.016215946301540714,-0.6000000238418579,10.225000381469727,0.0,0.0,0.0,0.0,0.0,,,,,
frame_00129.png,1771859351977245488,1771859351.9772453,42.300427363283916,-83.6985964533396,236.70828247070312,-0.7064884508583514,-0.7075603341368948,0.015188994803373814,0.0013178758347095485,-0.0029800000000000004,-0.01998,-0.0033100000000000004,-0.0627,-0.5889,-9.741900000000001,5.7596219347916335,12.883928690812798,16.18000030517578,16.1299991607666,16.10999870300293,16.139999389648438,13.138309427405549,13.097708037134742,13.08146748102642,13.105828315188905,13.105828315188905,0.01722297830896393,-0.6000000238418579,10.5,0.0,0.0,0.0,0.0,0.0,,,,,
frame_00130.png,1771859352027888615,1771859352.0278885,42.30042944187887,-83.69859648894459,236.71141052246094,-0.7064513437310286,-0.7075949708654354,0.015318931222947012,0.0010892624818804927,0.0017200000000000004,-0.009260000000000001,-0.0017500000000000003,0.0719,-0.4963,-9.8427,5.76939664801395,12.905794137808325,16.1299991607666,16.18000030517578,16.100000381469727,16.119998931884766,13.097708037134742,13.138309427405549,13.073348751756935,13.089587759080583,13.099738493844452,0.015027696394749927,-0.699999988079071,10.27500057220459,0.0,0.0,0.0,0.0,0.0,,,,,
frame_00131.png,1771859352077831302,1771859352.0778315,42.300432568164986,-83.69859655821631,236.7156219482422,-0.7064444210706072,-0.7075973811536573,0.015547977718575514,0.0006975038088319436,-0.0108,-0.01708,0.004020000000000001,-0.0476,-0.43970000000000004,-9.6882,5.782458327510287,12.935012331140863,16.149999618530273,16.1299991607666,16.139999389648438,16.1299991607666,13.113948593243066,13.097708037134742,13.105828315188905,13.097708037134742,13.103798245675366,0.013048763326506712,-0.699999988079071,10.52500057220459,0.0,0.0,0.0,0.0,0.0,,,,,
frame_00132.png,1771859352129138304,1771859352.1291382,42.300434657654066,-83.69859661036472,236.71829223632812,-0.7065066816996338,-0.7075291864591364,0.0158348055663014,0.0001339959801336908,-0.007750000000000001,-0.017060000000000002,0.005080000000000001,-0.3498,-0.3543,-9.269400000000001,5.791409787377631,12.95503620977652,16.170000076293945,16.170000076293945,16.19999885559082,16.170000076293945,13.130189149351388,13.130189149351388,13.154548434729195,13.130189149351388,13.13627897069584,0.01399013927746067,-0.699999988079071,10.375,0.0,0.0,0.0,0.0,0.0,,,,,
frame_00133.png,1771859352178825394,1771859352.1788254,42.300437791371685,-83.69859669178429,236.72177124023438,-0.7065592207095353,-0.7074801728969603,0.015671694047339424,-0.0005201862243662814,-0.030220000000000004,-0.009190000000000002,0.0034300000000000003,-0.4441,-0.22410000000000002,-10.2163,5.791527935698404,12.95530050048119,16.260000228881836,16.28999900817871,16.19999885559082,16.19999885559082,13.203270103054162,13.22762938843197,13.154548434729195,13.154548434729195,13.18499909023613,0.017730085824439773,-0.699999988079071,10.40000057220459,0.0,0.0,0.0,0.0,0.0,,,,,
frame_00134.png,1771859352230086928,1771859352.2300868,42.30043988076674,-83.69859675031496,236.72413635253906,-0.7066450064829184,-0.707408010446288,0.01500783199734182,-0.0012274151377738053,-0.030190000000000005,0.005790000000000001,0.006270000000000001,-0.1925,-0.0166,-10.159500000000001,5.794385159927805,12.961691939648906,16.260000228881836,16.190000534057617,16.229999542236328,16.219999313354492,13.203270103054162,13.14642970545971,13.178909268891678,13.170788990837517,13.174849517060766,0.016445197000850283,-0.699999988079071,10.449999809265137,0.0,0.0,0.0,0.0,0.0,,,,,
frame_00135.png,1771859352279803097,1771859352.279803,42.30044301919984,-83.69859683624472,236.7285614013672,-0.7066956593363787,-0.7073616834251469,0.014774794081480119,-0.0015489857693057425,-0.012390000000000002,-0.0037200000000000006,0.0020000000000000005,-0.42110000000000003,-0.1124,-10.2924,5.802889255023201,12.9807150901316,16.279998779296875,16.239999771118164,16.239999771118164,16.260000228881836,13.219509110377807,13.18702954694584,13.18702954694584,13.203270103054162,13.199209576830913,0.016832238068719398,-0.699999988079071,10.27500057220459,0.0,0.0,0.0,0.0,0.0,,,,,
frame_00136.png,1771859352330129989,1771859352.3301299,42.30044511551529,-83.6985968897161,236.73211669921875,-0.7066947986409304,-0.7073618665118803,0.014782797253679616,-0.0017664325745003935,-0.00206,-0.009510000000000001,-0.00016,-0.47490000000000004,0.047900000000000005,-10.078800000000001,5.815160632597353,13.008165425482323,16.239999771118164,16.219999313354492,16.25,16.34000015258789,13.18702954694584,13.170788990837517,13.195149825,13.268230778702774,13.205299785371533,0.015154662739992076,-0.699999988079071,10.350000381469727,0.0,0.0,0.0,0.0,0.0,,,,,
frame_00137.png,1771859352380542924,1771859352.380543,42.30044826693408,-83.69859695954347,236.73756408691406,-0.7066169109137006,-0.7074371981579782,0.014880049466144176,-0.0019328737811261237,-0.0020800000000000003,-0.0066500000000000005,-0.0030600000000000007,-0.2591,0.2872,-9.6371,5.824971363274556,13.030111441363387,16.279998779296875,16.270000457763672,16.309999465942383,16.350000381469727,13.219509110377807,13.211390381108323,13.24386994454029,13.276351056756935,13.23778012319584,0.015937598290465923,-0.699999988079071,6.450000286102295,0.0,0.0,0.0,0.0,0.0,,,,,
frame_00138.png,1771859352431307263,1771859352.4313073,42.300450371810285,-83.69859700526335,236.74075317382812,-0.7065456020247352,-0.7075076325683683,0.014890305254393736,-0.0021309449636791695,-0.015050000000000001,-0.007180000000000001,-0.0019000000000000002,-0.3408,-0.1192,-9.6243,5.829617645516915,13.04050489596261,16.28999900817871,16.299999237060547,16.350000381469727,16.28999900817871,13.22762938843197,13.23574966648613,13.276351056756935,13.22762938843197,13.241839875026752,0.01543920121731459,-0.699999988079071,0.0,0.0,0.0,0.0,0.0,0.0,,,,,
frame_00139.png,1771859352481424498,1771859352.4814243,42.300453526576966,-83.69859707339326,236.74476623535156,-0.7065648197815331,-0.7074954241856753,0.014526141240511159,-0.0023176332931579323,-0.012690000000000002,0.0024900000000000005,0.0023000000000000004,-0.1063,-0.5706,-9.351700000000001,5.832556100635669,13.047078043755954,16.369998931884766,16.31999969482422,16.420000076293945,16.31999969482422,13.292590064080583,13.251990222594452,13.333191454351388,13.251990222594452,13.282440490905218,0.018039475686427966,-0.800000011920929,0.0,0.0,0.0,0.0,0.0,0.0,,,,,
frame_00140.png,1771859352532094442,1771859352.5320945,42.300455628727235,-83.69859712480493,236.74630737304688,-0.7066193146306378,-0.7074558260489234,0.013786840733369759,-0.00230681662815747,-0.019850000000000003,0.026960000000000005,0.00103,-0.18630000000000002,-0.5926,-9.6049,5.830951395798992,13.043488415318597,16.31999969482422,16.40999984741211,16.389999389648438,16.43000030517578,13.251990222594452,13.325071176297227,13.308830620188905,13.341311732405547,13.306800937871532,0.020187277679772717,-0.9000000357627869,0.0,0.0,0.0,0.0,0.0,0.0,,,,,
frame_00141.png,1771859352582103846,1771859352.5821037,42.300458781479556,-83.69859720839266,236.74639892578125,-0.7066797103216512,-0.7074116431151614,0.012985867724343202,-0.0019802636846629794,-0.022500000000000003,0.03313000000000001,0.0032800000000000004,-0.0694,-0.5381,-9.3693,5.830057117191387,13.041487967730102,16.43000030517578,16.40999984741211,16.389999389648438,16.44999885559082,13.341311732405547,13.325071176297227,13.308830620188905,13.357550739729195,13.33319106715522,0.022367317298985216,-1.399999976158142,0.0,0.0,0.0,0.0,0.0,0.0,,,,,
frame_00142.png,1771859352633126734,1771859352.6331267,42.30046088139627,-83.69859725907804,236.74563598632812,-0.7067113290332822,-0.7073961613237587,0.012147732966035201,-0.0014835579559699056,-0.026340000000000002,0.034140000000000004,0.004320000000000001,-0.4012,-0.5433,-9.7178,5.825885659690734,13.032156667588591,16.440000534057617,16.420000076293945,16.420000076293945,16.420000076293945,13.34943201045971,13.333191454351388,13.333191454351388,13.333191454351388,13.337251593378468,0.023410931403906342,-2.1000001430511475,0.0,0.0,0.0,0.0,0.0,0.0,,,,,
frame_00143.png,1771859352682948214,1771859352.682948,42.30046403399906,-83.69859733940807,236.7445526123047,-0.7067359933373565,-0.7073837518124767,0.011429886791800153,-0.0013494743756981677,-0.013280000000000002,0.014730000000000002,0.0025700000000000007,-0.039400000000000004,-0.46230000000000004,-10.4549,5.832576195158727,13.047122993998364,16.43000030517578,16.389999389648438,16.420000076293945,16.31999969482422,13.341311732405547,13.308830620188905,13.333191454351388,13.251990222594452,13.308831007385072,0.020058676039697965,-2.4000000953674316,0.0,0.0,0.0,0.0,0.0,0.0,,,,,
frame_00144.png,1771859352734005088,1771859352.734005,42.30046613817053,-83.69859739043736,236.7451629638672,-0.7067814756620473,-0.7073413778111337,0.011207155068660855,-0.001587631094677462,-0.0018800000000000004,-0.00877,0.0015600000000000002,-0.16340000000000002,-0.2184,-10.6556,5.833394122100738,13.048952647492024,16.329999923706055,16.279998779296875,16.31999969482422,16.31999969482422,13.260110500648613,13.219509110377807,13.251990222594452,13.251990222594452,13.24590001405383,0.015092963541381172,-2.299999952316284,0.0,0.0,0.0,0.0,0.0,0.0,,,,,
frame_00145.png,1771859352784050624,1771859352.7840507,42.300469291149355,-83.69859746212,236.74830627441406,-0.7068408535405002,-0.7072802869808058,0.011270808545451805,-0.0018900500569948046,0.0016800000000000003,-0.00948,-0.003,-0.3145,-0.4063,-10.285300000000001,5.8243296279753904,13.028675918003271,16.34000015258789,16.279998779296875,16.329999923706055,16.34000015258789,13.268230778702774,13.219509110377807,13.260110500648613,13.268230778702774,13.254020292107992,0.017296030350508234,-2.299999952316284,0.0,0.0,0.0,0.0,0.0,0.0,,,,,
frame_00146.png,1771859352835184081,1771859352.835184,42.30047243711646,-83.69859753404222,236.75303649902344,-0.7069418042565507,-0.7071786529320688,0.011238816574586,-0.0023080800852629466,-0.004520000000000001,-0.011740000000000002,0.00079,-0.2907,-0.3669,-9.8771,5.813016868928477,13.003369954780869,16.260000228881836,16.19999885559082,16.28999900817871,16.279998779296875,13.203270103054162,13.154548434729195,13.22762938843197,13.219509110377807,13.201239259148284,0.01521677111821818,-2.299999952316284,0.0,0.0,0.0,0.0,0.0,0.0,,,,,
frame_00147.png,1771859352893884058,1771859352.8938842,42.3004745287739,-83.69859757646957,236.75648498535156,-0.7070745687536926,-0.7070448652221978,0.011249494383764477,-0.002561573893805566,0.00256,-0.0038800000000000006,0.005700000000000001,-0.2833,-0.0675,-9.5477,5.797754235985068,12.96922836064444,16.239999771118164,16.19999885559082,16.31999969482422,16.270000457763672,13.18702954694584,13.154548434729195,13.251990222594452,13.211390381108323,13.201239646344453,0.01788936698840611,-2.299999952316284,0.0,0.0,0.0,0.0,0.0,0.0,,,,,
frame_00148.png,1771859352936249994,1771859352.9362502,42.300477661951476,-83.69859763914096,236.7612762451172,0.7071468729440361,0.7069702418825676,-0.011383739310368665,0.0026053132802681253,0.0027500000000000003,-0.009120000000000001,0.006590000000000001,-0.2509,0.1179,-9.7143,5.790669701241588,12.953380681495359,16.239999771118164,16.19999885559082,16.239999771118164,16.1299991607666,13.18702954694584,13.154548434729195,13.18702954694584,13.097708037134742,13.156578891438906,0.01568688629940658,-2.4000000953674316,0.0,0.0,0.0,0.0,0.0,0.0,,,,,
frame_00149.png,1771859352994900205,1771859352.9949002,42.30048078978003,-83.69859769824414,236.76588439941406,0.707243695566275,0.7068640375587467,-0.011906971804626527,0.0027949079320184885,0.010920000000000003,-0.019550000000000005,0.0033900000000000007,-0.4751,-0.2629,-9.7391,5.781256264319933,12.932323387907832,16.18000030517578,16.059999465942383,16.219999313354492,16.139999389648438,13.138309427405549,13.040867639540291,13.170788990837517,13.105828315188905,13.113948593243066,0.014044282677392637,-2.6000001430511475,0.0,0.0,0.0,0.0,0.0,0.0,,,,,
frame_00150.png,1771859353037151740,1771859353.0371518,42.30048287113539,-83.6985977390719,236.76878356933594,0.7073403080524806,0.7067628701858624,-0.012117060746346069,0.003018405163819295,-0.00591,-0.008180000000000002,0.007190000000000001,-0.5436,-0.5519000000000001,-9.5853,5.768386998618905,12.903535612690575,16.1299991607666,16.1299991607666,16.170000076293945,16.09000015258789,13.097708037134742,13.097708037134742,13.130189149351388,13.065228473702776,13.09770842433091,0.015048031599135295,-2.9000000953674316,0.0,0.0,0.0,0.0,0.0,0.0,,,,,
frame_00151.png,1771859353086977769,1771859353.0869777,42.30048494760544,-83.69859778950968,236.77114868164062,0.7074368210436757,0.7066672075151302,-0.011919419150022372,0.003539703591067634,-0.029150000000000006,-0.008690000000000002,0.0043300000000000005,-0.2773,-0.767,-9.6456,5.758046729562648,12.88040505122787,16.139999389648438,16.06999969482422,16.06999969482422,16.1299991607666,13.105828315188905,13.048987917594452,13.048987917594452,13.097708037134742,13.075378046878138,0.015137178906627743,-3.5,0.0,0.0,0.0,0.0,0.0,0.0,,,,,
frame_00152.png,1771859353138066747,1771859353.1380668,42.3004880555308,-83.69859786043955,236.77536010742188,0.7075213932267027,0.706582067933861,-0.011744545244066644,0.004162338028558515,-0.021380000000000003,-0.017820000000000003,0.005080000000000001,-0.3502,-0.6890000000000001,-10.1271,5.748241263966021,12.858470813016151,16.100000381469727,16.03999900817871,16.049999237060547,16.119998931884766,13.073348751756935,13.02462708343197,13.03274736148613,13.089587759080583,13.055077738938905,0.015290070552070364,-4.200000286102295,0.0,0.0,0.0,0.0,0.0,0.0,,,,,
frame_00153.png,1771859353187934840,1771859353.1879346,42.30049012432534,-83.69859790482249,236.7782745361328,0.7076252279706009,0.7064741194264565,-0.011811978362989417,0.004618710568967134,-0.004730000000000001,-0.014650000000000003,0.0060300000000000015,-0.4297,-0.5327000000000001,-9.5638,5.736752658573168,12.832771492068662,16.020000457763672,16.06999969482422,16.029998779296875,16.049999237060547,13.008388076108323,13.048987917594452,13.016506805377809,13.03274736148613,13.026657540141679,0.015108665200876413,-4.800000190734863,0.0,0.0,0.0,0.0,0.0,0.0,,,,,
frame_00154.png,1771859353239203820,1771859353.239204,42.30049322056782,-83.69859796704795,236.78196716308594,0.7077563141955444,0.7063392123730878,-0.011924087269904264,0.004871644823189285,0.00058,-0.009020000000000002,0.006970000000000001,-0.3433,-0.3889,-9.4928,5.722864984253754,12.801705597876593,16.049999237060547,15.989999771118164,16.049999237060547,15.989999771118164,13.03274736148613,12.98402724194584,13.03274736148613,12.98402724194584,13.008387301715985,0.016144856812960445,-5.0,0.0,0.0,0.0,0.0,0.0,0.0,,,,,
frame_00155.png,1771859353289128460,1771859353.2891285,42.30049527911025,-83.69859800294763,236.78416442871094,0.7079308623622851,0.7061632108688959,-0.011910674484765637,0.005054657618531461,-0.0011300000000000001,0.00474,0.009380000000000001,-0.23020000000000002,-0.12840000000000001,-9.5487,5.705306543477228,12.762428419365952,16.029998779296875,15.949999809265137,15.989999771118164,15.929999351501465,13.016506805377809,12.951546904121534,12.98402724194584,12.93530634801321,12.971846824864599,0.016408977869828596,-5.0,0.0,0.0,0.0,0.0,0.0,0.0,,,,,
frame_00156.png,1771859353349104153,1771859353.3491042,42.30049836155252,-83.69859805299055,236.78659057617188,0.7081630019863228,0.7059315934176057,-0.011812050920100806,0.005120887194693795,-0.0012300000000000002,0.0015200000000000003,0.009830000000000002,-0.2616,-0.1265,-9.7128,5.690243278212846,12.728732798765446,16.020000457763672,15.719999313354492,15.979999542236328,15.9399995803833,13.008388076108323,12.764784380837519,12.975906963891678,12.943426626067373,12.923126511726222,0.0152720397257165,-4.900000095367432,0.0,0.0,0.0,0.0,0.0,0.0,,,,,
frame_00157.png,1771859353390075544,1771859353.3900757,42.300500412940295,-83.69859808274225,236.78797912597656,0.7083463280523625,0.7057482291606133,-0.011850892709522417,0.004947010549881043,0.0043100000000000005,0.0022600000000000003,0.010610000000000003,-0.3003,-0.326,-9.7025,5.6760203892125904,12.696917049445213,15.949999809265137,15.84999942779541,15.969999313354492,15.9399995803833,12.951546904121534,12.870345672364598,12.967786685837519,12.943426626067373,12.933276472097756,0.018615497110999094,-4.900000095367432,0.0,0.0,0.0,0.0,0.0,0.0,,,,,
frame_00158.png,1771859353441166352,1771859353.4411664,42.30050348100452,-83.69859812333398,236.79042053222656,0.7084877001714802,0.705608084974736,-0.011822869361178944,0.00475698266560186,0.0005400000000000001,0.01063,0.00803,-0.6251,0.054400000000000004,-9.6403,5.6617493853614995,12.664993670090553,15.899999618530273,15.899999618530273,15.9399995803833,15.9399995803833,12.910946288243066,12.910946288243066,12.943426626067373,12.943426626067373,12.92718645715522,0.020702164872285475,-4.900000095367432,0.0,0.0,0.0,0.0,0.0,0.0,,,,,
frame_00159.png,1771859353491110471,1771859353.4911103,42.300505521184604,-83.69859814483674,236.7918243408203,0.7085738683914367,0.705523311329752,-0.011828854783507549,0.004473074737508876,0.008820000000000001,0.00786,0.004380000000000001,-0.7586,0.20520000000000002,-9.8122,5.650139496919168,12.639023046238366,15.880000114440918,15.84999942779541,15.859999656677246,15.880000114440918,12.894706506527081,12.870345672364598,12.878465950418759,12.894706506527081,12.884556158959379,0.019426589525373853,-4.900000095367432,0.0,0.0,0.0,0.0,0.0,0.0,,,,,
frame_00160.png,1771859353542054016,1771859353.542054,42.30050857695879,-83.69859817115979,236.793701171875,0.7086432227625787,0.7054537306555638,-0.011983489339119833,0.0040265022131586725,0.014140000000000002,0.006970000000000001,0.004880000000000001,-0.5898,-0.1443,-10.013900000000001,5.640705670957909,12.617920143592587,15.869999885559082,15.819999694824219,15.880000114440918,15.819999694824219,12.88658622847292,12.845985612594452,12.894706506527081,12.845985612594452,12.868315990047227,0.01984446276447489,-4.900000095367432,0.0,0.0,0.0,0.0,0.0,0.0,,,,,
frame_00161.png,1771859353592199764,1771859353.5921996,42.30051061199347,-83.69859818566738,236.79519653320312,0.7087687847544929,0.7053250763678558,-0.012253344332258767,0.003633449737164435,0.023260000000000003,-0.00841,0.009930000000000001,-0.1872,-0.013900000000000001,-9.9878,5.6395245134045195,12.615277965015107,15.789999961853027,15.65999984741211,15.869999885559082,15.799999237060547,12.821625552824306,12.716064261297227,12.88658622847292,12.82974505648613,12.813505274770147,0.015713273247309145,-4.800000190734863,0.0,0.0,0.0,0.0,0.0,0.0,,,,,
frame_00162.png,1771859353643113741,1771859353.6431136,42.300513660741146,-83.69859821082851,236.79754638671875,0.7089707078815675,0.7051193844979923,-0.012463507817098419,0.0034423747580550083,0.0012200000000000002,-0.0014100000000000002,0.009830000000000002,-0.29660000000000003,0.08220000000000001,-9.4977,5.626088032297307,12.58522136296714,15.829999923706055,15.65999984741211,15.84999942779541,15.719999313354492,12.854105890648613,12.716064261297227,12.870345672364598,12.764784380837519,12.80132505128699,0.017171226638551557,-4.800000190734863,0.0,0.0,0.0,0.0,0.0,0.0,,,,,
frame_00163.png,1771859353693068993,1771859353.693069,42.30051569076019,-83.69859823357363,236.798583984375,0.7091919795842415,0.704898587267885,-0.012358956335178778,0.003460340941293079,-0.012440000000000003,-0.00135,0.010690000000000002,-0.0935,-0.3672,-9.6126,5.615621997496629,12.56180947108011,15.719999313354492,15.739999771118164,15.789999961853027,15.75,12.764784380837519,12.781024936945839,12.821625552824306,12.789145215000001,12.789145021401918,0.018097356980710567,-4.800000190734863,0.0,0.0,0.0,0.0,0.0,0.0,,,,,
frame_00164.png,1771859353743942055,1771859353.7439423,42.30051872631049,-83.69859826663534,236.8001708984375,0.709357005488014,0.7047333096034747,-0.012340026374032488,0.003365241373080873,0.01024,0.00051,0.008490000000000001,-0.2736,-0.3584,-9.4855,5.602208476219751,12.53180422879501,15.719999313354492,15.75,15.75999927520752,15.710000038146973,12.764784380837519,12.789145215000001,12.797264718661824,12.756664877175693,12.77696479791876,0.019563070460391525,-4.800000190734863,0.0,0.0,0.0,0.0,0.0,0.0,,,,,
frame_00165.png,1771859353794125188,1771859353.7941253,42.300520743602675,-83.6985982827272,236.80113220214844,0.7094945545962482,0.7045933591607831,-0.012531539507714868,0.0029386633630903583,0.019050000000000004,0.00557,0.008360000000000001,-0.2823,-0.45780000000000004,-9.8658,5.589479660317361,12.503330631350318,15.6899995803833,15.619999885559082,15.710000038146973,15.649999618530273,12.74042432106737,12.68358392347292,12.756664877175693,12.707943983243066,12.722154276239763,0.01750122837996272,-4.800000190734863,0.0,0.0,0.0,0.0,0.0,0.0,,,,,
frame_00166.png,1771859353845267826,1771859353.8452678,42.30052376752132,-83.69859831075624,236.8034210205078,0.7096509638172331,0.7044363806625509,-0.012560218466381043,0.002671341309965841,0.0025700000000000007,0.0010000000000000002,0.0091,-0.2853,-0.1537,-10.273900000000001,5.578796761100531,12.479433626776222,15.619999885559082,15.639999389648438,15.679999351501465,15.609999656677246,12.68358392347292,12.699823705188903,12.732304043013212,12.675463645418759,12.697793829273447,0.017497605182073737,-4.800000190734863,0.0,0.0,0.0,0.0,0.0,0.0,,,,,
frame_00167.png,1771859353895577714,1771859353.8955777,42.300526786019674,-83.69859833371645,236.80697631835938,0.7097759022160476,0.7043102790957767,-0.012548394100008521,0.002781582092176582,-0.006280000000000001,-0.00969,0.006010000000000001,-0.23770000000000002,0.044500000000000005,-10.1837,5.573032050548736,12.46653831515449,15.639999389648438,15.569999694824219,15.75,15.569999694824219,12.699823705188903,12.642983307594454,12.789145215000001,12.642983307594454,12.693733883844454,0.018224431108817173,-4.800000190734863,0.0,0.0,0.0,0.0,0.0,0.0,,,,,
frame_00168.png,1771859353955639194,1771859353.9556394,42.30052980048057,-83.69859835467143,236.81185913085938,0.7099537911051739,0.7041216979512545,-0.012970620310213489,0.0031641710449486007,0.005870000000000001,-0.026930000000000003,0.008830000000000003,-0.3327,-0.029,-9.950700000000001,5.564932167097478,12.448419361867034,15.619999885559082,15.5,15.559999465942383,15.519999504089355,12.68358392347292,12.586142910000001,12.634863029540291,12.602382691715986,12.6267431386823,0.014325013612693855,-4.800000190734863,0.0,0.0,0.0,0.0,0.0,0.0,,,,,
frame_00169.png,1771859353996725859,1771859353.9967258,42.30053180623261,-83.69859836712607,236.8154296875,0.7100751896833093,0.7039913655927844,-0.013319214906726575,0.003461312075971044,0.0015900000000000003,-0.022640000000000004,0.010360000000000001,-0.4521,-0.0782,-9.851600000000001,5.555568020868572,12.427472328601743,15.549999237060547,15.479999542236328,15.549999237060547,15.50999927520752,12.62674275148613,12.56990235389168,12.62674275148613,12.594262413661824,12.604412567631442,0.014237830055149066,-4.800000190734863,0.0,0.0,0.0,0.0,0.0,0.0,,,,,
frame_00170.png,1771859354047150358,1771859354.0471504,42.300533811844325,-83.69859838172916,236.81829833984375,0.7102436589870651,0.7038123072621364,-0.013717238041759299,0.003744114784459779,0.00023000000000000003,-0.01933,0.010750000000000001,-0.6279,-0.0034000000000000002,-9.6869,5.541585989427361,12.396195363189642,15.5,15.469999313354492,15.549999237060547,15.479999542236328,12.586142910000001,12.561782075837517,12.62674275148613,12.56990235389168,12.586142522803833,0.015323020818003262,-4.800000190734863,0.0,0.0,0.0,0.0,0.0,0.0,,,,,
frame_00171.png,1771859354106000155,1771859354.1060002,42.30053681010275,-83.69859839811346,236.8215789794922,0.7104261477849831,0.7036210530289436,-0.014035975335437689,0.003885057813329591,0.00898,-0.008440000000000001,0.007240000000000001,-0.5018,0.1784,-9.5081,5.525229801399551,12.359607551942712,15.460000038146973,15.449999809265137,15.479999542236328,15.5,12.553662572175694,12.545542294121534,12.56990235389168,12.586142910000001,12.563812532547226,0.016521963156703665,-4.800000190734863,0.0,0.0,0.0,0.0,0.0,0.0,,,,,
frame_00172.png,1771859354148044842,1771859354.1480448,42.30053880268443,-83.6985984037265,236.8230743408203,0.710507353248208,0.703534416600934,-0.014299878568980828,0.0037602009416305973,0.016810000000000002,0.00096,0.0036200000000000004,-0.6122000000000001,-0.3982,-9.6285,5.514501295356952,12.335608527635781,15.519999504089355,15.199999809265137,15.5,15.460000038146973,12.602382691715986,12.342539989121533,12.586142910000001,12.553662572175694,12.521182040753304,0.015043725869038259,-4.700000286102295,0.0,0.0,0.0,0.0,0.0,0.0,,,,,
frame_00173.png,1771859354197854733,1771859354.1978548,42.30054178661234,-83.69859841279474,236.82440185546875,0.71063892859837,0.703396706886311,-0.01458830521662461,0.003545032152203215,0.00949,0.008220000000000002,0.00286,-0.5975,-1.1223,-9.3605,5.499675007863833,12.302443012090924,15.449999809265137,15.359999656677246,15.479999542236328,15.489999771118164,12.545542294121534,12.472461340418759,12.56990235389168,12.578022631945839,12.541482155094453,0.019430217459133908,-4.700000286102295,0.0,0.0,0.0,0.0,0.0,0.0,,,,,
frame_00174.png,1771859354249106772,1771859354.2491066,42.30054376815073,-83.6985984155373,236.82489013671875,0.7108251916278956,0.703213662945669,-0.014381127350320547,0.0033577328414191826,-0.0008400000000000001,0.012730000000000002,0.012100000000000001,-0.8544,0.059000000000000004,-9.8154,5.482492918344503,12.264007708761554,15.469999313354492,15.40999984741211,15.469999313354492,15.34999942779541,12.561782075837517,12.513061956297227,12.561782075837517,12.464341062364598,12.525241792584215,0.021300874072023947,-4.599999904632568,0.0,0.0,0.0,0.0,0.0,0.0,,,,,
frame_00175.png,1771859354298700561,1771859354.2987006,42.30054673504916,-83.69859842904046,236.82542419433594,0.7110118124655039,0.7030323481142793,-0.0140810495000817,0.0030731229096862826,0.005730000000000001,0.023170000000000003,0.009210000000000001,-0.6136,0.7651,-10.111600000000001,5.471071465177592,12.238458603314363,15.389999389648438,15.299999237060547,15.380000114440918,15.319999694824219,12.496821400188903,12.42374044648613,12.48870189652708,12.439981002594452,12.462311186449142,0.018290913128076104,-4.5,0.0,0.0,0.0,0.0,0.0,0.0,,,,,
frame_00176.png,1771859354349782044,1771859354.349782,42.30054871089905,-83.69859843700797,236.82627868652344,0.7111541123877753,0.7028894991331089,-0.014076079400585091,0.0028362706272921086,0.011550000000000003,0.0029200000000000007,0.0034900000000000005,-0.15480000000000002,0.2175,-10.0211,5.464918339643382,12.224694430681867,15.359999656677246,15.309999465942383,15.339999198913574,15.319999694824219,12.472461340418759,12.431860724540291,12.456220784310437,12.439981002594452,12.450130962965984,0.018441077080692564,-4.5,0.0,0.0,0.0,0.0,0.0,0.0,,,,,
frame_00177.png,1771859354399944639,1771859354.3999448,42.30055166952869,-83.69859844267707,236.82911682128906,0.7112594063303708,0.7027799075689393,-0.014222299752223075,0.00286087639013748,0.00595,-0.007630000000000001,0.00506,-0.3849,0.3675,-9.9213,5.4581297889895195,12.209508850182216,15.239999771118164,15.25999927520752,15.309999465942383,15.339999198913574,12.375020326945839,12.391260108661823,12.431860724540291,12.456220784310437,12.413590486114598,0.01671497506055184,-4.5,0.0,0.0,0.0,0.0,0.0,0.0,,,,,
frame_00178.png,1771859354451317767,1771859354.4513178,42.30055363716263,-83.69859844339439,236.83120727539062,0.7113697267307221,0.70266217358178,-0.014521038001968543,0.002849765557286777,0.0105,-0.0074,0.008690000000000002,-0.5396000000000001,0.2675,-9.5564,5.4467975016377395,12.184159203313525,15.319999694824219,15.130000114440918,15.299999237060547,15.25999927520752,12.439981002594452,12.28569959152708,12.42374044648613,12.391260108661823,12.385170287317372,0.016497739454125086,-4.5,0.0,0.0,0.0,0.0,0.0,0.0,,,,,
frame_00179.png,1771859354500737494,1771859354.5007374,42.30055658350624,-83.69859844220888,236.8334503173828,0.7115160219155808,0.7025093149672361,-0.014789923866957613,0.0026212771125454014,0.008690000000000002,0.00525,0.01137,-0.5298,0.0718,-9.3785,5.433800174552461,12.155084962463382,15.269999504089355,15.229999542236328,15.299999237060547,15.25999927520752,12.399380386715984,12.36690004889168,12.42374044648613,12.391260108661823,12.395320247688904,0.01976417984468246,-4.5,0.0,0.0,0.0,0.0,0.0,0.0,,,,,
frame_00180.png,1771859354551724452,1771859354.5517244,42.30055854257419,-83.69859844011553,236.8343963623047,0.7116938168253955,0.7023294606036709,-0.014814286476925651,0.0024034926329737677,0.0005300000000000001,0.01042,0.01004,-0.7547,-0.0102,-9.4404,5.417790723551931,12.119272781142259,15.239999771118164,15.179999351501465,15.25999927520752,15.1899995803833,12.375020326945839,12.326299433013212,12.391260108661823,12.33441971106737,12.35674989492206,0.019594996999268727,-4.400000095367432,0.0,0.0,0.0,0.0,0.0,0.0,,,,,
frame_00181.png,1771859354601857902,1771859354.601858,42.300561475978554,-83.69859844352754,236.8349151611328,0.7118572440482172,0.7021687538754099,-0.014633552951649826,0.002040662917348173,0.006360000000000001,0.01836,0.011760000000000001,-0.7089000000000001,-0.029300000000000003,-9.7235,5.405234905019528,12.091186168434383,15.229999542236328,15.149999618530273,15.229999542236328,15.1899995803833,12.36690004889168,12.301939373243066,12.36690004889168,12.33441971106737,12.342539795523448,0.020788169463907227,-4.400000095367432,0.0,0.0,0.0,0.0,0.0,0.0,,,,,
frame_00182.png,1771859354652783093,1771859354.6527832,42.30056342931223,-83.69859844788928,236.83482360839844,0.7120173156613424,0.7020106983503136,-0.014491834492779458,0.0015193199646056303,0.00799,0.015870000000000002,0.009190000000000002,-0.6812,0.24880000000000002,-9.9049,5.3962402331544945,12.071065627152615,15.219999313354492,15.170000076293945,15.179999351501465,15.15999984741211,12.358779770837517,12.318179929351386,12.326299433013212,12.310059651297227,12.328329696124836,0.021312457153205434,-4.200000286102295,0.0,0.0,0.0,0.0,0.0,0.0,,,,,
frame_00183.png,1771859354702772102,1771859354.7027721,42.30056635119564,-83.69859844299116,236.83502197265625,0.7121372374480064,0.7018892043302875,-0.014527147853050808,0.0010304658040115303,0.011790000000000002,0.007540000000000001,0.00557,-0.3428,0.058,-10.1553,5.396125826769748,12.070809706934321,15.170000076293945,15.139999389648438,15.269999504089355,15.109999656677246,12.318179929351386,12.293819095188905,12.399380386715984,12.269459035418759,12.320209611668758,0.02066140638363011,-4.0,0.0,0.0,0.0,0.0,0.0,0.0,,,,,
frame_00184.png,1771859354754003506,1771859354.7540035,42.30056829765386,-83.69859843858212,236.83616638183594,0.712226188308283,0.7017951506169468,-0.014702575752472271,0.001121394058466748,-0.00786,-0.018600000000000002,0.00478,-0.1661,-0.2954,-10.491,5.39371052474838,12.065406821230642,15.119999885559082,15.139999389648438,15.059999465942383,15.029999732971191,12.27757931347292,12.293819095188905,12.228858419540291,12.204498359770147,12.251188796993066,0.015397903984100791,-4.0,0.0,0.0,0.0,0.0,0.0,0.0,,,,,
frame_00185.png,1771859354812844584,1771859354.8128445,42.300571218671635,-83.69859843507429,236.8393096923828,0.7123309769229842,0.7016837298313624,-0.014860347217341429,0.0019216364054099604,-0.017410000000000002,-0.024950000000000003,0.007130000000000001,-0.37470000000000003,-0.14500000000000002,-10.1255,5.3840112540008125,12.043710134524579,15.0,15.0,15.029999732971191,15.039999961853027,12.180138300000001,12.180138300000001,12.204498359770147,12.212618637824306,12.194348399398613,0.012507629558620304,-3.9000000953674316,0.0,0.0,0.0,0.0,0.0,0.0,,,,,
frame_00186.png,1771859354854521545,1771859354.8545215,42.30057316282953,-83.69859843213784,236.84214782714844,0.7124168907756729,0.7015894632801455,-0.015127583994106752,0.0023568950552801753,-0.004700000000000001,-0.02223,0.006950000000000001,-0.3672,-0.5202,-9.9082,5.37359951305988,12.02041969474417,15.049999237060547,14.949999809265137,15.039999961853027,15.0,12.22073814148613,12.139537684121532,12.212618637824306,12.180138300000001,12.188258190857992,0.013962781697814406,-3.9000000953674316,0.0,0.0,0.0,0.0,0.0,0.0,,,,,
frame_00187.png,1771859354904285417,1771859354.9042854,42.30057607362325,-83.6985984322689,236.84666442871094,0.7125740795068393,0.7014204556235124,-0.015515720872311518,0.002605389356308456,0.00888,-0.013200000000000002,0.009250000000000001,-0.46230000000000004,-0.2063,-9.7377,5.357903294677234,11.985308195995293,15.00999927520752,14.929999351501465,15.019999504089355,14.960000038146973,12.188257803661823,12.123297128013212,12.196378081715984,12.147657962175694,12.163897743891678,0.014900705511774638,-3.799999952316284,0.0,0.0,0.0,0.0,0.0,0.0,,,,,
frame_00188.png,1771859354964790677,1771859354.9647908,42.30057897460048,-83.69859842971456,236.8505096435547,0.7127695263508905,0.7012152409350063,-0.015805219751291205,0.0026425772650681043,0.007630000000000001,-0.00096,0.007840000000000001,-0.5322,0.0025,-9.5489,5.342454642489592,11.95075048797067,14.960000038146973,15.019999504089355,15.0,14.960000038146973,12.147657962175694,12.196378081715984,12.180138300000001,12.147657962175694,12.167958076516843,0.018175225795635973,-3.5,0.0,0.0,0.0,0.0,0.0,0.0,,,,,
frame_00189.png,1771859355005895091,1771859355.0058951,42.30058090678376,-83.69859842369692,236.85232543945312,0.7128697199456705,0.7011092466234754,-0.01600144943845723,0.0025574009291708063,0.014700000000000003,-0.00096,0.00417,-0.5523,0.1368,-9.3863,5.3347995222373035,11.933626443273514,14.9399995803833,14.979999542236328,15.0,14.960000038146973,12.131417406067373,12.16389774389168,12.180138300000001,12.147657962175694,12.155777853033687,0.018615582682780397,-3.1000001430511475,0.0,0.0,0.0,0.0,0.0,0.0,,,,,
frame_00190.png,1771859355065913439,1771859355.0659134,42.30058379839929,-83.69859840421219,236.853759765625,0.7129745641148488,0.7009968370243139,-0.01630100154039121,0.0022322087557137735,0.015550000000000001,0.0022400000000000007,0.00478,-0.5361,-0.0626,-9.594700000000001,5.32102924327131,11.902823155443325,14.920000076293945,14.880000114440918,14.960000038146973,14.880000114440918,12.115177624351388,12.082697286527083,12.147657962175694,12.082697286527083,12.107057539895312,0.017158482637674666,-2.700000047683716,0.0,0.0,0.0,0.0,0.0,0.0,,,,,
frame_00191.png,1771859355115776678,1771859355.1157768,42.300586680599324,-83.6985983815457,236.85458374023438,0.7130387850117854,0.700931953113698,-0.016314312074083338,0.001982774491204838,0.0024300000000000007,0.00893,0.0031700000000000005,-0.4425,-0.1042,-10.032,5.30773651465731,11.873088119097524,14.899999618530273,14.889999389648438,15.019999504089355,14.889999389648438,12.098937068243064,12.090816790188905,12.196378081715984,12.090816790188905,12.119237182584214,0.020731679999137442,-2.700000047683716,0.0,0.0,0.0,0.0,0.0,0.0,,,,,
frame_00192.png,1771859355166732833,1771859355.1667328,42.30058859582525,-83.69859836545827,236.85552978515625,0.7130738795472831,0.7008976219046356,-0.01627120760277024,0.001847625221869128,0.004600000000000001,0.007890000000000001,0.0009000000000000002,-0.3749,-0.138,-9.9695,5.2977837479222645,11.850824377077231,14.899999618530273,14.889999389648438,14.809999465942383,14.819999694824219,12.098937068243064,12.090816790188905,12.025856114540291,12.033976392594452,12.062396591391678,0.017852953312149873,-2.700000047683716,0.0,0.0,0.0,0.0,0.0,0.0,,,,,
frame_00193.png,1771859355216627781,1771859355.2166276,42.300591466860986,-83.69859834231372,236.85775756835938,0.7130967823674238,0.7008711155435932,-0.016429060752207448,0.0016566039680013596,0.012240000000000003,0.00124,0.0021500000000000004,-0.2533,-0.1558,-9.9342,5.289291066796773,11.831826758960375,14.829999923706055,14.739999771118164,14.799999237060547,14.90999984741211,12.042096670648615,11.96901571694584,12.01773583648613,12.107057346297227,12.033976392594452,0.0170852428582921,-2.700000047683716,0.0,0.0,0.0,0.0,0.0,0.0,,,,,
frame_00194.png,1771859355258567449,1771859355.2585673,42.30059337550216,-83.69859832790321,236.8595428466797,0.7131397502582277,0.7008243908475692,-0.016566512766407845,0.0015557793953024988,0.00591,0.0034100000000000007,0.0034800000000000005,-0.48210000000000003,-0.3583,-9.7417,5.279828306747718,11.81065913249624,14.789999961853027,14.769999504089355,14.84999942779541,14.789999961853027,12.009616332824306,11.993375776715984,12.058336452364598,12.009616332824306,12.017736223682299,0.01753306812625715,-2.700000047683716,0.0,0.0,0.0,0.0,0.0,0.0,,,,,
frame_00195.png,1771859355308578037,1771859355.308578,42.30059528397206,-83.69859832209913,236.8612518310547,0.7132320688493573,0.7007329982047894,-0.016449756838415878,0.001639113098384754,-0.01276,0.004600000000000001,0.007130000000000001,-0.5416000000000001,-0.7244,-9.8263,5.269250687282639,11.786997632410028,14.739999771118164,14.739999771118164,14.799999237060547,14.769999504089355,11.96901571694584,11.96901571694584,12.01773583648613,11.993375776715984,11.98728576177345,0.016992294018342808,-2.700000047683716,0.0,0.0,0.0,0.0,0.0,0.0,,,,,
frame_00196.png,1771859355359794348,1771859355.3597944,42.300598135050286,-83.69859831811537,236.86326599121094,0.7133908943892167,0.7005817376005946,-0.01597166553626503,0.0018885558193510615,-0.018280000000000005,0.00316,0.007840000000000001,-0.6345000000000001,-0.098,-9.8558,5.258277077056395,11.762450324750532,14.739999771118164,14.739999771118164,14.699999809265137,14.739999771118164,11.96901571694584,11.96901571694584,11.936535379121532,11.96901571694584,11.960895632489763,0.01687108572281599,-2.700000047683716,0.0,0.0,0.0,0.0,0.0,0.0,,,,,
frame_00197.png,1771859355409117643,1771859355.4091177,42.30060003181005,-83.6985983145892,236.86402893066406,0.7134837893795806,0.7004913555753425,-0.015772131431763946,0.0019957271538389248,-0.010920000000000003,-0.0010700000000000002,0.007480000000000001,-0.6714,-0.0874,-9.531600000000001,5.2532109538961125,11.751117711208371,14.809999465942383,14.649999618530273,14.739999771118164,14.699999809265137,12.025856114540291,11.895934763243066,11.96901571694584,11.936535379121532,11.956835493462682,0.01750623109307251,-2.700000047683716,0.0,0.0,0.0,0.0,0.0,0.0,,,,,
frame_00198.png,1771859355460172814,1771859355.460173,42.300602871233984,-83.6985983068639,236.86480712890625,0.7135848450508432,0.7003938738487805,-0.015533749164980674,0.0019475691880127825,-0.0065000000000000014,0.015470000000000003,0.0024300000000000007,-0.8202,0.18480000000000002,-9.5922,5.235629196008132,11.71178837371843,14.739999771118164,14.739999771118164,14.739999771118164,14.699999809265137,11.96901571694584,11.96901571694584,11.96901571694584,11.936535379121532,11.960895632489763,0.021269788252862843,-2.700000047683716,0.0,0.0,0.0,0.0,0.0,0.0,,,,,
frame_00199.png,1771859355510346587,1771859355.5103464,42.3006047603966,-83.69859830032267,236.86508178710938,0.7136503334185619,0.7003354487300408,-0.01515136633635079,0.001974072392101825,-0.01088,0.01068,0.0038900000000000002,-0.6325000000000001,0.32130000000000003,-9.825800000000001,5.225115659719729,11.688270223853452,14.6899995803833,14.699999809265137,14.699999809265137,14.65999984741211,11.928415101067372,11.936535379121532,11.936535379121532,11.904055041297227,11.926385225151915,0.020372133492646036,-2.6000001430511475,0.0,0.0,0.0,0.0,0.0,0.0,,,,,
frame_00200.png,1771859355561280317,1771859355.5612803,42.30060758769606,-83.69859828502283,236.865966796875,0.7136398372132878,0.7003530599168359,-0.01484111021826473,0.0018750079482152122,0.00128,0.00799,-0.00205,-0.5566,0.1782,-10.164200000000001,5.216979950979298,11.670071131543633,14.65999984741211,14.609999656677246,14.739999771118164,14.649999618530273,11.904055041297227,11.863454425418759,11.96901571694584,11.895934763243066,11.908114986726222,0.020397806705665062,-2.4000000953674316,0.0,0.0,0.0,0.0,0.0,0.0,,,,,
frame_00201.png,1771859355611264489,1771859355.6112645,42.30060947078395,-83.69859826950247,236.86737060546875,0.713627666691225,0.7003635527016103,-0.01496652029446852,0.0015654552985232945,0.016960000000000003,0.0005900000000000001,0.00024,-0.5721,0.17320000000000002,-10.1049,5.211065273673292,11.656840353290734,14.619999885559082,14.589999198913574,14.59999942779541,14.609999656677246,11.87157470347292,11.847213869310437,11.855334147364598,11.863454425418759,11.859394286391678,0.017376401062554052,-2.1000001430511475,0.0,0.0,0.0,0.0,0.0,0.0,,,,,
frame_00202.png,1771859355671073855,1771859355.6710737,42.30061228933645,-83.69859823701246,236.8702850341797,0.7136253915579046,0.7003583312956934,-0.015326058366026966,0.001456105593735177,0.009190000000000002,-0.012100000000000001,-0.0005300000000000001,-0.5072,-0.21910000000000002,-10.1659,5.20164943533505,11.635777687878388,14.559999465942383,14.549999237060547,14.579999923706055,14.529999732971191,11.822853809540293,11.81473353148613,11.839094365648613,11.798493749770145,11.818793864111296,0.01572874466513445,-1.8000000715255737,0.0,0.0,0.0,0.0,0.0,0.0,,,,,
frame_00203.png,1771859355712282108,1771859355.7122822,42.300614165167865,-83.6985982172802,236.87286376953125,0.7136663829467871,0.7003116890315456,-0.015535466114525304,0.001575230153982293,0.004000000000000001,-0.012820000000000003,0.0033200000000000005,-0.6214000000000001,-0.0223,-9.975,5.193394982911889,11.617312973074922,14.559999465942383,14.519999504089355,14.569999694824219,14.529999732971191,11.822853809540293,11.790373471715984,11.830974087594452,11.798493749770145,11.810673779655218,0.016644193629666543,-1.7000000476837158,0.0,0.0,0.0,0.0,0.0,0.0,,,,,
frame_00204.png,1771859355762950200,1771859355.7629502,42.300616972743455,-83.6985981896757,236.87716674804688,0.7137274659095404,0.7002429932761383,-0.015818163633904415,0.001624953313469991,0.00954,-0.0036700000000000005,0.0015300000000000003,-0.6134000000000001,-0.020800000000000003,-9.596400000000001,5.178804355127215,11.584674614158274,14.549999237060547,14.469999313354492,14.50999927520752,14.489999771118164,11.81473353148613,11.749772855837517,11.782253193661825,11.76601341194584,11.778193248232828,0.01670471036260647,-1.7000000476837158,0.0,0.0,0.0,0.0,0.0,0.0,,,,,
frame_00205.png,1771859355812709741,1771859355.8127096,42.30061883875609,-83.69859817529927,236.87986755371094,0.7137892115042708,0.7001767753598288,-0.01596932117917351,0.0015574234812272725,0.0034200000000000003,0.008570000000000001,0.0034500000000000004,-0.6193000000000001,-0.0806,-9.4902,5.1643615443875595,11.552366913102308,14.559999465942383,14.449999809265137,14.5,14.469999313354492,11.822853809540293,11.733533074121533,11.77413369,11.749772855837517,11.770073357374837,0.018845180897571236,-1.7000000476837158,0.0,0.0,0.0,0.0,0.0,0.0,,,,,
frame_00206.png,1771859355863797539,1771859355.8637974,42.300621629766944,-83.69859816068163,236.88330078125,0.71384516463175,0.7001208253909861,-0.01591847021464879,0.0015852733958688302,-0.006920000000000001,0.00693,0.00338,-0.66,-0.4544,-9.5877,5.152698834942213,11.526278131835635,14.429999351501465,14.4399995803833,14.5,14.460000038146973,11.71729251801321,11.725412796067372,11.77413369,11.741653352175694,11.73962308906407,0.018509440323080068,-1.7000000476837158,0.0,0.0,0.0,0.0,0.0,0.0,,,,,
frame_00207.png,1771859355913579746,1771859355.9135797,42.3006234860312,-83.69859815747488,236.88523864746094,0.7138945511239435,0.7000758934975377,-0.015662334607368995,0.0017333475745010822,-0.0165,0.0034700000000000004,0.00046000000000000007,-0.7190000000000001,-0.6144000000000001,-9.6582,5.142107255427346,11.50258540395565,14.399999618530273,14.4399995803833,14.460000038146973,14.449999809265137,11.692932458243066,11.725412796067372,11.741653352175694,11.733533074121533,11.723382920151916,0.019195468535303087,-1.7000000476837158,0.0,0.0,0.0,0.0,0.0,0.0,,,,,
frame_00208.png,1771859355964914612,1771859355.9649148,42.30062626350251,-83.69859815168331,236.88697814941406,0.7139447529659962,0.700032709024871,-0.015287740109907499,0.0018387522821665483,-0.013600000000000001,0.00446,0.0022400000000000007,-0.7768,-0.3226,-9.7855,5.132772351544338,11.481703784063592,14.359999656677246,14.380000114440918,14.380000114440918,14.359999656677246,11.66045212041876,11.67669267652708,11.67669267652708,11.66045212041876,11.668572398472921,0.016275338392608564,-1.7000000476837158,0.0,0.0,0.0,0.0,0.0,0.0,,,,,
frame_00209.png,1771859356014787484,1771859356.0147877,42.30062903302914,-83.69859814101733,236.8883056640625,0.7139788667135892,0.7000041841269762,-0.015002227821080252,0.0018036772187927682,-0.006970000000000001,0.006150000000000001,0.004480000000000001,-0.5819,-0.5760000000000001,-9.979700000000001,5.125504989493865,11.465447131198406,14.219999313354492,14.380000114440918,14.329999923706055,14.34999942779541,11.546770550837518,11.67669267652708,11.636092060648613,11.652331842364598,11.627971782594452,0.014175169056756906,-1.7000000476837158,0.0,0.0,0.0,0.0,0.0,0.0,,,,,
frame_00210.png,1771859356066240990,1771859356.066241,42.30063087846979,-83.6985981333027,236.88949584960938,0.7140055758615826,0.6999837595049877,-0.014682260167350976,0.0017903363403167466,-0.006980000000000001,0.00014000000000000004,-4e-05,-0.1028,-0.9318000000000001,-10.0129,5.115407322124403,11.442859255152962,14.359999656677246,14.369999885559082,14.289999961853027,14.289999961853027,11.66045212041876,11.66857239847292,11.603611722824308,11.603611722824308,11.634061991135074,0.016709349623085568,-1.5,0.0,0.0,0.0,0.0,0.0,0.0,,,,,
frame_00211.png,1771859356116222517,1771859356.1162224,42.3006336406185,-83.6985981220041,236.8922119140625,0.7140522887143653,0.6999418744888699,-0.014393400639176736,0.00187918514899113,-0.003910000000000001,0.0010500000000000002,-0.00136,0.1579,-0.6098,-10.0715,5.105471962663934,11.420634452161462,14.359999656677246,14.269999504089355,14.269999504089355,14.299999237060547,11.66045212041876,11.587371166715984,11.587371166715984,11.61173122648613,11.611731420084213,0.016732605243886846,-1.5,0.0,0.0,0.0,0.0,0.0,0.0,,,,,
frame_00212.png,1771859356175952410,1771859356.1759524,42.30063639712843,-83.698598104654,236.89564514160156,0.7141086850700358,0.6998824868410068,-0.014486612438575018,0.0018516427427504594,0.009040000000000001,-0.007570000000000001,0.0023500000000000005,-0.0709,-0.536,-9.7581,5.095396544573423,11.398096346418074,14.210000038146973,14.25,14.289999961853027,14.269999504089355,11.538651047175694,11.571131385000001,11.603611722824308,11.587371166715984,11.575191330428996,0.015537242240154962,-1.5,0.0,0.0,0.0,0.0,0.0,0.0,,,,,
