image_filename,timestamp_ns,timestamp_sec,latitude,longitude,altitude,orientation_x,orientation_y,orientation_z,orientation_w,angular_velocity_x,angular_velocity_y,angular_velocity_z,linear_acceleration_x,linear_acceleration_y,linear_acceleration_z,vehicle_speed_mps,vehicle_speed_mph,wheel_speed_fl_rads,wheel_speed_fr_rads,wheel_speed_rl_rads,wheel_speed_rr_rads,wheel_speed_fl_mph,wheel_speed_fr_mph,wheel_speed_rl_mph,wheel_speed_rr_mph,avg_wheel_speed_mph,wheel_slip,steering_angle_deg,throttle_pedal,brake_pedal,brake_torque_actual,abs_active,esc_active,trac_active,marwis_road_condition,marwis_friction,marwis_surface_temp_c,marwis_ice_percent,marwis_water_film_height
frame_00000.png,1771858562534949920,1771858562.5349498,42.30087003015141,-83.69723144686664,238.5640869140625,-0.02086413340519372,-0.9996171385657522,-0.012327467978135541,-0.013352818283635267,0.0010800000000000002,0.00034,-0.0005200000000000001,-0.2782,0.2659,-9.805900000000001,-0.004443084261987548,0.009938912909010425,0.0,0.0,0.0,0.0,0.0,0.0,0.0,0.0,0.0,0.0,1.100000023841858,0.0,0.0,1876.0,0.0,0.0,0.0,,,,,
frame_00001.png,1771858562573546990,1771858562.5735471,42.30087003015141,-83.69723144686664,238.5640869140625,-0.02086413340519372,-0.9996171385657522,-0.012327467978135541,-0.013352818283635267,0.0010800000000000002,0.00034,-0.0005200000000000001,-0.2782,0.2659,-9.805900000000001,-0.004443084261987548,0.009938912909010425,0.0,0.0,0.0,0.0,0.0,0.0,0.0,0.0,0.0,0.0,1.100000023841858,0.0,0.0,1604.0,0.0,0.0,0.0,,,,,
frame_00002.png,1771858562623811943,1771858562.6238117,42.30087003015141,-83.69723144686664,238.5640869140625,-0.020857326799045728,-0.9996174662573538,-0.012319191822201328,-0.01334655704193004,0.0002800000000000001,-0.0017900000000000004,-0.00031,-0.2601,0.2646,-9.7826,-0.004392625565740039,0.009826039833026523,0.0,0.0,0.0,0.0,0.0,0.0,0.0,0.0,0.0,0.0,1.100000023841858,0.0,0.0,652.0,0.0,0.0,0.0,,,,,
frame_00003.png,1771858562663062454,1771858562.6630626,42.30087003015141,-83.69723144686664,238.5640869140625,-0.020860607953885224,-0.9996176731555886,-0.012307357675371668,-0.013336847373039884,-0.00030000000000000003,-0.00202,0.0014900000000000002,-0.2285,0.23920000000000002,-9.783800000000001,-0.0032808068034307285,0.0073389679708663344,0.0,0.0,0.0,0.0,0.0,0.0,0.0,0.0,0.0,0.0,1.100000023841858,0.0,0.0,460.0,0.0,0.0,0.0,,,,,
frame_00004.png,1771858562712844260,1771858562.7128444,42.30087003558507,-83.6972314567101,238.56304931640625,-0.020862948013588345,-0.9996174590209805,-0.012303486595554514,-0.01335279889062386,-0.0006100000000000001,0.00027000000000000006,-0.00022000000000000003,-0.2893,0.20650000000000002,-9.8481,-0.0060236874571526575,0.013474627420403066,0.0,0.0,0.0,0.0,0.0,0.0,0.0,0.0,0.0,0.0,1.100000023841858,0.0,0.0,168.0,0.0,0.0,0.0,,,,,
frame_00005.png,1771858562762922718,1771858562.7629228,42.30087003710623,-83.69723145496346,238.56297302246094,-0.020865201011706525,-0.9996166512697438,-0.012302727592942191,-0.013410323813336213,0.0010500000000000002,-0.0027600000000000003,-0.00068,-0.3332,0.2235,-9.8094,-0.012085760564673443,0.02703512123754061,0.0,0.0,0.0,0.0,0.0,0.0,0.0,0.0,0.0,0.0,1.100000023841858,0.0,0.0,64.0,0.0,0.0,0.0,,,,,
frame_00006.png,1771858562813397832,1771858562.8133976,42.30087003794827,-83.69723144940677,238.56295776367188,-0.02087029184216954,-0.9996160929446899,-0.012273371272540103,-0.013470783274264502,0.00158,-0.0017000000000000001,0.0021400000000000004,-0.2765,0.22660000000000002,-9.7676,-0.018098221911571222,0.040484636522870134,0.0,0.0,0.0,0.0,0.0,0.0,0.0,0.0,0.0,0.0,1.100000023841858,0.0,0.0,0.0,0.0,0.0,0.0,,,,,
frame_00007.png,1771858562863512305,1771858562.8635123,42.300870039161985,-83.69723143946223,238.562744140625,-0.02087139086265899,-0.9996156495654485,-0.01226706864475077,-0.013507672418658833,-0.0007800000000000001,-0.0030800000000000003,0.00019000000000000004,-0.2358,0.22340000000000002,-9.723,-0.021954326162174846,0.0491105103652154,0.0,0.0,0.0,0.0,0.0,0.0,0.0,0.0,0.0,0.0,1.100000023841858,0.0,0.0,0.0,0.0,0.0,0.0,,,,,
frame_00008.png,1771858562914262368,1771858562.9142623,42.30087004010034,-83.69723143116781,238.56259155273438,-0.02088395271572452,-0.9996164682130457,-0.012254882312317868,-0.013438558544572035,0.00013000000000000002,0.0027500000000000003,0.0005200000000000001,-0.056600000000000004,0.24450000000000002,-9.772400000000001,-0.01804816182129952,0.040372655104537754,0.0,0.0,0.0,0.0,0.0,0.0,0.0,0.0,0.0,0.0,1.100000023841858,0.0,0.0,0.0,0.0,0.0,0.0,,,,,
frame_00009.png,1771858562964348133,1771858562.964348,42.300870041709025,-83.69723142208359,238.56198120117188,-0.02087243339101874,-0.9996181887657992,-0.012228380565778922,-0.013352337685171242,0.0008900000000000001,0.005390000000000001,-0.0006700000000000001,-0.0475,0.2318,-9.809000000000001,-0.01683296298691012,0.03765432822393872,0.0,0.0,0.0,0.0,0.0,0.0,0.0,0.0,0.0,0.0,1.100000023841858,0.0,0.0,0.0,0.0,0.0,0.0,,,,,
frame_00010.png,1771858563014830863,1771858563.0148308,42.30087004271721,-83.69723141839421,238.5614776611328,-0.020861204038959247,-0.9996191554189935,-0.012184343788076691,-0.013337767876101303,0.0015300000000000003,0.0029300000000000003,-0.00025000000000000006,-0.09720000000000001,0.1812,-9.8603,-0.012906635222323937,0.02887136859422531,0.0,0.0,0.0,0.0,0.0,0.0,0.0,0.0,0.0,0.0,1.100000023841858,1.399999976158142,0.0,0.0,0.0,0.0,0.0,,,,,
frame_00011.png,1771858563065107951,1771858563.065108,42.30087004276378,-83.69723141650853,238.5610809326172,-0.020858972193072478,-0.9996189698624016,-0.012189603552652879,-0.013350353385171362,0.00041000000000000005,0.0005600000000000002,0.00035000000000000005,-0.2,0.2091,-9.840300000000001,-0.0074449162394257746,0.016653830932621093,0.0,0.0,0.0,0.0,0.0,0.0,0.0,0.0,0.0,0.0,1.100000023841858,3.799999952316284,0.0,0.0,0.0,0.0,0.0,,,,,
frame_00012.png,1771858563115839253,1771858563.1158392,42.30087004310952,-83.69723141695049,238.5609130859375,-0.02087084565873537,-0.9996185985583614,-0.012190773196029374,-0.013358527860117467,0.0009200000000000001,0.0015900000000000003,0.0018400000000000003,-0.1613,0.2142,-9.8103,-0.0012257468642059958,0.0027419221904169603,0.0,0.0,0.0,0.0,0.0,0.0,0.0,0.0,0.0,0.0,1.100000023841858,9.175000190734863,0.0,0.0,0.0,0.0,0.0,,,,,
frame_00013.png,1771858563166074386,1771858563.1660743,42.30087004338809,-83.69723142229073,238.56057739257812,-0.020878900828162794,-0.9996189953883218,-0.012184960059881466,-0.013321497940885385,-0.00021000000000000004,0.0016200000000000001,0.00223,-0.15760000000000002,0.2151,-9.804400000000001,0.004599337814234291,0.010288442730173257,0.0,0.0,0.0,0.0,0.0,0.0,0.0,0.0,0.0,0.0,1.100000023841858,11.600000381469727,0.0,0.0,0.0,0.0,0.0,,,,,
frame_00014.png,1771858563225808507,1771858563.2258084,42.30087004415748,-83.69723143414295,238.56015014648438,-0.020882298050448,-0.9996203450892788,-0.012179599259857123,-0.013219405190585926,-0.00048,0.00483,0.0012700000000000003,0.07930000000000001,0.2333,-9.697000000000001,0.01789624688640671,0.04003283051007863,0.0,0.0,0.0,0.0,0.0,0.0,0.0,0.0,0.0,0.0,1.2000000476837158,12.27500057220459,0.0,0.0,0.0,0.0,0.0,,,,,
frame_00015.png,1771858563267298169,1771858563.267298,42.30087004490554,-83.69723144811563,238.55979919433594,-0.020884416497772895,-0.9996224449702474,-0.01218312974332847,-0.013052969352187875,0.0005700000000000001,0.010670000000000002,-0.0008900000000000001,0.3675,0.2262,-9.6302,0.03770748778292036,0.08434938772112587,0.0,0.0,0.0,0.0,0.0,0.0,0.0,0.0,0.0,0.0,1.5,12.199999809265137,0.0,0.0,0.0,0.0,0.0,,,,,
frame_00016.png,1771858563326697640,1771858563.3266978,42.30087004452131,-83.69723149676862,238.55874633789062,-0.02090251926120984,-0.9996261470662501,-0.012204601653309465,-0.012716072054791278,0.00017,0.01246,0.00042000000000000007,0.5377000000000001,0.2595,-9.776100000000001,0.08756847441838918,0.1958854231654715,0.0,0.0,0.0,0.0,0.0,0.0,0.0,0.0,0.0,0.0,2.700000047683716,12.074999809265137,0.0,0.0,0.0,0.0,0.0,,,,,
frame_00017.png,1771858563376705368,1771858563.3767052,42.30087004291274,-83.69723155266796,238.55787658691406,-0.020916834146561814,-0.9996295387881748,-0.012213897226716066,-0.012413377701544576,0.00020000000000000004,0.011930000000000003,0.00042000000000000007,0.7257,0.2867,-9.9417,0.13437622712009717,0.30059155749403016,0.0,0.0,0.0,0.0,0.0,0.0,0.0,0.0,0.0,0.0,4.400000095367432,12.375,0.0,0.0,0.0,0.0,0.0,,,,,
frame_00018.png,1771858563419854514,1771858563.4198546,42.30087004413654,-83.6972316681143,238.55702209472656,-0.02091105060681192,-0.9996322476334545,-0.01219914573684505,-0.012217949791112447,0.00022000000000000003,0.008290000000000002,0.0005900000000000001,0.7091000000000001,0.3014,-9.9772,0.17210550412134712,0.3849896863892063,0.0,0.0,0.0,0.0,0.0,0.0,0.0,0.0,0.0,0.0,5.700000286102295,12.225000381469727,0.0,0.0,0.0,0.0,0.0,,,,,
frame_00019.png,1771858563478198611,1771858563.4781985,42.30087004663894,-83.69723177019762,238.5568389892578,-0.020856058377578923,-0.9996357609975512,-0.012169829123535725,-0.0120526106259774,0.0015200000000000003,0.00474,-0.00218,0.7623000000000001,0.23870000000000002,-9.9283,0.2334157095099265,0.522136937231135,0.0,0.0,0.0,0.0,0.0,0.0,0.0,0.0,0.0,0.0,6.900000095367432,13.975000381469727,0.0,0.0,0.0,0.0,0.0,,,,,
frame_00020.png,1771858563520888089,1771858563.520888,42.300870050516245,-83.6972319599065,238.55685424804688,-0.020835141157802606,-0.9996372348541547,-0.012140278060622699,-0.011996217515737513,0.0005700000000000001,0.00117,-0.0006600000000000001,0.9092,0.231,-9.8938,0.2781933391939724,0.6223018081765647,0.0,0.0,0.0,0.0,0.0,0.0,0.0,0.0,0.0,0.0,7.099999904632568,15.550000190734863,0.0,0.0,0.0,0.0,0.0,,,,,
frame_00021.png,1771858563579303335,1771858563.5793035,42.300870055206815,-83.69723219727595,238.55735778808594,-0.020819894191704214,-0.9996387993240822,-0.012069656241924302,-0.011963540026059925,0.00253,0.0018700000000000004,-0.00036,0.9747,0.24150000000000002,-9.8771,0.3457639733245219,0.7734532624885561,0.17000000178813934,0.0,0.0,0.0,0.13804156885198562,0.0,0.0,0.0,0.034510392212996406,0.0,7.099999904632568,17.274999618530273,0.0,0.0,0.0,0.0,0.0,,,,,
frame_00022.png,1771858563629847990,1771858563.629848,42.300870059219115,-83.6972323821899,238.55776977539062,-0.020816003576757613,-0.9996404442835058,-0.01201481450081165,-0.011887824875822427,0.0019300000000000003,0.00288,-0.00051,1.1357000000000002,0.2368,-9.8619,0.41203251966146637,0.9216920245315207,0.17000000178813934,0.7999999523162842,0.6899999976158142,0.0,0.13804156885198562,0.6496073372803831,0.5602863598640192,0.0,0.336983816499097,0.0,7.200000286102295,18.55000114440918,0.0,0.0,0.0,0.0,0.0,,,,,
frame_00023.png,1771858563679857464,1771858563.6798575,42.30087006559236,-83.69723271723491,238.55828857421875,-0.020813664889023253,-0.9996430361466688,-0.011957176060834991,-0.011731051871299237,0.0038000000000000004,0.00872,-0.0011400000000000002,1.3897000000000002,0.22490000000000002,-9.7813,0.48857600114413086,1.092915199999352,0.8700000047683716,1.0699999332427979,1.0099999904632568,1.1100000143051147,0.7064480252719617,0.8688498111925363,0.8201293044560766,0.9013302458158851,0.8241893466841149,0.24587987550671492,7.200000286102295,19.225000381469727,0.0,0.0,0.0,0.0,0.0,,,,,
frame_00024.png,1771858563730741505,1771858563.7307415,42.300870070291786,-83.69723298270124,238.55841064453125,-0.0208015096505082,-0.9996480097997765,-0.011774483448367146,-0.01151152635968079,0.010830000000000001,0.01131,-0.00111,1.5107000000000002,0.2494,-9.6815,0.5777400749490817,1.292369883256599,1.1399999856948853,1.3299999237060547,1.2599999904632568,1.3399999141693115,0.9256904991841151,1.079972200648613,1.0231316094560765,1.0880922851046897,1.0292216485983734,0.20361681130724538,7.200000286102295,19.524999618530273,0.0,0.0,0.0,0.0,0.0,,,,,
frame_00025.png,1771858563780852282,1771858563.7808523,42.300870081210086,-83.69723344634302,238.5581817626953,-0.020771908630203784,-0.9996548712293369,-0.01151686850132604,-0.011226218385521168,0.009110000000000002,0.007060000000000001,-0.0023800000000000006,1.693,0.3134,-9.8076,0.6733836462826794,1.506318813715577,1.649999976158142,1.5799999237060547,1.5,1.5699999332427979,1.3398151936401916,1.282974505648613,1.21801383,1.2748544211925366,1.2789144876203353,0.15096692946051202,7.300000190734863,19.274999618530273,0.0,0.0,0.0,0.0,0.0,,,,,
frame_00026.png,1771858563822658426,1771858563.8226583,42.30087009072869,-83.6972338066613,238.55809020996094,-0.02073819410696376,-0.9996597388506294,-0.011348499816260574,-0.011024762047031901,0.00623,0.008520000000000002,-0.0014700000000000002,1.8092000000000001,0.116,-9.987,0.7550979065612968,1.6891087111032275,1.8799999952316284,1.7999999523162842,1.6999999284744263,1.7799999713897705,1.5265773297280383,1.4616165572803832,1.3804156159205747,1.44537638836823,1.4534964728243063,0.13948909074362242,7.400000095367432,19.149999618530273,0.0,0.0,0.0,0.0,0.0,,,,,
frame_00027.png,1771858563872903836,1771858563.8729038,42.300870101679976,-83.69723419564951,238.55816650390625,-0.020681923138687996,-0.9996645859961584,-0.011155510717438605,-0.010887063012955398,0.008220000000000002,0.006410000000000002,-0.003650000000000001,1.5055,0.29560000000000003,-9.9169,0.8454713721977909,1.8912687313241265,2.0399999618530273,2.0,2.0399999618530273,2.1399998664855957,1.6564987778243065,1.62401844,1.6564987778243065,1.7376996223850727,1.6686789045084214,0.11769338916731532,7.400000095367432,19.450000762939453,0.0,0.0,0.0,0.0,0.0,,,,,
frame_00028.png,1771858563923751796,1771858563.9237516,42.30087011993384,-83.69723485008235,238.55844116210938,-0.020548259889190568,-0.9996716237892205,-0.010907423137404093,-0.0107443811664978,0.010910000000000001,0.005320000000000001,-0.008150000000000001,1.4122000000000001,0.1753,-9.9648,0.9320441725006207,2.0849268912335384,2.3499999046325684,2.309999942779541,2.3899998664855957,2.3299999237060547,1.9082215895607662,1.8757412517364598,1.9407019273850727,1.8919814206486132,1.904161547332728,0.08670104676613445,7.300000190734863,19.524999618530273,0.0,0.0,0.0,0.0,0.0,,,,,
frame_00029.png,1771858563973564809,1771858563.9735649,42.30087013167142,-83.69723532990291,238.55880737304688,-0.020383118513416232,-0.9996793353354472,-0.010595556683269919,-0.010653129189023424,0.009750000000000002,-0.0018600000000000003,-0.004940000000000001,1.4568,0.19990000000000002,-10.131,1.0234153983063763,2.2893188410874656,2.629999876022339,2.669999837875366,2.7100000381469727,2.5999999046325684,2.1355841479289963,2.1680644857533027,2.2005450171756937,2.111223894560766,2.1538543863546895,0.059172384510856595,7.300000190734863,19.42500114440918,0.0,0.0,0.0,0.0,0.0,,,,,
frame_00030.png,1771858564024118688,1771858564.024119,42.30087015093684,-83.69723611359062,238.5601043701172,-0.020213456449470535,-0.9996850885283637,-0.010294216463252959,-0.010731684854252622,0.011090000000000001,-0.0056300000000000005,-0.007340000000000001,1.6343,-0.2928,-10.0385,1.1326137003119656,2.5335888907758486,2.8499999046325684,2.9099998474121094,2.990000009536743,2.8299999237060547,2.3142261995607667,2.362946706297226,2.4279075755439234,2.297986030648613,2.3507666280126323,0.0721594033778825,7.5,19.25,0.0,0.0,0.0,0.0,0.0,,,,,
frame_00031.png,1771858564074194164,1771858564.0741942,42.30087016048659,-83.69723668543801,238.56124877929688,-0.02014314054028915,-0.9996856748238858,-0.010259701896481501,-0.010841769139832601,-0.00493,5.000000000000001e-05,-0.0008000000000000001,1.5509000000000002,-0.5993,-9.674000000000001,1.224084995337582,2.738204689470451,3.1399998664855957,3.119999885559082,3.2100000381469727,3.0899999141693115,2.549708842385073,2.5334686734729193,2.6065496271756934,2.50910842010469,2.549708890784594,0.06883919212128396,7.599999904632568,19.5,0.0,0.0,0.0,0.0,0.0,,,,,
frame_00032.png,1771858564124902580,1771858564.1249027,42.30087016514116,-83.69723760552083,238.56199645996094,-0.020181373343887032,-0.9996826579173255,-0.010599258021831074,-0.0107215371422654,-0.018940000000000002,0.00834,0.0005200000000000001,1.3363,-0.497,-9.482000000000001,1.315136010679266,2.9418803477288775,3.490000009536743,3.379999876022339,3.4499998092651367,3.509999990463257,2.833912185543923,2.7445910629289965,2.8014316541215325,2.850152354456077,2.8075218142626324,0.0456709714825654,7.5,19.200000762939453,0.0,0.0,0.0,0.0,0.0,,,,,
frame_00033.png,1771858564175008223,1771858564.1750083,42.30087016530997,-83.69723826031571,238.5619354248047,-0.020250550630121544,-0.999676916305638,-0.011217694127187374,-0.010494834124279387,-0.019340000000000003,0.00144,0.0007000000000000001,1.6849,-0.3099,-10.225800000000001,1.4154909868524903,3.16636840812981,3.759999990463257,3.7300000190734863,3.7300000190734863,3.6499998569488525,3.0531546594560766,3.028794406087847,3.028794406087847,2.9638335368411495,3.0186442521182304,0.046654127685297204,7.099999904632568,19.875,0.0,0.0,0.0,0.0,0.0,,,,,
frame_00034.png,1771858564226358127,1771858564.226358,42.300870157676634,-83.69723931936696,238.56195068359375,-0.020309866999346393,-0.9996659154128965,-0.012050360230525541,-0.010505031293584797,-0.030960000000000005,-0.0021200000000000004,0.0002800000000000001,1.6996,0.2059,-9.7689,1.5091983269564273,3.375986105501911,4.110000133514404,4.049999713897705,3.9700000286102295,4.019999980926514,3.3373580026149274,3.2886371086822987,3.2236766266317702,3.2642770489121533,3.2784871967102873,0.028880127389365646,6.800000190734863,20.0,0.0,0.0,0.0,0.0,0.0,,,,,
frame_00035.png,1771858564276115248,1771858564.2761152,42.3008701501531,-83.69724007185147,238.56192016601562,-0.02027566531592284,-0.9996547216535345,-0.012922744252811022,-0.010598941115383087,-0.026720000000000004,-0.0015300000000000003,-0.0043100000000000005,1.9614,0.7657,-10.1724,1.5999554714834998,3.5790043923803,4.279999732971191,4.279999732971191,4.239999771118164,4.369999885559082,3.4753992447701454,3.4753992447701454,3.442918906945839,3.5484801984729195,3.4855493987397623,0.026112008646735234,6.800000190734863,21.42500114440918,0.0,0.0,0.0,0.0,0.0,,,,,
frame_00036.png,1771858564327104284,1771858564.3271043,42.300870150236264,-83.69724126519021,238.56234741210938,-0.020052399855850722,-0.99965304876753,-0.013325320224519079,-0.010682658410585936,-0.013620000000000002,0.007500000000000001,-0.012620000000000003,1.7181000000000002,0.5944,-9.3061,1.686202869065663,3.7719346459277445,4.509999752044678,4.489999771118164,4.480000019073486,4.71999979019165,3.6621613808579925,3.645921211945839,3.637801321087847,3.832683348033686,3.6946418154813414,0.02049156141394178,6.599999904632568,21.92500114440918,0.0,0.0,0.0,0.0,0.0,,,,,
frame_00037.png,1771858564376832939,1771858564.376833,42.300870164054764,-83.69724210589779,238.5619659423828,-0.019638860482021347,-0.9996639738750872,-0.01329398946789515,-0.010465387678642735,0.005880000000000001,0.010900000000000002,-0.01887,1.5974000000000002,0.4202,-9.6706,1.7819072630100647,3.9860196329177344,4.849999904632568,4.839999675750732,4.789999961853027,4.920000076293945,3.9382446395607666,3.9301243615066053,3.889524132824307,3.995085424351387,3.938244639560766,0.01198563924834392,6.400000095367432,21.774999618530273,0.0,0.0,0.0,0.0,0.0,,,,,
frame_00038.png,1771858564428455882,1771858564.4284558,42.30087019373321,-83.69724342973475,238.56076049804688,-0.019282185690303433,-0.9996767664257838,-0.013209223597411656,-0.010003819043090618,0.00445,0.020380000000000002,-0.013230000000000002,1.7777,0.3472,-9.7478,1.8767347484663301,4.198143028234273,5.109999656677246,5.179999828338623,5.0,5.109999656677246,4.149366835418759,4.206207620209379,4.0600461,4.149366835418759,4.141246847761725,0.01355270177549869,6.400000095367432,21.725000381469727,0.0,0.0,0.0,0.0,0.0,,,,,
frame_00039.png,1771858564478063691,1771858564.4780636,42.300870216009564,-83.69724435304451,238.5603485107422,-0.019123671152759092,-0.9996832396923966,-0.01305759719678533,-0.009859241106812511,0.009940000000000001,-0.0029000000000000007,-0.0031200000000000004,1.7859,0.3507,-10.408800000000001,1.968614444846157,4.403672396254163,5.309999942779541,5.409999847412109,5.299999713897705,5.339999675750732,4.3117689117364595,4.392969756297226,4.3036486336822986,4.336128971506605,4.336129068305647,0.015337954750214731,6.300000190734863,21.875,0.0,0.0,0.0,0.0,0.0,,,,,
frame_00040.png,1771858564529084719,1771858564.5290847,42.3008702436975,-83.69724581429956,238.56187438964844,-0.019194677936191062,-0.9996852849258019,-0.012581649265029537,-0.010129044550987067,0.025750000000000006,-0.025820000000000003,0.005880000000000001,1.9217000000000002,0.2285,-10.3671,2.0655700739168723,4.620556321147609,5.559999942779541,5.539999961853027,5.650000095367432,5.509999752044678,4.5147712167364595,4.498531047824307,4.587852170439234,4.474170600857992,4.518831258964498,0.022015760681788378,6.300000190734863,21.92500114440918,0.0,0.0,0.0,0.0,0.0,,,,,
frame_00041.png,1771858564579542625,1771858564.5795426,42.30087025774643,-83.69724683394477,238.564208984375,-0.019375172015866027,-0.9996847308298136,-0.011984464180980203,-0.010555295987023141,0.038610000000000005,0.00062,0.0037700000000000003,2.1062000000000003,0.5482,-8.9013,2.1477982856146203,4.804495897022769,5.849999904632568,5.789999961853027,5.980000019073486,5.96999979019165,4.750253859560766,4.701533352824307,4.855815151087847,4.847694873033686,4.788824309126651,0.003261858940462221,5.900000095367432,22.600000381469727,0.0,0.0,0.0,0.0,0.0,,,,,
frame_00042.png,1771858564630299633,1771858564.6302996,42.30087027772165,-83.69724842895914,238.5665740966797,-0.01934743860169419,-0.9996830242000792,-0.011958530120757711,-0.01079450337386957,0.00445,0.004000000000000001,-0.008310000000000001,2.0517000000000003,0.807,-9.1426,2.244432303443833,5.020660396865648,6.069999694824219,6.150000095367432,6.109999656677246,6.069999694824219,4.928895717594452,4.993856780439234,4.961376055418759,4.928895717594452,4.953256067761725,0.013425391039394611,4.700000286102295,22.700000762939453,0.0,0.0,0.0,0.0,0.0,,,,,
frame_00043.png,1771858564680285502,1771858564.6802855,42.300870293890185,-83.69724953308241,238.5665283203125,-0.01896266299785826,-0.9996876095657135,-0.012424322534642152,-0.01052316028455773,-0.027690000000000003,0.01718,-0.01693,2.1119,0.4259,-9.4451,2.3254777893610328,5.201954286133269,6.409999847412109,6.440000057220459,6.37999963760376,6.460000038146973,5.204978976297226,5.229339423263541,5.180618529330912,5.245579592175694,5.215129130266843,0.002532672032257921,3.200000047683716,22.5,0.0,0.0,0.0,0.0,0.0,,,,,
frame_00044.png,1771858564731805018,1771858564.7318048,42.300870317797354,-83.69725125335393,238.56565856933594,-0.018579659891336253,-0.9996928429388401,-0.0128269588646175,-0.010221797369709594,-0.016510000000000004,0.010640000000000002,-0.009470000000000001,1.8911,0.0284,-10.039100000000001,2.416361972307568,5.405256750333692,6.599999904632568,6.679999828338623,6.539999961853027,6.649999618530273,5.3592607745607665,5.424221450209379,5.310540267824307,5.399861003243066,5.373470873959381,0.005880548851328622,1.7000000476837158,22.25,0.0,0.0,0.0,0.0,0.0,,,,,
frame_00045.png,1771858564781782983,1771858564.781783,42.30087033062911,-83.69725243948423,238.5653076171875,-0.01840752470546253,-0.9996949795258689,-0.012927629760597895,-0.010197417994928404,-0.023230000000000004,0.00217,0.00135,2.0993,-1.2874,-10.5222,2.5066167741965155,5.607151326871154,6.949999809265137,6.87999963760376,6.829999923706055,6.690000057220459,5.643463924121533,5.586623139330912,5.546022910648613,5.43234172826354,5.55211292559115,0.009815751006441348,1.399999976158142,22.67500114440918,0.0,0.0,0.0,0.0,0.0,,,,,
frame_00046.png,1771858564832821688,1771858564.8328218,42.30087032918871,-83.69725428957967,238.56704711914062,-0.018612576604695064,-0.9996842634653722,-0.013092366410405617,-0.010655295097093427,0.00018,0.0026500000000000004,0.00922,0.9281,-1.1744,-10.0022,2.570140461564985,5.749250004093178,7.079999923706055,7.029999732971191,7.119999885559082,7.230000019073486,5.749025215648612,5.7084245997701455,5.78150555347292,5.870826676087847,5.777445511244882,0.004904206136736121,1.5,22.524999618530273,0.0,0.0,0.0,0.0,0.0,,,,,
frame_00047.png,1771858564882983831,1771858564.882984,42.30087032381756,-83.69725556571741,238.56849670410156,-0.018959145796676846,-0.9996670534530958,-0.0136109680877785,-0.011003389422309143,0.015500000000000002,-0.014420000000000002,0.0004300000000000001,1.8344,0.017400000000000002,-9.9764,2.671506396132284,5.975999517764151,7.5,7.37999963760376,7.339999675750732,7.359999656677246,6.090069150000001,5.992627749330913,5.960147411506605,5.976387580418758,6.004807972814069,0.004820692331765081,1.5,22.524999618530273,0.0,0.0,0.0,0.0,0.0,,,,,
frame_00048.png,1771858564934207981,1771858564.934208,42.30087033022779,-83.6972575444021,238.56964111328125,-0.01902171569881511,-0.9996565815390512,-0.01412035909703881,-0.01120306995881661,0.017240000000000002,-0.008820000000000001,-0.014080000000000002,1.2575,1.9741000000000002,-8.737300000000001,2.7570449478077794,6.167344125549135,7.519999980926514,7.519999980926514,7.619999885559082,7.669999599456787,6.106309318912153,6.106309318912153,6.187510163472919,6.2281103921552186,6.157059798363111,0.0016675455393220595,1.3000000715255737,22.100000381469727,0.0,0.0,0.0,0.0,0.0,,,,,
frame_00049.png,1771858564984046651,1771858564.9840467,42.3008703554809,-83.69725890449762,238.56948852539062,-0.018722968538538665,-0.9996658743356994,-0.01397183989964159,-0.011062451245784135,0.028270000000000003,0.017280000000000004,-0.017560000000000003,1.1732,2.0694,-8.7955,2.8282572499635448,6.326641772733452,7.799999713897705,8.019999504089355,7.889999866485596,7.940000057220459,6.333671683682299,6.512313541715985,6.406752637385073,6.4473532532635405,6.425022779011724,0.015550272927143468,1.2000000476837158,22.774999618530273,0.0,0.0,0.0,0.0,0.0,,,,,
frame_00050.png,1771858565034363336,1771858565.0343635,42.30087037965266,-83.69726028714378,238.56883239746094,-0.018246084653648353,-0.9996886352955144,-0.01338478326821335,-0.010514772116734468,0.018420000000000002,0.028250000000000004,-0.012830000000000001,1.5476,0.9487000000000001,-9.6216,2.906891594432147,6.502542083249047,8.130000114440918,8.199999809265137,8.139999389648438,8.130000114440918,6.601635051527081,6.658475449121532,6.609754555188903,6.601635051527081,6.6178750268411495,0.017736593183949937,1.5,22.600000381469727,0.0,0.0,0.0,0.0,0.0,,,,,
frame_00051.png,1771858565084471414,1771858565.0844712,42.30087042128477,-83.69726242526183,238.5672149658203,-0.018014333107137293,-0.9997061758303356,-0.012770220445400889,-0.009998363824503639,0.01012,0.024800000000000003,0.0006100000000000001,1.7326000000000001,-1.2221,-10.8702,2.97943923639158,6.664826805453781,8.369999885559082,8.359999656677246,8.369999885559082,8.220000267028809,6.796517078472919,6.7883968004187585,6.796517078472919,6.674716005229855,6.764036740648613,0.014885598394492279,2.1000001430511475,22.450000762939453,0.0,0.0,0.0,0.0,0.0,,,,,
frame_00052.png,1771858565135235809,1771858565.1352358,42.300870438218034,-83.69726389215306,238.56719970703125,-0.018171639667855788,-0.9997118830848377,-0.012268469881224202,-0.009768673273430789,0.0016700000000000003,-0.0039000000000000007,0.016530000000000003,1.6513,-0.6990000000000001,-10.547,3.0617053767901874,6.848851225557042,8.59000015258789,8.59999942779541,8.539999961853027,8.59000015258789,6.9751593237027745,6.983278827364597,6.934558707824307,6.9751593237027745,6.9670390456486135,0.01725659036811078,2.200000047683716,22.575000762939453,0.0,0.0,0.0,0.0,0.0,,,,,
frame_00053.png,1771858565185536526,1771858565.1855366,42.30087046916762,-83.69726616016023,238.56922912597656,-0.018358983118201888,-0.9997092195020271,-0.011998430336492711,-0.010023065946776877,0.007480000000000001,-0.026570000000000003,0.008400000000000001,1.2846,0.17830000000000001,-10.608600000000001,3.1538292283328233,7.054926754026826,8.739999771118164,8.649999618530273,8.880000114440918,8.779999732971191,7.096960396945839,7.023879443243065,7.2106419665270804,7.129440734770146,7.115230635371533,0.008547768594519623,1.899999976158142,22.67500114440918,0.0,0.0,0.0,0.0,0.0,,,,,
frame_00054.png,1771858565237116436,1771858565.2371163,42.30087049104565,-83.69726771479651,238.5706787109375,-0.018316627576130506,-0.9997107015177369,-0.011595464067575329,-0.010419195660369458,0.008020000000000001,-0.029720000000000003,-0.0020800000000000003,1.5076,0.0675,-9.4047,3.2355431579549183,7.237715911755675,9.069999694824219,9.010000228881836,8.989999771118164,9.069999694824219,7.364923377594453,7.316203258054162,7.299962701945839,7.364923377594453,7.336503178797226,0.013648956141135435,1.7000000476837158,22.80000114440918,0.0,0.0,0.0,0.0,0.0,,,,,
frame_00055.png,1771858565286229924,1771858565.28623,42.30087051578918,-83.69726929209264,238.57196044921875,-0.018160270547585122,-0.9997142377250585,-0.011356445403910445,-0.010615018192721561,-0.00787,-0.00529,-0.00892,1.1261,-0.6468,-9.1135,3.3082611553478367,7.40038170884379,9.199999809265137,9.399999618530273,9.260000228881836,9.15999984741211,7.470484669121532,7.632886358243065,7.519205563054161,7.438004331297226,7.515145230428996,0.0155077840711998,1.7000000476837158,22.450000762939453,0.0,0.0,0.0,0.0,0.0,,,,,
frame_00056.png,1771858565337105466,1771858565.3371055,42.300870543845015,-83.69727171735545,238.57327270507812,-0.017909506829496435,-0.9997149717000308,-0.011537101754251608,-0.010775908641178333,-0.028810000000000006,-0.028140000000000005,-0.008960000000000003,0.7347,-1.2656,-10.2603,3.391208643720776,7.585930263484753,9.429999351501465,9.510000228881836,9.469999313354492,9.519999504089355,7.6572464180132105,7.722207868054161,7.689726755837517,7.730327371715985,7.699877103405219,0.015020813000213651,1.8000000715255737,22.649999618530273,0.0,0.0,0.0,0.0,0.0,,,,,
frame_00057.png,1771858565387007499,1771858565.3870075,42.300870556714315,-83.69727337115461,238.57418823242188,-0.017828264421412054,-0.9997162967061719,-0.011483715203124228,-0.010844508884718437,-0.0044,-0.00839,0.0020700000000000002,0.764,-0.5326000000000001,-10.3521,3.4620811490303236,7.744467805511893,9.84999942779541,9.65999984741211,9.829999923706055,9.869999885559082,7.998290352364598,7.844008941297226,7.982050570648613,8.014530908472919,7.959720193195839,0.027794342114863774,2.0,22.42500114440918,0.0,0.0,0.0,0.0,0.0,,,,,
frame_00058.png,1771858565438221741,1771858565.438222,42.30087057751023,-83.6972759046426,238.57603454589844,-0.017863365344890803,-0.9997184807499537,-0.011223110361352399,-0.010858232792516413,-0.0034700000000000004,0.009550000000000001,0.005410000000000001,2.5354,-1.0242,-8.7645,3.53840457534773,7.915198730778351,9.960000038146973,10.109999656677246,9.819999694824219,9.84999942779541,8.087611862175693,8.20941293541876,7.973930292594452,7.998290352364598,8.067311360638376,0.019217790359265824,2.0,22.600000381469727,0.0,0.0,0.0,0.0,0.0,,,,,
frame_00059.png,1771858565488227841,1771858565.4882278,42.300870594151014,-83.69727763190835,238.5765838623047,-0.01793369122864169,-0.9997130882709611,-0.011438002588348867,-0.011013444304227472,0.007560000000000001,0.00034,-0.011040000000000001,1.5528000000000002,-0.0965,-10.6257,3.6109488766389206,8.077475980108668,10.069999694824219,10.139999389648438,10.15999984741211,10.149999618530273,8.176932597594453,8.233772995188904,8.250013551297226,8.241893273243065,8.225653104330913,0.01834448342367611,1.7000000476837158,22.575000762939453,0.0,0.0,0.0,0.0,0.0,,,,,
frame_00060.png,1771858565539446985,1771858565.539447,42.30087061510109,-83.69728027533083,238.57701110839844,-0.017899004224092407,-0.9997103182185628,-0.0117155607995447,-0.011029548054098967,-0.010060000000000001,-0.010470000000000002,-0.008220000000000002,1.504,0.6882,-10.0271,3.669278503354047,8.207955855292802,10.479999542236328,10.40999984741211,10.289999961853027,10.559999465942383,8.509856253891678,8.453015856297226,8.355574842824307,8.57481692954029,8.473315970638374,0.03232962262759469,1.600000023841858,22.17500114440918,0.0,0.0,0.0,0.0,0.0,,,,,
frame_00061.png,1771858565590052507,1771858565.5900526,42.30087062733416,-83.69728206889297,238.5770721435547,-0.017816131914657363,-0.99970707329741,-0.012227243164921603,-0.010901723135005502,-0.029760000000000005,0.018850000000000002,-0.008320000000000001,1.9329,-1.0064,-10.0503,3.7424865003177947,8.371717752020889,10.519999504089355,10.489999771118164,10.4399995803833,10.539999961853027,8.542336591715985,8.51797653194584,8.477375916067372,8.558577147824307,8.524066546888376,0.018198032874521018,1.7000000476837158,22.225000381469727,0.0,0.0,0.0,0.0,0.0,,,,,
frame_00062.png,1771858565640258005,1771858565.640258,42.30087063815952,-83.69728389550623,238.5765380859375,-0.017721382879430092,-0.9996980075444071,-0.012944855154126694,-0.011057894267082964,-0.03645000000000001,-0.0014000000000000002,-0.005740000000000001,0.6982,-0.5865,-9.3902,3.811326201187986,8.525708032485454,10.789999961853027,10.75,10.75,10.859999656677246,8.761579452824307,8.729099115,8.729099115,8.81841985041876,8.759549383310766,0.02742779249938041,1.7000000476837158,22.125,0.0,0.0,0.0,0.0,0.0,,,,,
frame_00063.png,1771858565690305896,1771858565.6903057,42.300870651704926,-83.69728668692659,238.57608032226562,-0.017599420991624593,-0.9996897923876027,-0.013635675532107459,-0.011164574760132242,-0.04048,0.011970000000000001,0.0020700000000000002,0.635,-0.1933,-10.1205,3.8889351756764423,8.699314651877662,11.010000228881836,10.869999885559082,10.949999809265137,10.979999542236328,8.940221698054161,8.826540128472919,8.891500804121533,8.915860863891679,8.893530873635074,0.022325462353001774,1.8000000715255737,22.17500114440918,0.0,0.0,0.0,0.0,0.0,,,,,
frame_00064.png,1771858565741165709,1771858565.7411659,42.30087065993564,-83.69728859339729,238.57553100585938,-0.017466400294599782,-0.9996798236140942,-0.01425627762502452,-0.011486238197089388,-0.029450000000000007,-0.010090000000000002,0.0035900000000000003,0.5884,1.3122,-10.3137,3.9665939358636524,8.87303263889084,11.050000190734863,11.130000114440918,10.960000038146973,11.09000015258789,8.972702035878468,9.037662711527082,8.899621082175694,9.005182373702773,8.978792050821005,0.01191919563854842,1.8000000715255737,22.225000381469727,0.0,0.0,0.0,0.0,0.0,,,,,
frame_00065.png,1771858565791677815,1771858565.7916777,42.300870673205516,-83.69729149773899,238.57522583007812,-0.017389446171820033,-0.9996713017402703,-0.014636897738138314,-0.011859884626533233,-0.04214000000000001,-0.02324,0.0007100000000000001,1.2364000000000002,-0.5101,-9.8452,4.029861315744295,9.014557971641045,11.539999961853027,11.279999732971191,11.199999809265137,11.319999694824219,9.370586367824306,9.159463784770146,9.094503109121534,9.191944122594451,9.20412434607761,0.021028915120732777,1.8000000715255737,22.25,0.0,0.0,0.0,0.0,0.0,,,,,
frame_00066.png,1771858565843110793,1771858565.8431108,42.300870678907984,-83.69729346691432,238.57504272460938,-0.017293617418458307,-0.9996464402290917,-0.016020423728872926,-0.012299242148857331,-0.05952000000000001,0.0032600000000000003,-0.0023300000000000005,1.1937,0.3778,-8.6696,4.099268591901198,9.169817883967466,11.679999351501465,11.380000114440918,11.359999656677246,11.579999923706055,9.484267163013211,9.240665016527082,9.224424460418758,9.403066705648614,9.338105836401915,0.018352376738984537,1.5,22.325000762939453,0.0,0.0,0.0,0.0,0.0,,,,,
frame_00067.png,1771858565892914223,1771858565.8929143,42.30087068219898,-83.69729546303255,238.57421875,-0.017145416257460633,-0.9996239773355913,-0.017126014177555455,-0.012831144747127007,-0.008600000000000002,-0.029060000000000006,-0.014570000000000001,1.6573,1.3838000000000001,-10.5718,4.172999977646902,9.334750569997462,11.630000114440918,11.6899995803833,11.609999656677246,11.84000015258789,9.44366732152708,9.49238744106737,9.427426765418758,9.614189288702775,9.494417704178996,0.017104595670152708,1.600000023841858,22.375,0.0,0.0,0.0,0.0,0.0,,,,,
frame_00068.png,1771858565943437504,1771858565.9434376,42.30087069838741,-83.69729851767126,238.57571411132812,-0.01711541822556789,-0.9996126743881337,-0.016989578353063844,-0.013889488433767794,0.01632,-0.057550000000000004,-0.008520000000000002,0.7445,1.8657000000000001,-9.0008,4.247744690509087,9.501950007987398,11.929999351501465,11.920000076293945,11.920000076293945,11.9399995803833,9.687269468013211,9.679149964351387,9.679149964351387,9.695389746067372,9.685239785695838,0.0192897013301865,1.7000000476837158,22.774999618530273,0.0,0.0,0.0,0.0,0.0,,,,,
frame_00069.png,1771858565992841778,1771858565.9928417,42.30087071483596,-83.69730058672475,238.57789611816406,-0.01703069028428894,-0.9996061755446966,-0.016682582031882637,-0.014803406975948999,0.009370000000000002,-0.021050000000000003,0.00068,0.41800000000000004,1.4486,-9.0204,4.285749730576761,9.586965002316381,12.170000076293945,11.899999618530273,12.039999961853027,12.069999694824219,9.882152269351387,9.662909408243065,9.776590977824307,9.800951037594453,9.780650923253303,0.02020304871146643,1.899999976158142,22.399999618530273,0.0,0.0,0.0,0.0,0.0,,,,,
frame_00070.png,1771858566043962010,1771858566.043962,42.300870757956034,-83.69730372775918,238.57925415039062,-0.016890411747208622,-0.9996121428270868,-0.016230200444452995,-0.015061822505345898,0.03849000000000001,-0.018030000000000004,-0.00676,1.1785,2.1737,-10.6624,4.363113860493711,9.760023919092802,12.300000190734863,12.460000038146973,12.289999961853027,12.139999389648438,9.987713560878468,10.117634912175694,9.979593282824307,9.857791435188904,9.985683297766844,0.023120781316181123,2.0,22.42500114440918,0.0,0.0,0.0,0.0,0.0,,,,,
frame_00071.png,1771858566093800166,1771858566.0938003,42.30087079614459,-83.69730584670688,238.57997131347656,-0.016698573711012188,-0.9996379587853702,-0.014489315271195393,-0.01533521223877965,0.08186000000000002,-0.021750000000000002,-0.012250000000000002,1.7358,1.4719,-9.8239,4.423883970722026,9.89596300946693,12.369999885559082,12.630000114440918,12.40999984741211,12.369999885559082,10.04455395847292,10.255676541527082,10.077034296297228,10.04455395847292,10.105454688692538,0.021169408073291894,1.8000000715255737,22.350000381469727,0.0,0.0,0.0,0.0,0.0,,,,,
frame_00072.png,1771858566144708788,1771858566.1447089,42.30087086333657,-83.69730907354689,238.58091735839844,-0.016618188836400483,-0.9996578177464481,-0.012677800129929381,-0.01572757457691492,0.07925,-0.022750000000000003,-0.005540000000000001,0.5659000000000001,0.17880000000000001,-9.492700000000001,4.479282918517174,10.019887131747808,12.489999771118164,12.699999809265137,12.710000038146973,12.550000190734863,10.14199497194584,10.312516939121533,10.320637217175694,10.190715865878467,10.241466248530383,0.022113933407543685,1.2000000476837158,22.575000762939453,0.0,0.0,0.0,0.0,0.0,,,,,
frame_00073.png,1771858566194645318,1771858566.1946452,42.300870908922086,-83.69731124831422,238.58103942871094,-0.016392349406157025,-0.9996709961590295,-0.01180422419302194,-0.01580666348603832,0.03792,0.009040000000000001,-0.01716,0.3627,-1.3581,-9.9457,4.53358635379168,10.141360658250761,12.559999465942383,12.519999504089355,12.819999694824219,12.779999732971191,10.198835369540292,10.166355031715984,10.409957952594452,10.377477614770147,10.28815649215522,0.014474964341696081,0.6000000238418579,22.100000381469727,0.0,0.0,0.0,0.0,0.0,,,,,
frame_00074.png,1771858566245806254,1771858566.2458062,42.300870953502496,-83.69731455731022,238.58035278320312,-0.01630621021657086,-0.9996730133433307,-0.012001690731729584,-0.015618364863782071,-0.0018900000000000002,0.009450000000000002,-0.00267,2.0860000000000003,0.31070000000000003,-9.975100000000001,4.605326582669097,10.30183924583581,12.65999984741211,12.699999809265137,13.079999923706055,13.019999504089355,10.280036601297226,10.312516939121533,10.621080535648614,10.572359641715984,10.446498429445839,0.014042073474258798,0.10000000149011612,22.399999618530273,0.0,0.0,0.0,0.0,0.0,,,,,
frame_00075.png,1771858566295578636,1771858566.2955787,42.30087097143934,-83.6973167972939,238.5801544189453,-0.01627975193452713,-0.9996700631576451,-0.011955397507583398,-0.015868300910172276,-0.033440000000000004,-0.03841000000000001,0.006600000000000001,3.6153,0.4541,-9.9209,4.681965577610674,10.47327607918042,13.09999942779541,13.34999942779541,13.449999809265137,13.019999504089355,10.637320317364598,10.840322622364598,10.921523854121533,10.572359641715984,10.742881608891677,0.025742234585718504,0.10000000149011612,22.399999618530273,0.0,0.0,0.0,0.0,0.0,,,,,
frame_00076.png,1771858566346353437,1771858566.3463533,42.300870994300205,-83.6973202124965,238.5803680419922,-0.016308794734135157,-0.999657645015346,-0.011894788884554376,-0.016647221212088007,-0.013620000000000002,0.008530000000000001,0.01137,1.4235,-0.0813,-8.7925,4.724836789602964,10.569176408134455,13.039999961853027,13.289999961853027,13.380000114440918,13.34999942779541,10.588600197824306,10.791602502824306,10.86468345652708,10.840322622364598,10.771302194885072,0.019124081096333415,0.5,22.149999618530273,0.0,0.0,0.0,0.0,0.0,,,,,
frame_00077.png,1771858566396558493,1771858566.3965585,42.30087100286949,-83.69732251345145,238.580810546875,-0.016484872978085374,-0.9996332905411854,-0.012614406193642425,-0.01738994425177833,-0.014420000000000002,0.032580000000000005,0.017220000000000003,1.4679,0.1353,-10.1126,4.786671848039892,10.707497723754356,13.329999923706055,13.399999618530273,13.639999389648438,13.34999942779541,10.824082840648614,10.880923238243065,11.075805265188903,10.840322622364598,10.905283491611295,0.01847170767248029,0.5,22.575000762939453,0.0,0.0,0.0,0.0,0.0,,,,,
frame_00078.png,1771858566455892320,1771858566.4558923,42.30087100594586,-83.69732601035246,238.579833984375,-0.016605882243074355,-0.9996051134268285,-0.01348709070825353,-0.0182197768947504,-0.02289,-0.026830000000000003,0.00021000000000000004,1.4398,0.7559,-9.897400000000001,4.855467224320131,10.861388852770675,13.59999942779541,13.899999618530273,13.75,13.679999351501465,11.043324927364598,11.286927848243065,11.165126775000001,11.108285603013211,11.15091628840522,0.026656575835666566,0.30000001192092896,22.450000762939453,0.0,0.0,0.0,0.0,0.0,,,,,
frame_00079.png,1771858566506392699,1771858566.5063925,42.30087100735077,-83.69732955990968,238.57717895507812,-0.016603988063188413,-0.9995740101444075,-0.014741973231400737,-0.01894149015969304,-0.05297,-0.03538,-0.00442,0.307,1.374,-8.5535,4.908962468446543,10.98105450416681,13.859999656677246,13.989999771118164,14.039999961853027,13.84999942779541,11.254447510418759,11.36000880194584,11.400609417824308,11.246327232364598,11.315348240638377,0.03044277180708991,0.30000001192092896,22.649999618530273,0.0,0.0,0.0,0.0,0.0,,,,,
frame_00080.png,1771858566548665265,1771858566.5486653,42.30087100723108,-83.69733194774577,238.57400512695312,-0.01660644739884909,-0.9995479784196454,-0.016375586386610477,-0.018971160019461183,-0.05657000000000001,0.015100000000000002,-0.007980000000000001,0.7186,2.5734,-8.6578,4.962158743280041,11.100051379192855,14.059999465942383,14.029999732971191,14.069999694824219,13.719999313354492,11.416849199540291,11.392489139770145,11.424969477594452,11.140765940837518,11.343768439435602,0.021956390282985166,0.6000000238418579,22.55000114440918,0.0,0.0,0.0,0.0,0.0,,,,,
frame_00081.png,1771858566598534475,1771858566.5985343,42.30087100989308,-83.69733436302718,238.5697784423828,-0.016432824155328374,-0.9995473428831462,-0.016840484884918367,-0.018747525019663706,-0.06187000000000001,0.01302,-0.006660000000000001,0.45,-0.7069000000000001,-9.099400000000001,5.005070759620635,11.196042985025784,14.059999465942383,14.139999389648438,14.00999927520752,14.25,11.416849199540291,11.481809875188905,11.376248583661823,11.571131385000001,11.461509760847754,0.02371076782904642,1.2000000476837158,22.325000762939453,0.0,0.0,0.0,0.0,0.0,,,,,
frame_00082.png,1771858566649549793,1771858566.6495497,42.30087103408474,-83.69733801547483,238.56480407714844,-0.01628168980495459,-0.9995451080075675,-0.01716485502123156,-0.018704314671642217,-0.033600000000000005,-0.020390000000000002,-0.006180000000000001,-0.5408000000000001,-1.5066000000000002,-13.503,5.057109930720603,11.312451488426147,14.289999961853027,14.34000015258789,14.40999984741211,14.559999465942383,11.603611722824308,11.644212338702776,11.701052736297227,11.822853809540293,11.69293265184115,0.03363383823606023,1.899999976158142,22.5,0.0,0.0,0.0,0.0,0.0,,,,,
frame_00083.png,1771858566699787111,1771858566.699787,42.30087106203606,-83.69734049046396,238.56289672851562,-0.01622113209789411,-0.9995504745562405,-0.016513814173860546,-0.019053021526471408,0.055290000000000006,-0.04157,-0.0029500000000000004,-0.4373,1.7767000000000002,-8.5304,5.132182304263187,11.480383883698495,14.420000076293945,14.6899995803833,14.489999771118164,14.4399995803833,11.709173014351387,11.928415101067372,11.76601341194584,11.725412796067372,11.782253580857994,0.026294390520175567,2.299999952316284,22.325000762939453,0.0,0.0,0.0,0.0,0.0,,,,,
frame_00084.png,1771858566750497900,1771858566.7504978,42.30087111986016,-83.6973442382927,238.5607452392578,-0.015909256616093714,-0.9995651219138479,-0.015332792510569354,-0.019528647702933825,0.06818,-0.04759000000000001,-0.026360000000000005,2.4561,2.0566,-9.1167,5.20667490557293,11.64701936327231,14.469999313354492,14.569999694824219,14.420000076293945,14.6899995803833,11.749772855837517,11.830974087594452,11.709173014351387,11.928415101067372,11.804583764712682,0.013528302523239099,2.200000047683716,21.475000381469727,0.0,0.0,0.0,0.0,0.0,,,,,
frame_00085.png,1771858566809569090,1771858566.8095691,42.30087118283962,-83.69734805171214,238.56069946289062,-0.015472620875583709,-0.9995699861290339,-0.013908434416675238,-0.020663888436601434,0.06947000000000002,-0.019790000000000002,-0.01144,-0.030000000000000002,1.5619,-10.9856,5.263916737666046,11.775065907154685,14.6899995803833,14.819999694824219,15.049999237060547,14.75999927520752,11.928415101067372,12.033976392594452,12.22073814148613,11.985255498661825,12.042096283452445,0.022677612032346087,1.7000000476837158,3.825000047683716,0.0,0.0,0.0,0.0,0.0,,,,,
frame_00086.png,1771858566851217030,1771858566.8512173,42.30087122173834,-83.69735060928046,238.56153869628906,-0.015363890910418898,-0.9995590893284033,-0.013432261027872911,-0.021567386507052474,0.019900000000000004,0.0035600000000000002,0.017040000000000003,0.1034,2.8871,-9.2957,5.296456485191172,11.84785536998354,14.969999313354492,14.84999942779541,14.960000038146973,14.84999942779541,12.155777465837517,12.058336452364598,12.147657962175694,12.058336452364598,12.105027083185602,0.021706182694768972,1.399999976158142,0.0,0.0,0.0,0.0,0.0,0.0,,,,,
frame_00087.png,1771858566901569953,1771858566.90157,42.30087124678363,-83.6973531895135,238.56202697753906,-0.015147068560202204,-0.9995598952833351,-0.012022980704612905,-0.022495110361523445,0.021450000000000004,0.009500000000000001,-0.0035900000000000003,0.8049000000000001,-1.6245,-9.583,5.345738226229675,11.95809566778221,15.389999389648438,14.889999389648438,15.1899995803833,15.170000076293945,12.496821400188903,12.090816790188905,12.33441971106737,12.318179929351386,12.310059457699142,0.029433097016040837,0.699999988079071,0.0,0.0,0.0,0.0,0.0,0.0,,,,,
frame_00088.png,1771858566972097571,1771858566.9720976,42.30087129203926,-83.697358413919,238.5579833984375,-0.015131640201678065,-0.9995344129431545,-0.012439632574317029,-0.023393297087122473,-0.08542000000000001,-0.00025000000000000006,0.020530000000000003,-0.45130000000000003,3.7448,-8.7911,5.405795966775855,12.092441229919583,15.299999237060547,15.630000114440918,15.25999927520752,15.229999542236328,12.42374044648613,12.691704201527081,12.391260108661823,12.36690004889168,12.468401201391679,0.031090493997347778,-0.6000000238418579,0.0,0.0,0.0,0.0,0.0,0.0,,,,,
frame_00089.png,1771858567010811203,1771858567.010811,42.30087129677786,-83.69735973599245,238.55630493164062,-0.014850975157366775,-0.9995357619647842,-0.01221102227021541,-0.023634720761408445,-0.027650000000000004,-0.04088000000000001,0.0014500000000000003,-1.627,-2.5204,-9.936300000000001,5.4697667026931835,12.23553992792249,15.309999465942383,15.229999542236328,15.34999942779541,15.149999618530273,12.431860724540291,12.36690004889168,12.464341062364598,12.301939373243066,12.391260302259909,0.012726890292928717,-0.9000000357627869,0.0,0.0,0.0,0.0,0.0,0.0,,,,,
frame_00090.png,1771858567062080467,1771858567.0620806,42.30087130943033,-83.69736371883589,238.54864501953125,-0.014707264751919635,-0.9995315471168149,-0.012902405784919677,-0.023535305537520205,-0.00799,-0.041150000000000006,-0.01667,1.2162,-1.5788,-10.1826,5.537021685288433,12.385985288689108,15.329999923706055,15.389999389648438,15.460000038146973,15.319999694824219,12.448101280648613,12.496821400188903,12.553662572175694,12.439981002594452,12.484641563901915,0.007965153592011795,-0.30000001192092896,0.0,0.0,0.0,0.0,0.0,0.0,,,,,
frame_00091.png,1771858567103400200,1771858567.1034002,42.300871313461336,-83.69736639329257,238.5429229736328,-0.014727163150684397,-0.9995177900307566,-0.013415077752162916,-0.023818769205579328,-0.02152,-0.026310000000000004,-0.00109,0.0533,0.9281,-10.4902,5.5346709039607465,12.380726731905954,15.670000076293945,15.529999732971191,15.519999504089355,15.339999198913574,12.724184539351388,12.610502969770145,12.602382691715986,12.456220784310437,12.59832274628699,0.017575383020148244,0.30000001192092896,0.0,0.0,0.0,0.0,0.0,0.0,,,,,
frame_00092.png,1771858567154307484,1771858567.1543076,42.3008713158074,-83.69736907705548,238.5374298095703,-0.014658616892829601,-0.9995068834838928,-0.01408890729992571,-0.023929427703130682,-0.035350000000000006,0.014300000000000002,-0.014220000000000002,-1.0182,-0.5369,-9.4083,5.546833874607764,12.407934567465093,15.549999237060547,15.719999313354492,15.579999923706055,15.519999504089355,12.62674275148613,12.764784380837519,12.651103585648613,12.602382691715986,12.661253352422062,0.02041587047220553,1.5,0.0,0.0,0.0,0.0,0.0,0.0,,,,,
frame_00093.png,1771858567213383320,1771858567.2133834,42.30087132482719,-83.69737310756186,238.53001403808594,-0.014594534231665846,-0.99951188395915,-0.014278211301380597,-0.0236458469297313,0.006210000000000001,0.0077800000000000005,0.0009100000000000001,-0.5056,0.0356,-10.6895,5.566867588326192,12.452748783030394,15.589999198913574,15.429999351501465,15.559999465942383,15.679999351501465,12.659223089310435,12.529301738013212,12.634863029540291,12.732304043013212,12.638922974969287,0.014950449509797858,2.299999952316284,0.0,0.0,0.0,0.0,0.0,0.0,,,,,
frame_00094.png,1771858567264253507,1771858567.2642534,42.30087135165522,-83.69737715249083,238.52462768554688,-0.01440144480044342,-0.999527828163761,-0.013596672790316362,-0.023491479368657114,0.05407000000000001,-0.0072000000000000015,-0.010780000000000001,-0.8336,-0.037200000000000004,-10.9458,5.586154361675242,12.495892137805818,15.239999771118164,15.589999198913574,15.679999351501465,15.859999656677246,12.375020326945839,12.659223089310435,12.732304043013212,12.878465950418759,12.661253352422062,0.013233245997374615,2.200000047683716,0.0,0.0,0.0,0.0,0.0,0.0,,,,,
frame_00095.png,1771858567313592342,1771858567.3135924,42.300871375958366,-83.69737986100725,238.52243041992188,-0.014141300769979936,-0.9995377413322696,-0.012608718536757234,-0.023777036858676395,0.06793,-0.030930000000000006,-0.009890000000000001,-0.9649000000000001,0.42050000000000004,-9.0084,5.5965071184560005,12.519050633558967,15.289999961853027,15.719999313354492,15.569999694824219,15.929999351501465,12.415620942824306,12.764784380837519,12.642983307594454,12.93530634801321,12.689673744817373,0.013629077495782967,1.600000023841858,0.0,0.0,0.0,0.0,0.0,0.0,,,,,
frame_00096.png,1771858567356575250,1771858567.3565753,42.300871414595875,-83.69738392378643,238.519775390625,-0.013866993617893009,-0.9995354877131006,-0.012612446221438853,-0.0240300122856147,-0.0073100000000000005,-0.05589000000000001,-0.004720000000000001,-0.7219,2.3169,-8.927,5.605243940369222,12.53859437996953,15.339999198913574,15.639999389648438,15.529999732971191,15.90999984741211,12.456220784310437,12.699823705188903,12.610502969770145,12.919066566297225,12.671403506391679,0.010592026697530978,0.800000011920929,0.0,0.0,0.0,0.0,0.0,0.0,,,,,
frame_00097.png,1771858567406159906,1771858567.4061599,42.30087143755233,-83.69738662474423,238.517578125,-0.013589253650374278,-0.9995421285813729,-0.012678242855433668,-0.023877343536138965,-0.037340000000000005,-0.020280000000000003,0.00708,-0.2716,2.0355000000000003,-8.7927,5.601161957051164,12.529463228206032,15.719999313354492,15.719999313354492,15.449999809265137,15.719999313354492,12.764784380837519,12.764784380837519,12.545542294121534,12.764784380837519,12.709973859158522,0.014406892591067184,0.4000000059604645,0.0,0.0,0.0,0.0,0.0,0.0,,,,,
frame_00098.png,1771858567457528715,1771858567.4575288,42.300871452888565,-83.69738933600482,238.51422119140625,-0.013278614105790398,-0.9995592763215999,-0.012119180644654972,-0.023623229825146044,-0.020800000000000003,-0.00803,0.018390000000000004,-0.7313000000000001,0.9386,-8.6883,5.60295934790426,12.533483883700956,15.630000114440918,15.84999942779541,15.519999504089355,15.75999927520752,12.691704201527081,12.870345672364598,12.602382691715986,12.797264718661824,12.740424321067373,0.016511006778851804,0.0,0.0,0.0,0.0,0.0,0.0,0.0,,,,,
frame_00099.png,1771858567507395321,1771858567.5073953,42.300871478612784,-83.69739339929751,238.5077667236328,-0.01311676022104713,-0.999572140051395,-0.011724883578970842,-0.023366954004263283,-0.027880000000000005,0.02629,0.017350000000000004,-0.5954,-0.5611,-10.254000000000001,5.603243500759679,12.534119516589357,15.639999389648438,15.579999923706055,15.719999313354492,15.969999313354492,12.699823705188903,12.651103585648613,12.764784380837519,12.967786685837519,12.770874589378138,0.018888847555301184,-0.800000011920929,0.0,0.0,0.0,0.0,0.0,0.0,,,,,
frame_00100.png,1771858567558361954,1771858567.5583618,42.30087148685333,-83.6973961158402,238.50233459472656,-0.01304558886660484,-0.9995696946065413,-0.012417981694597676,-0.02315236415448466,-0.06493000000000002,0.022510000000000002,0.0067,-0.0738,-0.8347,-8.7743,5.613500809118233,12.557064499948941,15.75,15.769999504089355,15.65999984741211,15.619999885559082,12.789145215000001,12.805384996715986,12.716064261297227,12.68358392347292,12.748544599121534,0.015248794746046802,-1.399999976158142,0.0,0.0,0.0,0.0,0.0,0.0,,,,,
frame_00101.png,1771858567608063852,1771858567.6080637,42.3008714853226,-83.69740019253057,238.49258422851562,-0.013096575365802554,-0.9995607558737603,-0.013203784977846918,-0.023074555099152,-0.023840000000000004,0.00058,0.013550000000000001,1.2705,0.5924,-7.7483,5.630178045979952,12.594370478174396,15.719999313354492,15.539999961853027,15.619999885559082,15.519999504089355,12.764784380837519,12.618623247824306,12.68358392347292,12.602382691715986,12.667343560962683,0.0057941032395979865,-1.5,0.0,0.0,0.0,0.0,0.0,0.0,,,,,
frame_00102.png,1771858567659153829,1771858567.659154,42.30087148031491,-83.69740290021865,238.48585510253906,-0.0130351210315377,-0.9995519692568098,-0.014114716866859287,-0.022950406146626193,-0.028530000000000003,0.014210000000000002,-0.008380000000000002,0.3441,-0.2503,-12.2026,5.610787417635977,12.550994806006623,15.329999923706055,15.630000114440918,15.559999465942383,15.449999809265137,12.448101280648613,12.691704201527081,12.634863029540291,12.545542294121534,12.58005270145938,0.0023151866367477673,-1.0,0.0,0.0,0.0,0.0,0.0,0.0,,,,,
frame_00103.png,1771858567709204070,1771858567.709204,42.30087146799151,-83.69740697367367,238.478515625,-0.012988584524587954,-0.9995418723999938,-0.014676740803283742,-0.02306372195798824,-0.0101,-0.022860000000000005,-0.01042,-1.3759000000000001,-0.048400000000000006,-11.9108,5.609897842124106,12.549004878961098,15.369999885559082,15.59999942779541,15.670000076293945,15.559999465942383,12.480581618472918,12.667343367364598,12.724184539351388,12.634863029540291,12.626743138682299,0.006194774842388685,-0.30000001192092896,0.0,0.0,0.0,0.0,0.0,0.0,,,,,
frame_00104.png,1771858567759866365,1771858567.7598665,42.30087147423066,-83.69740969996171,238.4764862060547,-0.012915725260188082,-0.9995342343954052,-0.014326527882552106,-0.02364844416499495,0.044500000000000005,-0.05616000000000001,-0.018420000000000002,-3.5381,2.2647,-10.8651,5.61740303402544,12.565793542932868,15.489999771118164,15.549999237060547,15.799999237060547,15.75999927520752,12.578022631945839,12.62674275148613,12.82974505648613,12.797264718661824,12.70794378964498,0.011312476703236918,0.0,0.0,0.0,0.0,0.0,0.0,0.0,,,,,
frame_00105.png,1771858567809747506,1771858567.8097475,42.30087149459259,-83.69741377090807,238.476318359375,-0.012821008955591684,-0.9995393304456202,-0.013160708768564903,-0.024156662981280726,0.011840000000000002,-0.035410000000000004,-0.011130000000000001,-2.1419,0.617,-9.4929,5.622474612934626,12.577138360657983,15.59999942779541,15.799999237060547,15.699999809265137,15.579999923706055,12.667343367364598,12.82974505648613,12.748544599121534,12.651103585648613,12.724184152155217,0.011691514180777563,-0.6000000238418579,0.0,0.0,0.0,0.0,0.0,0.0,,,,,
frame_00106.png,1771858567861025906,1771858567.8610258,42.30087151676521,-83.69741650140698,238.4767303466797,-0.01264512420128805,-0.9995275702869402,-0.012395967108683315,-0.02512124737469017,-0.023730000000000005,-0.044050000000000006,0.0020100000000000005,-1.4017000000000002,-1.5185000000000002,-9.509400000000001,5.624910810657385,12.58258798879193,15.339999198913574,15.479999542236328,15.739999771118164,15.739999771118164,12.456220784310437,12.56990235389168,12.781024936945839,12.781024936945839,12.64704325302345,0.005122576078063847,-1.8000000715255737,0.0,0.0,0.0,0.0,0.0,0.0,,,,,
frame_00107.png,1771858567910855998,1771858567.910856,42.30087154248894,-83.69742059038188,238.4771728515625,-0.0125832908544809,-0.9995005604674667,-0.012645683937222856,-0.02608403907087877,-0.02959,-0.0158,0.0026400000000000004,-0.8062,-1.4153,-10.5411,5.6196890043669585,12.570907121428625,15.639999389648438,15.449999809265137,15.630000114440918,15.719999313354492,12.699823705188903,12.545542294121534,12.691704201527081,12.764784380837519,12.675463645418759,0.008317341221295352,-2.700000047683716,0.0,0.0,0.0,0.0,0.0,0.0,,,,,
frame_00108.png,1771858567961905988,1771858567.961906,42.300871556312536,-83.69742330565133,238.4766082763672,-0.012547985223442082,-0.9994764622936934,-0.012679205510164132,-0.026992353275448498,0.029490000000000002,-0.04590000000000001,-0.007450000000000001,-0.28550000000000003,-0.4535,-8.130600000000001,5.631948179611799,12.598330160900819,15.710000038146973,15.989999771118164,15.579999923706055,15.50999927520752,12.756664877175693,12.98402724194584,12.651103585648613,12.594262413661824,12.746514529607992,0.011762222994208158,-3.0,0.0,0.0,0.0,0.0,0.0,0.0,,,,,
frame_00109.png,1771858568011934061,1771858568.011934,42.30087157141017,-83.69742738086345,238.47146606445312,-0.012585117901118603,-0.999472486358915,-0.012584436831715156,-0.027166077533797114,0.034300000000000004,-0.009840000000000002,-0.0038800000000000006,-0.6326,1.9914,-7.869000000000001,5.608698059921924,12.546321038161748,15.859999656677246,15.729999542236328,15.559999465942383,15.609999656677246,12.878465950418759,12.772904658891678,12.634863029540291,12.675463645418759,12.740424321067373,0.015470932260957342,-2.9000000953674316,0.0,0.0,0.0,0.0,0.0,0.0,,,,,
frame_00110.png,1771858568062576256,1771858568.062576,42.30087156904139,-83.6974300947168,238.4661102294922,-0.012659526931399934,-0.9994736968722167,-0.013159673603786488,-0.026812098558284352,0.011170000000000003,0.027070000000000004,0.01997,-0.3301,3.7033,-8.5505,5.6055626486413415,12.539307311251763,15.949999809265137,15.75,15.639999389648438,15.519999504089355,12.951546904121534,12.789145215000001,12.699823705188903,12.602382691715986,12.760724629006607,0.017657858784285593,-2.9000000953674316,0.0,0.0,0.0,0.0,0.0,0.0,,,,,
frame_00111.png,1771858568112590339,1771858568.1125903,42.30087157183355,-83.69743416459626,238.4565887451172,-0.012687031440317853,-0.9994759671240543,-0.013542033725908606,-0.026522513026388184,-0.019880000000000002,0.023330000000000004,0.015060000000000002,0.137,0.6629,-9.339500000000001,5.614018111674125,12.558221674728317,15.789999961853027,15.630000114440918,15.679999351501465,15.699999809265137,12.821625552824306,12.691704201527081,12.732304043013212,12.748544599121534,12.748544599121534,0.01515524485255861,-2.9000000953674316,0.0,0.0,0.0,0.0,0.0,0.0,,,,,
frame_00112.png,1771858568163852274,1771858568.1638522,42.300871567242986,-83.6974368821924,238.44969177246094,-0.012758793578592886,-0.9994713977601697,-0.01422650733085364,-0.0263010405671923,-0.04329000000000001,0.028370000000000003,0.009600000000000001,0.8612000000000001,-1.5593000000000001,-11.3864,5.629214035384853,12.592214044313796,15.699999809265137,15.630000114440918,15.819999694824219,15.670000076293945,12.748544599121534,12.691704201527081,12.845985612594452,12.724184539351388,12.752604738148612,0.012737290937906475,-2.799999952316284,0.0,0.0,0.0,0.0,0.0,0.0,,,,,
frame_00113.png,1771858568213870550,1771858568.2138705,42.300871558559585,-83.69744096663636,238.44107055664062,-0.012819805556534836,-0.9994383366100879,-0.015372601315874066,-0.02687651443800948,-0.04458000000000001,-0.013840000000000002,-0.006060000000000001,1.3372000000000002,-0.7859,-10.5206,5.645351523363676,12.628312636673142,15.670000076293945,15.75,16.139999389648438,15.559999465942383,12.724184539351388,12.789145215000001,13.105828315188905,12.634863029540291,12.813505274770145,0.01466487593593434,-2.200000047683716,0.0,0.0,0.0,0.0,0.0,0.0,,,,,
frame_00114.png,1771858568264606827,1771858568.2646067,42.30087155411619,-83.69744368892071,238.43736267089844,-0.012915890178481104,-0.999411415597782,-0.015609283818450437,-0.027683070863070675,-0.01922,-0.042960000000000005,0.008230000000000001,0.12300000000000001,0.7163,-9.9288,5.639136089591495,12.614409084250799,15.670000076293945,15.699999809265137,15.90999984741211,15.789999961853027,12.724184539351388,12.748544599121534,12.919066566297225,12.821625552824306,12.803355314398614,0.014978603348429228,-1.3000000715255737,0.0,0.0,0.0,0.0,0.0,0.0,,,,,
frame_00115.png,1771858568323302002,1771858568.3233018,42.30087156749637,-83.69744777705785,238.43238830566406,-0.012892475572393813,-0.9994122174558089,-0.014747030828265787,-0.028134120839802462,-0.035640000000000005,-0.025450000000000004,0.018290000000000004,-0.8629,0.733,-10.728100000000001,5.623943083811779,12.580423241901922,15.819999694824219,16.31999969482422,15.75999927520752,15.670000076293945,12.845985612594452,13.251990222594452,12.797264718661824,12.724184539351388,12.904856273300528,0.02578872150485434,-1.0,0.0,0.0,0.0,0.0,0.0,0.0,,,,,
frame_00116.png,1771858568365478190,1771858568.365478,42.30087159544841,-83.69745049814928,238.4293212890625,-0.012795011763151065,-0.9994340134429529,-0.013693279425289875,-0.0279362586233939,0.03411,-0.0073500000000000015,-0.01429,-1.4283000000000001,-1.4543000000000001,-9.2087,5.615321503324529,12.561137283646774,15.619999885559082,15.579999923706055,15.75,15.84999942779541,12.68358392347292,12.651103585648613,12.789145215000001,12.870345672364598,12.748544599121534,0.014919613665773986,-1.399999976158142,0.0,0.0,0.0,0.0,0.0,0.0,,,,,
frame_00117.png,1771858568415280966,1771858568.4152808,42.30087162348348,-83.69745456003416,238.42430114746094,-0.012847300646837256,-0.9994607866251259,-0.013665183141651823,-0.026950800256752012,-0.005170000000000001,0.05625,0.0053100000000000005,-2.3896,0.39890000000000003,-9.7942,5.581222146374226,12.484859068110362,15.670000076293945,15.679999351501465,15.729999542236328,15.799999237060547,12.724184539351388,12.732304043013212,12.772904658891678,12.82974505648613,12.764784574435602,0.022421198733451775,-2.200000047683716,0.0,0.0,0.0,0.0,0.0,0.0,,,,,
frame_00118.png,1771858568466382232,1771858568.4663823,42.30087163838978,-83.69745727336277,238.42001342773438,-0.012786957124157783,-0.9994843983272457,-0.014205783757908591,-0.025799746815656322,0.015550000000000001,0.06435,0.0,-1.2017,-0.1723,-10.288,5.602328548033174,12.53207282223733,15.729999542236328,15.65999984741211,15.559999465942383,15.4399995803833,12.772904658891678,12.716064261297227,12.634863029540291,12.53742201606737,12.66531349144914,0.01063197374462934,-2.6000001430511475,0.0,0.0,0.0,0.0,0.0,0.0,,,,,
frame_00119.png,1771858568516613668,1771858568.5166137,42.30087165273749,-83.69746135516107,238.41375732421875,-0.0126762439788769,-0.9994919716715371,-0.014383136414910635,-0.02546049468492976,0.023970000000000005,0.00406,-0.006620000000000001,0.0703,-0.1285,-11.7055,5.6345789444801975,12.604215024065534,15.75,15.719999313354492,15.719999313354492,15.529999732971191,12.789145215000001,12.764784380837519,12.764784380837519,12.610502969770145,12.732304236611297,0.010162410931676387,-2.6000001430511475,0.0,0.0,0.0,0.0,0.0,0.0,,,,,
frame_00120.png,1771858568567783811,1771858568.5677838,42.30087165865099,-83.69746408224817,238.41110229492188,-0.012725920060512486,-0.9994687239100626,-0.014629390911070518,-0.026197362572901912,-0.005600000000000001,-0.08446000000000001,0.00581,0.0558,1.4021000000000001,-8.7687,5.6613189860713025,12.66403089270234,15.789999961853027,15.75,15.84999942779541,15.639999389648438,12.821625552824306,12.789145215000001,12.870345672364598,12.699823705188903,12.795235036344453,0.010360377730736456,-2.5,2.125,0.0,0.0,0.0,0.0,0.0,,,,,
frame_00121.png,1771858568617885919,1771858568.617886,42.300871663286976,-83.69746818434649,238.40538024902344,-0.012863965648317155,-0.9994458671676616,-0.014704126473670765,-0.026949316390706347,0.010110000000000001,-0.05131000000000001,0.0025800000000000003,-0.4974,1.4029,-8.0158,5.657999723800607,12.656605902158532,15.90999984741211,15.75999927520752,15.84999942779541,15.789999961853027,12.919066566297225,12.797264718661824,12.870345672364598,12.821625552824306,12.852075627536989,0.015444087213391106,-2.5,2.5250000953674316,0.0,0.0,0.0,0.0,0.0,,,,,
frame_00122.png,1771858568668441514,1771858568.6684415,42.30087166233342,-83.69747227448089,238.3971710205078,-0.013004646772212802,-0.9994300082463189,-0.015083526054474463,-0.027258485300117895,-0.0024300000000000007,0.0037500000000000003,0.005920000000000001,-0.8315,1.3737000000000001,-9.0523,5.637852260431803,12.611537235450317,15.90999984741211,15.84999942779541,15.84999942779541,15.789999961853027,12.919066566297225,12.870345672364598,12.870345672364598,12.821625552824306,12.870345865962683,0.020521576845118423,-2.6000001430511475,2.7250001430511475,0.0,0.0,0.0,0.0,0.0,,,,,
frame_00123.png,1771858568727270122,1771858568.7272701,42.30087166618151,-83.69747499659631,238.38925170898438,-0.013066621565767045,-0.9994405626449452,-0.01568822445015131,-0.02648971034976031,-0.01716,0.03858000000000001,-0.009290000000000001,0.6298,0.2376,-9.3109,5.636218548584541,12.607882720070704,15.75,15.84999942779541,15.789999961853027,15.6899995803833,12.789145215000001,12.870345672364598,12.821625552824306,12.74042432106737,12.80538519031407,0.015664999003279,-2.6000001430511475,3.8500001430511475,0.0,0.0,0.0,0.0,0.0,,,,,
frame_00124.png,1771858568779013160,1771858568.7790132,42.30087167400267,-83.69747908282388,238.37745666503906,-0.01308682266505884,-0.999455878413543,-0.015900382231330168,-0.02576548121118321,-0.0016800000000000003,0.013760000000000003,-0.0028500000000000005,0.4681,0.8766,-10.324300000000001,5.641357204240784,12.61937758445438,15.829999923706055,15.819999694824219,15.719999313354492,15.829999923706055,12.854105890648613,12.845985612594452,12.764784380837519,12.854105890648613,12.829745443682299,0.016670224646187604,-2.5,5.099999904632568,0.0,0.0,0.0,0.0,0.0,,,,,
frame_00125.png,1771858568828337050,1771858568.8283372,42.3008716864051,-83.6974818081986,238.37078857421875,-0.013079101448062957,-0.9994699621773994,-0.015463501776266039,-0.025487485620095163,0.020920000000000005,0.004940000000000001,0.00502,-0.659,1.3566,-11.3307,5.646376051759785,12.630604445223534,15.829999923706055,15.779999732971191,15.679999351501465,15.149999618530273,12.854105890648613,12.813505274770145,12.732304043013212,12.301939373243066,12.675463645418759,0.0035516273500425253,-2.299999952316284,6.724999904632568,0.0,0.0,0.0,0.0,0.0,,,,,
frame_00126.png,1771858568879126687,1771858568.8791268,42.30087171455426,-83.69748590714482,238.36521911621094,-0.013025147602730491,-0.9994750908736868,-0.014698173923654304,-0.025765324299777632,0.026900000000000004,-0.00999,4e-05,-0.3287,0.8386,-11.4311,5.655134562461115,12.650196708151768,15.679999351501465,15.65999984741211,15.779999732971191,15.729999542236328,12.732304043013212,12.716064261297227,12.813505274770145,12.772904658891678,12.758694559493065,0.008576771875126803,-2.200000047683716,7.425000190734863,0.0,0.0,0.0,0.0,0.0,,,,,
frame_00127.png,1771858568920556589,1771858568.9205565,42.30087173390147,-83.6974886398273,238.36524963378906,-0.012944975926241942,-0.9994675109274922,-0.014130209663359289,-0.026409456138700747,0.011980000000000001,-0.021590000000000005,-0.003980000000000001,-0.4692,-0.39880000000000004,-11.176300000000001,5.656644663538414,12.653574713655622,15.75,15.619999885559082,15.869999885559082,15.899999618530273,12.789145215000001,12.68358392347292,12.88658622847292,12.910946288243066,12.817565413797228,0.01296002938716029,-2.200000047683716,7.450000286102295,0.0,0.0,0.0,0.0,0.0,,,,,
frame_00128.png,1771858568971421659,1771858568.9714217,42.30087174540698,-83.69749138234748,238.36767578125,-0.013081013934197028,-0.9994281907637358,-0.014343681925410509,-0.027684605288894017,-0.00525,-0.058900000000000015,0.020220000000000002,0.2576,1.7478,-8.036100000000001,5.667711138582855,12.678329754341533,15.859999656677246,15.679999351501465,15.889999389648438,15.859999656677246,12.878465950418759,12.732304043013212,12.902826010188903,12.878465950418759,12.848015488509908,0.013383918659338275,-2.4000000953674316,7.950000286102295,0.0,0.0,0.0,0.0,0.0,,,,,
frame_00129.png,1771858569030173691,1771858569.0301738,42.300871754361616,-83.69749548825563,238.3686065673828,-0.013245117016348285,-0.9994047406800057,-0.014789460523332063,-0.028213525816211314,-0.00464,0.015880000000000002,0.0033000000000000004,-1.0761,1.5069000000000001,-7.556900000000001,5.63471205637068,12.60451278737783,15.949999809265137,15.969999313354492,15.899999618530273,15.859999656677246,12.951546904121534,12.967786685837519,12.910946288243066,12.878465950418759,12.92718645715522,0.02559985262584007,-2.799999952316284,7.675000190734863,0.0,0.0,0.0,0.0,0.0,,,,,
frame_00130.png,1771858569081294260,1771858569.0812943,42.300871754390094,-83.69749958210456,238.36260986328125,-0.013270045016985643,-0.9994234064949273,-0.01497292022183767,-0.027433047868451625,-0.016620000000000003,0.05209000000000001,0.00395,-1.6033000000000002,0.3139,-8.6561,5.627642596941832,12.588698830803063,16.029998779296875,15.989999771118164,15.889999389648438,15.899999618530273,13.016506805377809,12.98402724194584,12.902826010188903,12.910946288243066,12.953576586438905,0.02898454880364831,-2.200000047683716,7.625,0.0,0.0,0.0,0.0,0.0,,,,,
frame_00131.png,1771858569122803626,1771858569.1228037,42.300871758952255,-83.69750232140467,238.35546875,-0.013206156930973656,-0.9994467092770828,-0.014906216126242773,-0.026639772054631538,0.026200000000000005,0.023410000000000004,-0.0020100000000000005,-0.9281,-0.5709000000000001,-9.8762,5.66005081473554,12.66119406951452,15.969999313354492,15.449999809265137,15.869999885559082,15.90999984741211,12.967786685837519,12.545542294121534,12.88658622847292,12.919066566297225,12.829745443682299,0.013312439035557833,-1.600000023841858,7.75,0.0,0.0,0.0,0.0,0.0,,,,,
frame_00132.png,1771858569173261227,1771858569.1732614,42.300871765544976,-83.69750506192551,238.3473358154297,-0.013209574773625332,-0.999470463609117,-0.014944013335551946,-0.025709452983360994,0.01701,0.01071,-0.0018900000000000002,0.33740000000000003,0.5789000000000001,-9.6056,5.688295697797673,12.724376178231529,15.90999984741211,16.600000381469727,15.920000076293945,15.979999542236328,12.919066566297225,13.479353361756935,12.927186844351388,12.975906963891678,13.075378434074306,0.027585026639126035,-1.5,8.300000190734863,0.0,0.0,0.0,0.0,0.0,,,,,
frame_00133.png,1771858569223265910,1771858569.223266,42.30087177497283,-83.69750781438225,238.3390350341797,-0.013207662848018886,-0.9994785831285307,-0.01491137756641071,-0.02541201150144367,0.00839,-0.00288,-0.0013800000000000002,0.0514,0.9756,-10.323,5.697548611368456,12.745074390714555,15.920000076293945,16.369998931884766,15.9399995803833,16.020000457763672,12.927186844351388,13.292590064080583,12.943426626067373,13.008388076108323,13.042897902651918,0.02336773429540299,-1.3000000715255737,8.350000381469727,0.0,0.0,0.0,0.0,0.0,,,,,
frame_00134.png,1771858569283358395,1771858569.2833586,42.30087178160755,-83.69751332349186,238.32431030273438,-0.013178767346999742,-0.9994776639124692,-0.01634035893657366,-0.024570553536919455,-0.04576,0.022830000000000003,-0.00846,0.3748,0.9825,-10.9018,5.706012500252536,12.764007602314908,16.0,16.020000457763672,16.020000457763672,15.979999542236328,12.99214752,13.008388076108323,13.008388076108323,12.975906963891678,12.996207659027082,0.018191783015709034,-0.20000000298023224,8.52500057220459,0.0,0.0,0.0,0.0,0.0,,,,,
frame_00135.png,1771858569333001001,1771858569.333001,42.30087179565681,-83.69751748135896,238.31761169433594,-0.013131958349530348,-0.9994805780699448,-0.01633832858886285,-0.02447825054609919,0.03262,-0.024700000000000003,-0.007020000000000001,1.3923,2.6278,-10.9097,5.749993048099271,12.862389449015184,16.0,15.979999542236328,16.049999237060547,15.989999771118164,12.99214752,12.975906963891678,13.03274736148613,12.98402724194584,12.996207271830912,0.010403807422109506,0.800000011920929,8.425000190734863,0.0,0.0,0.0,0.0,0.0,,,,,
frame_00136.png,1771858569374971213,1771858569.3749712,42.30087181287377,-83.69752027393845,238.31558227539062,-0.013134877956423763,-0.999490736436359,-0.014278928752265146,-0.025334856476057398,0.054630000000000005,-0.03164000000000001,-0.0041,0.5777,0.8165,-9.303700000000001,5.768461691805246,12.903702696866828,16.049999237060547,16.170000076293945,16.209999084472656,16.079999923706055,13.03274736148613,13.130189149351388,13.162668712783356,13.057108195648613,13.095678354817373,0.01487756363118618,1.100000023841858,8.52500057220459,0.0,0.0,0.0,0.0,0.0,,,,,
frame_00137.png,1771858569424731427,1771858569.4247315,42.300871837747664,-83.69752306596179,238.31407165527344,-0.01311046160994156,-0.9994863517191259,-0.012872321447774244,-0.026257415411859737,0.05643000000000001,-0.03139000000000001,-0.0101,-0.2624,-0.6935,-10.0968,5.768462354774638,12.903704179889578,16.09000015258789,16.190000534057617,16.209999084472656,16.18000030517578,13.065228473702776,13.14642970545971,13.162668712783356,13.138309427405549,13.128159079837847,0.017394609859243477,1.100000023841858,8.65000057220459,0.0,0.0,0.0,0.0,0.0,,,,,
frame_00138.png,1771858569476581107,1771858569.476581,42.300871876801516,-83.69752725951257,238.31141662597656,-0.01293296164311003,-0.999475463691756,-0.012032449051258502,-0.027143252404900054,0.025890000000000003,-0.0105,-0.010830000000000001,-0.44430000000000003,-0.29910000000000003,-9.062800000000001,5.773338920269765,12.914612764308249,16.270000457763672,16.329999923706055,16.229999542236328,16.049999237060547,13.211390381108323,13.260110500648613,13.178909268891678,13.03274736148613,13.170789378033687,0.019836182346359352,0.800000011920929,8.40000057220459,0.0,0.0,0.0,0.0,0.0,,,,,
frame_00139.png,1771858569525945553,1771858569.5259457,42.30087189984201,-83.69753005252153,238.30812072753906,-0.012758155633619594,-0.9994790686422592,-0.011735392097808588,-0.02722317731531167,0.020470000000000002,0.007060000000000001,-0.011220000000000003,-0.6056,0.025400000000000002,-9.5458,5.777684886000728,12.924334428890468,16.18000030517578,16.260000228881836,16.209999084472656,16.15999984741211,13.138309427405549,13.203270103054162,13.162668712783356,13.122068871297225,13.156579278635073,0.01796957909302126,0.5,8.324999809265137,0.0,0.0,0.0,0.0,0.0,,,,,
frame_00140.png,1771858569576886936,1771858569.5768871,42.300871920836485,-83.69753425532276,238.30198669433594,-0.0125309996575374,-0.9994917281369666,-0.011433007608445381,-0.026991587029815873,-0.0019500000000000003,0.015050000000000001,-0.00931,0.077,-0.9518000000000001,-9.355500000000001,5.792701136975149,12.957924881345189,16.3799991607666,16.43000030517578,16.399999618530273,16.25,13.300710342134742,13.341311732405547,13.316950898243064,13.195149825,13.28853069944584,0.02551379338343021,0.30000001192092896,8.27500057220459,0.0,0.0,0.0,0.0,0.0,,,,,
frame_00141.png,1771858569627282755,1771858569.6272826,42.30087192870058,-83.69753706777574,238.296875,-0.012486431826164934,-0.9995026783017653,-0.011149603156690991,-0.026723986179019617,0.00515,0.00319,0.008940000000000002,-0.2985,2.0798,-7.732,5.812340974183695,13.001858018790477,16.260000228881836,16.309999465942383,16.3799991607666,15.819999694824219,13.203270103054162,13.24386994454029,13.300710342134742,12.845985612594452,13.148459000580912,0.01127538706995301,0.10000000149011612,7.550000190734863,0.0,0.0,0.0,0.0,0.0,,,,,
frame_00142.png,1771858569678389572,1771858569.6783895,42.30087193230417,-83.69754128711415,238.28738403320312,-0.012367247491519628,-0.9995264830523156,-0.010819023023285003,-0.026015564713720716,0.021670000000000002,0.041060000000000006,-0.00037000000000000005,-0.0815,1.9362000000000001,-8.8043,5.816428393320972,13.011001330155416,16.350000381469727,16.229999542236328,16.239999771118164,16.56999969482422,13.276351056756935,13.178909268891678,13.18702954694584,13.454992527594452,13.274320600047226,0.020238201750200274,-0.30000001192092896,8.449999809265137,0.0,0.0,0.0,0.0,0.0,,,,,
frame_00143.png,1771858569736623924,1771858569.7366238,42.300871925659834,-83.69754411227458,238.28036499023438,-0.012100678633447604,-0.9995332887913152,-0.011354178430644417,-0.025648797375165004,-0.05337000000000001,-0.011590000000000001,-0.00461,-2.1296,-2.8525,-11.0759,5.840244870177769,13.06427735989546,16.5,16.469999313354492,16.389999389648438,16.770000457763672,13.39815213,13.373791295837517,13.308830620188905,13.617394991108322,13.424542259283685,0.027576335794443664,-1.2000000476837158,8.574999809265137,0.0,0.0,0.0,0.0,0.0,,,,,
frame_00144.png,1771858569788174146,1771858569.7881742,42.300871898544294,-83.69754835079411,238.27264404296875,-0.012185273816589348,-0.9995048440856724,-0.01426282355246452,-0.025261781718672688,-0.06703,0.013170000000000001,-0.0037,-1.8172000000000001,-0.45070000000000005,-11.9299,5.833269669952815,13.04867425550425,16.559999465942383,16.510000228881836,16.44999885559082,16.399999618530273,13.446872249540291,13.406272408054162,13.357550739729195,13.316950898243064,13.381911573891678,0.025538021094124518,-1.100000023841858,8.375,0.0,0.0,0.0,0.0,0.0,,,,,
frame_00145.png,1771858569837574938,1771858569.837575,42.300871870384526,-83.69755260493397,238.2677001953125,-0.012244727493154861,-0.9995123740787244,-0.014945477787740335,-0.02452984724425415,0.040350000000000004,0.039240000000000004,0.0009700000000000002,-0.0892,3.2323,-7.697,5.854719670578646,13.096656619904198,16.489999771118164,16.579999923706055,16.579999923706055,16.43000030517578,13.39003185194584,13.463112805648613,13.463112805648613,13.341311732405547,13.414392298912155,0.02426082382927137,-1.100000023841858,8.25,0.0,0.0,0.0,0.0,0.0,,,,,
frame_00146.png,1771858569888408173,1771858569.888408,42.30087187058584,-83.69755543941945,238.2616729736328,-0.01210739619196588,-0.9995655026367017,-0.012963569078784539,-0.023540662115322554,0.07299000000000001,0.04474,0.0134,0.124,4.2087,-9.1835,5.877106626512443,13.146734897110745,16.53999900817871,16.59000015258789,16.549999237060547,16.56999969482422,13.43063169343197,13.471233083702774,13.43875197148613,13.454992527594452,13.448902319053833,0.022984218082125828,-1.399999976158142,7.800000190734863,0.0,0.0,0.0,0.0,0.0,,,,,
frame_00147.png,1771858569929843090,1771858569.9298432,42.300871884899955,-83.69755828675466,238.2554473876953,-0.011873367406087909,-0.9995980624683305,-0.011697325032358045,-0.022932711202267447,0.006530000000000001,0.03821000000000001,0.00203,0.16570000000000001,0.2381,-9.4346,5.890924246011118,13.177644082872112,16.60999870300293,16.68000030517578,16.6299991607666,16.59000015258789,13.487472091026422,13.544314037405549,13.503712647134742,13.471233083702774,13.501682964817373,0.02459004659007577,-2.0,7.75,0.0,0.0,0.0,0.0,0.0,,,,,
frame_00148.png,1771858569989538775,1771858569.989539,42.30087191811539,-83.69756257344524,238.24656677246094,-0.011677529273713017,-0.9996065345155338,-0.011505093360034434,-0.02276058634313852,0.0026600000000000005,0.0033900000000000007,-0.004020000000000001,-0.5063,0.21980000000000002,-10.1167,5.909619843446007,13.219465012598112,16.719999313354492,16.75,16.690000534057617,16.65999984741211,13.576793600837517,13.601154435,13.55243431545971,13.528073481297227,13.564613958148612,0.026109146264358972,-2.9000000953674316,8.050000190734863,0.0,0.0,0.0,0.0,0.0,,,,,
frame_00149.png,1771858570031549195,1771858570.0315492,42.300871940852076,-83.69756544379247,238.2410125732422,-0.011492276912551613,-0.9996186781974834,-0.010974875951182819,-0.022582689563857016,0.04885000000000001,0.025920000000000002,-0.010780000000000001,-0.5498000000000001,-1.0581,-10.4191,5.922177264973737,13.24755521111035,16.739999771118164,16.690000534057617,16.719999313354492,16.670000076293945,13.593034156945839,13.55243431545971,13.576793600837517,13.536193759351388,13.564613958148612,0.023933378044905487,-3.5,8.300000190734863,0.0,0.0,0.0,0.0,0.0,,,,,
frame_00150.png,1771858570082259314,1771858570.0822592,42.30087196344345,-83.69756974811,238.23374938964844,-0.011441717046156374,-0.9996384302819042,-0.009960903976562917,-0.02220081544754646,0.054360000000000006,0.01634,-0.008100000000000001,-0.3889,-0.9602,-10.4204,5.929100600405171,13.263042297070344,16.690000534057617,16.68000030517578,16.78999900817871,16.75,13.55243431545971,13.544314037405549,13.63363399843197,13.601154435,13.582884196574307,0.02411527403291269,-4.400000095367432,8.125,0.0,0.0,0.0,0.0,0.0,,,,,
frame_00151.png,1771858570132743087,1771858570.1327431,42.3008719677074,-83.69757406365747,238.22781372070312,-0.011578282872851453,-0.9996551990225306,-0.00941355002705948,-0.021605821179230093,0.012870000000000003,0.016520000000000003,0.00434,-0.0112,0.35950000000000004,-10.771,5.948389941067685,13.306191394771949,16.719999313354492,16.75,16.6299991607666,16.719999313354492,13.576793600837517,13.601154435,13.503712647134742,13.576793600837517,13.564613570952444,0.01942119788552196,-5.200000286102295,7.525000095367432,0.0,0.0,0.0,0.0,0.0,,,,,
frame_00152.png,1771858570183580602,1771858570.1835806,42.300871964255016,-83.69757695127235,238.22438049316406,-0.011798420401427034,-0.999649054927122,-0.009857929686170268,-0.02157279494283903,-0.0316,-0.00525,0.011870000000000002,0.5116,0.1019,-9.74,5.974124119990249,13.363757208970988,16.709999084472656,16.68000030517578,16.799999237060547,16.760000228881836,13.568673322783358,13.544314037405549,13.641754276486129,13.609274713054162,13.5910040874323,0.017004714685235577,-5.900000095367432,7.724999904632568,0.0,0.0,0.0,0.0,0.0,,,,,
frame_00153.png,1771858570232952100,1771858570.232952,42.30087195038852,-83.6975798526926,238.22035217285156,-0.011979725241928807,-0.9996247450364468,-0.011253755169507707,-0.021913655298261968,-0.10779000000000002,-0.058370000000000005,0.008310000000000001,0.3173,-2.4197,-10.5463,6.008230533252187,13.440051209053147,16.729999542236328,16.65999984741211,16.84000015258789,16.889999389648438,13.58491387889168,13.528073481297227,13.674235388702774,13.714835230188905,13.625514494770146,0.013799299037794721,-6.0,8.100000381469727,0.0,0.0,0.0,0.0,0.0,,,,,
frame_00154.png,1771858570284058722,1771858570.2840586,42.300871916230086,-83.6975842167807,238.21844482421875,-0.012341418588415698,-0.9995680534897723,-0.01309352467392509,-0.02323694131133996,-0.06932,-0.049080000000000006,0.01729,-0.7512000000000001,-0.23950000000000002,-10.327200000000001,6.0022103750357125,13.426584476332387,16.81999969482422,16.779998779296875,16.8799991607666,16.850000381469727,13.657994832594452,13.625513720377807,13.706714952134744,13.682355666756935,13.668144792965984,0.017991196276268624,-5.300000190734863,8.02500057220459,0.0,0.0,0.0,0.0,0.0,,,,,
frame_00155.png,1771858570333784472,1771858570.3337846,42.30087189877108,-83.69758713773086,238.2180938720703,-0.012708571526037826,-0.9995188785771524,-0.013996731970026995,-0.024588515038499997,-0.00825,-0.03774,0.013000000000000003,-0.7521,0.8310000000000001,-10.0969,6.015451782053084,13.456204709345826,16.869998931884766,16.889999389648438,16.93000030517578,16.899999618530273,13.698594674080582,13.714835230188905,13.747316342405549,13.722955508243064,13.720925438729523,0.019672763242063258,-4.599999904632568,8.100000381469727,0.0,0.0,0.0,0.0,0.0,,,,,
frame_00156.png,1771858570384864296,1771858570.3848643,42.30087188875352,-83.69759151813051,238.21463012695312,-0.012908945814768813,-0.9995060217556824,-0.013711092853637972,-0.025161031871520734,0.014440000000000001,-0.022910000000000003,0.0011900000000000003,-0.37720000000000004,0.3997,-7.789000000000001,6.026317185272641,13.480509964423783,17.029998779296875,16.920000076293945,16.889999389648438,16.8799991607666,13.828516025377809,13.739196064351386,13.714835230188905,13.706714952134744,13.747315568013212,0.01979195180995019,-4.5,7.900000095367432,0.0,0.0,0.0,0.0,0.0,,,,,
frame_00157.png,1771858570434840891,1771858570.434841,42.30087189476789,-83.6975959055809,238.2067413330078,-0.013027150231813556,-0.9995115166081263,-0.013700524366978951,-0.024886083593661488,-0.007500000000000001,0.01923,0.007560000000000001,-0.7476,1.2375,-9.0603,6.02543228173853,13.478530488312188,17.059999465942383,16.959999084472656,16.959999084472656,16.8799991607666,13.852876859540292,13.771675627783356,13.771675627783356,13.706714952134744,13.775735766810438,0.022050273118124384,-4.5,8.050000190734863,0.0,0.0,0.0,0.0,0.0,,,,,
frame_00158.png,1771858570485989854,1771858570.4859898,42.300871903142095,-83.69759883338767,238.2001495361328,-0.013088933647387169,-0.9995238699817652,-0.013765012275986038,-0.024315377638261765,0.022650000000000003,0.016120000000000002,-0.0012900000000000001,-0.0426,0.6826,-10.1652,6.0450150050900495,13.522335865486136,17.029998779296875,16.93000030517578,17.010000228881836,16.81999969482422,13.828516025377809,13.747316342405549,13.812277018054163,13.657994832594452,13.761526054607993,0.017688525969271035,-4.5,8.475000381469727,0.0,0.0,0.0,0.0,0.0,,,,,
frame_00159.png,1771858570544804455,1771858570.5448043,42.30087192570589,-83.69760323727192,238.19174194335938,-0.013143892215295938,-0.9995398233517387,-0.01292057315224197,-0.024092289655096653,0.042210000000000004,-0.014310000000000002,-0.0011300000000000001,0.2975,0.24380000000000002,-11.2475,6.06610874826004,13.569521303332817,17.020000457763672,16.959999084472656,17.100000381469727,17.049999237060547,13.820397296108322,13.771675627783356,13.885357971756937,13.844756581486129,13.830546869283687,0.019236166119342736,-4.400000095367432,8.350000381469727,0.0,0.0,0.0,0.0,0.0,,,,,
frame_00160.png,1771858570586468038,1771858570.586468,42.30087194406955,-83.69760618253798,238.1887664794922,-0.013248441935787614,-0.9995445616313318,-0.011945380294438746,-0.02434041883625742,0.04778,-0.015750000000000004,0.0019000000000000002,0.12710000000000002,0.0058000000000000005,-10.9257,6.0729617243715195,13.584850999715627,17.1299991607666,17.029998779296875,17.25,17.06999969482422,13.909717257134744,13.828516025377809,14.007159045000002,13.860997137594453,13.901597366276752,0.023316145798563063,-4.599999904632568,8.15000057220459,0.0,0.0,0.0,0.0,0.0,,,,,
frame_00161.png,1771858570637067398,1771858570.6370676,42.30087196800544,-83.69761061572314,238.18614196777344,-0.013454395189970436,-0.9995339568232849,-0.01126381470102058,-0.02497948929903251,0.019600000000000003,-0.014400000000000003,0.00477,-0.4072,-0.0476,-9.7616,6.0831106516918085,13.607553541195475,17.139999389648438,17.139999389648438,17.229999542236328,17.10999870300293,13.917837535188903,13.917837535188903,13.990918488891678,13.89347670102642,13.930017565073976,0.023697428263080078,-5.099999904632568,8.100000381469727,0.0,0.0,0.0,0.0,0.0,,,,,
frame_00162.png,1771858570697579592,1771858570.6975796,42.30087198627184,-83.69761506085716,238.18267822265625,-0.01375033883212895,-0.9995182354884741,-0.011140989106246179,-0.02549712669582822,0.0005000000000000001,-0.0024700000000000004,0.00859,-0.5072,0.1463,-8.7132,6.094907557823225,13.633942512397086,17.139999389648438,17.149999618530273,17.170000076293945,17.19999885559082,13.917837535188903,13.925957813243066,13.942198369351386,13.966557654729193,13.938137843128137,0.022311618994612335,-6.200000286102295,8.449999809265137,0.0,0.0,0.0,0.0,0.0,,,,,
frame_00163.png,1771858570737349281,1771858570.7373493,42.30087199247729,-83.69761802774076,238.17889404296875,-0.014015034586770114,-0.9995117698317223,-0.011351332464774995,-0.0255136830870033,-0.011230000000000002,0.004470000000000001,0.008810000000000002,-0.3809,-0.1472,-9.266200000000001,6.111754004834282,13.671627003573999,17.260000228881836,17.18000030517578,17.18000030517578,17.18000030517578,14.01527932305416,13.950318647405549,13.950318647405549,13.950318647405549,13.966558816317704,0.02157254675442835,-6.400000095367432,8.5,0.0,0.0,0.0,0.0,0.0,,,,,
frame_00164.png,1771858570788192406,1771858570.7881925,42.300871994743524,-83.69762100217814,238.17330932617188,-0.0142893515455087,-0.99950487675205,-0.011859129275561903,-0.025400331377829048,-0.017050000000000003,0.00982,0.006440000000000001,-0.3088,-0.27640000000000003,-9.234200000000001,6.12497756579545,13.701207316030475,17.369998931884766,17.260000228881836,17.279998779296875,17.239999771118164,14.104599284080582,14.01527932305416,14.031518330377809,13.999038766945839,14.037608926114597,0.024552698337067774,-6.099999904632568,8.225000381469727,0.0,0.0,0.0,0.0,0.0,,,,,
frame_00165.png,1771858570838639000,1771858570.838639,42.30087199195313,-83.69762546675572,238.1634979248047,-0.014534025776859305,-0.9995032524974583,-0.012592481563249406,-0.02496877549658876,-0.016880000000000003,0.023700000000000002,0.007240000000000001,0.0692,0.3665,-9.4047,6.133466715680772,13.720197034974946,17.479999542236328,17.260000228881836,17.28999900817871,17.260000228881836,14.193920793891678,14.01527932305416,14.03963860843197,14.01527932305416,14.066029512107992,0.02520608678224257,-5.099999904632568,8.350000381469727,0.0,0.0,0.0,0.0,0.0,,,,,
frame_00166.png,1771858570889142021,1771858570.889142,42.30087199447801,-83.69762844412273,238.15650939941406,-0.014780938312460912,-0.9995125432772024,-0.012919010457465067,-0.024275478634654905,0.0012200000000000002,0.033260000000000005,0.01063,0.0256,0.7775000000000001,-9.8473,6.138040472494852,13.730428254542636,17.479999542236328,17.25,17.35999870300293,17.279998779296875,14.193920793891678,14.007159045000002,14.09647900602642,14.031518330377809,14.082269293823977,0.02562491371417614,-4.099999904632568,8.27500057220459,0.0,0.0,0.0,0.0,0.0,,,,,
frame_00167.png,1771858570939033729,1771858570.9390337,42.30087201324697,-83.69763292353859,238.14627075195312,-0.015040540267724667,-0.9995362898081501,-0.012531806800889661,-0.023322549674456298,0.03673,0.05090000000000001,0.007440000000000001,-0.1109,1.2554,-10.051400000000001,6.142329280247582,13.740022060157026,17.420000076293945,17.329999923706055,17.399999618530273,17.329999923706055,14.145200674351388,14.072119720648613,14.128960118243066,14.072119720648613,14.10460005847292,0.026534018411301447,-2.9000000953674316,8.52500057220459,0.0,0.0,0.0,0.0,0.0,,,,,
frame_00168.png,1771858570990302503,1771858570.9903026,42.30087203490112,-83.69763591421692,238.14053344726562,-0.01522159062981776,-0.999566007440968,-0.011294431760226539,-0.022550737425509275,0.057050000000000003,0.02919,0.00487,-0.3927,1.2264000000000002,-10.8542,6.161451483186713,13.782797280799688,17.399999618530273,17.329999923706055,17.40999984741211,17.399999618530273,14.128960118243066,14.072119720648613,14.137080396297227,14.128960118243066,14.116780088357993,0.02423185952415948,-2.0,8.725000381469727,0.0,0.0,0.0,0.0,0.0,,,,,
frame_00169.png,1771858571040557120,1771858571.0405571,42.30087208729263,-83.6976404131283,238.13470458984375,-0.015324987357152764,-0.9995912491083832,-0.009763343632797211,-0.022071624080550172,0.05136,0.023790000000000002,0.0011900000000000003,-0.6885,0.36810000000000004,-10.3451,6.17081096402714,13.803733877870872,17.559999465942383,17.510000228881836,17.43000030517578,17.510000228881836,14.258881469540292,14.21828162805416,14.153320952405549,14.21828162805416,14.212191419513541,0.029590366291940604,-1.899999976158142,8.675000190734863,0.0,0.0,0.0,0.0,0.0,,,,,
frame_00170.png,1771858571100111649,1771858571.1001117,42.30087214071232,-83.69764492275745,238.13104248046875,-0.015355306466134533,-0.9996066768684254,-0.008994515178133593,-0.021674981432621497,0.008570000000000001,0.004350000000000001,0.0016500000000000002,-0.2132,-0.1695,-10.2621,6.189572406865448,13.845702099813597,17.350000381469727,17.369998931884766,17.420000076293945,17.489999771118164,14.088360276756935,14.104599284080582,14.145200674351388,14.202041071945839,14.135050326783684,0.02089805377034531,-1.899999976158142,8.77500057220459,0.0,0.0,0.0,0.0,0.0,,,,,
frame_00171.png,1771858571141745464,1771858571.1417453,42.3008721565199,-83.69764643219655,238.13015747070312,-0.015308603259321207,-0.999611568737621,-0.008859794535656315,-0.02153746393954131,0.00898,-0.00538,-0.00642,-0.043000000000000003,-0.017,-9.671800000000001,6.205230228152424,13.880727706563285,17.44999885559082,17.389999389648438,17.5,17.44999885559082,14.169559959729195,14.120839840188903,14.210161350000002,14.169559959729195,14.167530277411824,0.02066192615484631,-1.899999976158142,8.65000057220459,0.0,0.0,0.0,0.0,0.0,,,,,
frame_00172.png,1771858571192989885,1771858571.19299,42.300872224298125,-83.69765248702225,238.12527465820312,-0.015215204039838781,-0.9996140003478782,-0.008015854070719995,-0.02181957740322608,0.036410000000000005,-0.018760000000000002,-0.00206,0.2083,-0.3975,-9.6559,6.243723317087108,13.966834436924836,17.40999984741211,17.520000457763672,17.44999885559082,17.44999885559082,14.137080396297227,14.226401906108324,14.169559959729195,14.169559959729195,14.175650555465985,0.014950855147898878,-1.8000000715255737,8.52500057220459,0.0,0.0,0.0,0.0,0.0,,,,,
frame_00173.png,1771858571251017812,1771858571.2510178,42.300872246839475,-83.6976555300815,238.1212921142578,-0.01527633894832875,-0.999594728389865,-0.007423166599196703,-0.02284532865091581,-0.010160000000000002,-0.03593000000000001,0.00534,0.016900000000000002,-0.44120000000000004,-8.6509,6.275014363324144,14.036830629894311,17.69999885559082,17.5,17.489999771118164,17.53999900817871,14.372562264729195,14.210161350000002,14.202041071945839,14.242640913431968,14.25685140002675,0.015674533371077378,-1.7000000476837158,8.850000381469727,0.0,0.0,0.0,0.0,0.0,,,,,
frame_00174.png,1771858571302072519,1771858571.3020725,42.300872270706236,-83.69766010945816,238.1131591796875,-0.015422150843079407,-0.9995624722173373,-0.00819334304374871,-0.023872380021802222,-0.030400000000000003,-0.027000000000000003,0.004000000000000001,-0.4625,0.2666,-9.2456,6.286998201213242,14.06363775622195,17.6299991607666,17.649999618530273,17.489999771118164,17.600000381469727,14.315721867134743,14.331962423243066,14.202041071945839,14.291362581756935,14.285271986020147,0.015759381295223012,-1.399999976158142,8.77500057220459,0.0,0.0,0.0,0.0,0.0,,,,,
frame_00175.png,1771858571352014244,1771858571.3520143,42.300872279775746,-83.69766316574189,238.10675048828125,-0.015517275118930973,-0.9995404077331054,-0.008801290986265163,-0.02450968703586409,-0.010330000000000002,-0.025490000000000006,-0.00143,-0.45430000000000004,1.0002,-9.5862,6.290821891079069,14.072191121030414,17.670000076293945,17.459999084472656,17.619998931884766,17.69999885559082,14.348202979351388,14.177680237783356,14.307601589080582,14.372562264729195,14.30151176773613,0.016296015647698538,-0.800000011920929,8.75,0.0,0.0,0.0,0.0,0.0,,,,,
frame_00176.png,1771858571394475287,1771858571.3944752,42.30087230953946,-83.69766774625661,238.09669494628906,-0.015510264045027422,-0.9995455618962089,-0.008325484670895762,-0.02447013910544948,0.031470000000000005,0.0031500000000000005,0.0011300000000000001,-0.4257,1.6308,-10.3038,6.283066916601547,14.054843708422666,17.68000030517578,17.649999618530273,17.75,17.65999984741211,14.356323257405549,14.331962423243066,14.413163655,14.340082701297225,14.360383009236461,0.021739074951839826,-0.10000000149011612,8.675000190734863,0.0,0.0,0.0,0.0,0.0,,,,,
frame_00177.png,1771858571445253570,1771858571.4452536,42.300872343711845,-83.69767080048518,238.09146118164062,-0.015403078058488284,-0.9995617597917003,-0.0073483973728577685,-0.024187488594196074,0.036500000000000005,0.021310000000000003,-0.00048,-0.3156,0.5403,-10.9266,6.283072090283986,14.054855281639862,17.639999389648438,17.670000076293945,17.709999084472656,17.670000076293945,14.323842145188904,14.348202979351388,14.380682542783356,14.348202979351388,14.350232661668759,0.021016038522627466,0.5,8.600000381469727,0.0,0.0,0.0,0.0,0.0,,,,,
frame_00178.png,1771858571495166993,1771858571.495167,42.300872404813504,-83.69767539112247,238.0873565673828,-0.015142228735402885,-0.9995791065574596,-0.0061078986683960005,-0.02397949575307746,0.029890000000000003,-0.009810000000000001,-0.009000000000000001,0.2305,0.3569,-12.1479,6.309066250076707,14.113002657446591,17.65999984741211,17.690000534057617,17.729999542236328,17.75,14.340082701297225,14.36444353545971,14.396923098891678,14.413163655,14.378653247662152,0.018823109203865474,0.30000001192092896,8.5,0.0,0.0,0.0,0.0,0.0,,,,,
frame_00179.png,1771858571545388977,1771858571.545389,42.30087244101359,-83.69767846378193,238.0883026123047,-0.014961480215667233,-0.9995702564273816,-0.0056891152451327785,-0.024557901848129504,0.011420000000000001,-0.030560000000000004,-0.011250000000000001,-0.2252,-0.6378,-10.9528,6.327245715160906,14.153669030072038,17.770000457763672,17.709999084472656,17.920000076293945,17.969999313354492,14.429404211108324,14.380682542783356,14.551205284351388,14.591805125837517,14.488274291020147,0.02364088493500728,-0.4000000059604645,8.27500057220459,0.0,0.0,0.0,0.0,0.0,,,,,
frame_00180.png,1771858571596762404,1771858571.5967624,42.300872484629714,-83.69768308459003,238.09104919433594,-0.014821588344688386,-0.9995460616663989,-0.0058093215283932294,-0.025578172520954203,-0.015480000000000002,-0.04753000000000001,-0.0041800000000000006,-0.5299,-0.3206,-9.105400000000001,6.33687801029216,14.175215896342944,18.010000228881836,17.93000030517578,18.010000228881836,17.989999771118164,14.624286238054161,14.559325562405549,14.624286238054161,14.60804568194584,14.603985930114927,0.030247866198821055,-1.0,2.049999952316284,0.0,0.0,0.0,0.0,0.0,,,,,
frame_00181.png,1771858571646252895,1771858571.6462529,42.30087250565937,-83.69768616427352,238.09121704101562,-0.014798824108440967,-0.9995430057229725,-0.0057001018975019885,-0.025734866497636205,0.0216,0.021650000000000003,-0.00289,-0.4214,0.26630000000000004,-6.4558,6.3306984824236485,14.161392663272757,18.010000228881836,18.059999465942383,17.969999313354492,17.93000030517578,14.624286238054161,14.66488607954029,14.591805125837517,14.559325562405549,14.610075751459378,0.031683542632799856,-1.0,0.0,0.0,0.0,0.0,0.0,0.0,,,,,
frame_00182.png,1771858571697095861,1771858571.6970959,42.30087254639058,-83.69769077738351,238.08177185058594,-0.014710574179283342,-0.9995851809762544,-0.004974414170831104,-0.024255312482867834,0.011250000000000001,0.07729000000000001,-0.004710000000000001,-0.331,-0.17470000000000002,-7.4774,6.3264864379757455,14.151970572565466,18.020000457763672,17.94999885559082,17.799999237060547,18.010000228881836,14.632406516108324,14.575564569729195,14.45376349648613,14.624286238054161,14.571505205094454,0.029644962189384682,-0.800000011920929,0.0,0.0,0.0,0.0,0.0,0.0,,,,,
frame_00183.png,1771858571747124012,1771858571.747124,42.300872575882586,-83.697693853155,238.06991577148438,-0.014696256721960177,-0.9996234150495764,-0.004814818437059559,-0.022668604862291362,0.005790000000000001,0.08908,-0.0031200000000000004,-0.6088,-0.9346000000000001,-8.318,6.34244298761456,14.187664416714515,18.0,17.969999313354492,17.760000228881836,17.829999923706055,14.61616596,14.591805125837517,14.421283933054161,14.478124330648614,14.526844837385072,0.023906712952060507,-0.6000000238418579,0.0,0.0,0.0,0.0,0.0,0.0,,,,,
frame_00184.png,1771858571807166313,1771858571.807166,42.30087260941002,-83.69769848635568,238.0503692626953,-0.014656326936110742,-0.9996614943501398,-0.005378776081552055,-0.020812437681624215,-0.00474,0.03835,0.0014200000000000003,-0.1333,0.24000000000000002,-13.354000000000001,6.393085619229324,14.300948945078845,18.059999465942383,17.969999313354492,17.770000457763672,17.760000228881836,14.66488607954029,14.591805125837517,14.429404211108324,14.421283933054161,14.526844837385072,0.015795867335360324,-0.20000000298023224,0.0,0.0,0.0,0.0,0.0,0.0,,,,,
frame_00185.png,1771858571848965896,1771858571.848966,42.30087263999944,-83.69770160043271,238.0408172607422,-0.014542548124146792,-0.9996655748969037,-0.004888837497511352,-0.020817106619867794,0.024870000000000003,-0.02059,-0.009620000000000002,0.30720000000000003,-0.1105,-11.6876,6.431623603007587,14.387156102511792,17.75,17.85999870300293,17.899999618530273,17.84000015258789,14.413163655,14.50248361602642,14.534964728243066,14.486244608702776,14.484214151993067,0.0067461594765298874,-0.20000000298023224,0.0,0.0,0.0,0.0,0.0,0.0,,,,,
frame_00186.png,1771858571899123580,1771858571.8991234,42.30087270187456,-83.6977063013543,238.03443908691406,-0.014371481261433394,-0.9996232695885849,-0.003267096950166507,-0.023153952165829824,0.047650000000000005,-0.11255000000000001,-0.00478,0.07640000000000001,0.6843,-11.5732,6.472613034565801,14.478847001541624,17.440000534057617,17.559999465942383,17.829999923706055,17.760000228881836,14.161441230459708,14.258881469540292,14.478124330648614,14.421283933054161,14.329932740925694,0.010284952980031811,-0.5,0.0,0.0,0.0,0.0,0.0,0.0,,,,,
frame_00187.png,1771858571948870093,1771858571.9488702,42.30087274769926,-83.69770945991198,238.03482055664062,-0.0142564369798715,-0.9995528079950708,-0.0016384480696971307,-0.026234586364773847,0.06570000000000001,-0.20726000000000003,-0.0036100000000000004,0.21710000000000002,-1.9151,-11.968300000000001,6.52861281019565,14.604115139639058,17.920000076293945,17.8799991607666,17.850000381469727,17.869998931884766,14.551205284351388,14.518724172134743,14.494364886756935,14.510603894080583,14.518724559330911,0.005847021849093499,-1.7000000476837158,0.0,0.0,0.0,0.0,0.0,0.0,,,,,
frame_00188.png,1771858572000168512,1771858572.0001686,42.30087279141813,-83.69771265255564,238.03729248046875,-0.014229177077225931,-0.9993973859064225,-0.0015514635413269428,-0.031622595149579484,-0.017780000000000004,-0.27976,0.00423,-0.0238,-0.43510000000000004,-10.1625,6.579719814415526,14.718438441658668,17.989999771118164,18.010000228881836,17.94999885559082,17.989999771118164,14.60804568194584,14.624286238054161,14.575564569729195,14.60804568194584,14.603985542918759,0.007776157721729826,-3.0,0.5250000357627869,0.0,0.0,0.0,0.0,0.0,,,,,
frame_00189.png,1771858572050007087,1771858572.050007,42.3008728350114,-83.69771744061421,238.0390167236328,-0.014228355311338816,-0.9991873773772426,-0.0020535380671606283,-0.03765530210380194,-0.023190000000000002,-0.19006000000000003,0.012400000000000001,-1.7841,-1.0632000000000001,-8.3109,6.535803924777238,14.620201231491196,18.09000015258789,18.020000457763672,18.020000457763672,18.10999870300293,14.689246913702775,14.632406516108324,14.632406516108324,14.70548592102642,14.664886466736462,0.003056403570493711,-3.5,0.574999988079071,0.0,0.0,0.0,0.0,0.0,,,,,
frame_00190.png,1771858572100735290,1771858572.1007352,42.30087285198044,-83.69772219474434,238.03472900390625,-0.014343896045805661,-0.9990633833780205,-0.0032615763630012076,-0.040693620619426336,-0.043340000000000004,-0.08628000000000001,0.011000000000000001,-2.9073,0.18130000000000002,-7.755800000000001,6.473397131776179,14.480600979955407,18.299999237060547,18.299999237060547,18.139999389648438,18.170000076293945,14.859768106486131,14.859768106486131,14.729846755188905,14.754207589351388,14.800897639378139,0.0221190170122151,-3.299999952316284,0.0,0.0,0.0,0.0,0.0,0.0,,,,,
frame_00191.png,1771858572150977729,1771858572.1509778,42.300872852622014,-83.69772533251215,238.02804565429688,-0.014412393676564663,-0.9990518330409193,-0.004200937567077411,-0.04086648907904904,-0.06766000000000001,0.0119,0.0105,-1.9351,-0.7144,-7.736400000000001,6.432890816301258,14.389990782616938,18.270000457763672,18.149999618530273,18.299999237060547,18.270000457763672,14.835408821108322,14.737967033243065,14.859768106486131,14.835408821108322,14.81713819548646,0.02968364742703768,-2.4000000953674316,0.0,0.0,0.0,0.0,0.0,0.0,,,,,
frame_00192.png,1771858572210703896,1771858572.2107038,42.30087286243692,-83.69772999973078,238.01585388183594,-0.014554447979134967,-0.9991666195680203,-0.005655561611848582,-0.03771271679277699,-0.057010000000000005,0.14153000000000002,0.006920000000000001,-0.9479000000000001,0.3378,-10.1117,6.373807975782941,14.257826013347893,18.270000457763672,18.100000381469727,18.279998779296875,18.309999465942383,14.835408821108322,14.697367191756936,14.843527550377807,14.86788838454029,14.811047986945837,0.038801285208560465,-1.8000000715255737,0.0,0.0,0.0,0.0,0.0,0.0,,,,,
frame_00193.png,1771858572260580043,1771858572.26058,42.3008728793272,-83.69773464486427,238.00315856933594,-0.014569137014202371,-0.99928784637792,-0.006515931319318663,-0.03419185527405306,-0.04261,0.14980000000000002,-0.00269,-1.4501000000000002,-0.6006,-9.2812,6.3597397863902865,14.226356317767888,18.1299991607666,18.149999618530273,18.25,18.440000534057617,14.721726477134743,14.737967033243065,14.819168265,14.97345045045971,14.813078056459378,0.04124188411889485,-1.399999976158142,0.0,0.0,0.0,0.0,0.0,0.0,,,,,
frame_00194.png,1771858572311868236,1771858572.3118682,42.30087289422036,-83.69773773435371,237.9947052001953,-0.014549260421404198,-0.9993935789232318,-0.007388376101827873,-0.030760450692115523,-0.017380000000000003,0.17548000000000002,-0.015640000000000005,2.1289000000000002,1.5404,-10.3148,6.373712963924807,14.257613477521959,18.029998779296875,18.10999870300293,18.649999618530273,18.56999969482422,14.640525245377807,14.70548592102642,15.143971643243065,15.079010967594453,14.892248444310436,0.04451200530783218,-0.6000000238418579,0.0,0.0,0.0,0.0,0.0,0.0,,,,,
frame_00195.png,1771858572362231968,1771858572.362232,42.3008729415338,-83.69774238534005,237.9835968017578,-0.014349529275530404,-0.9995074730784719,-0.006957667731134249,-0.02702763640427683,0.05040000000000001,0.09135000000000001,-0.007960000000000002,1.6978,3.1722,-8.3553,6.417397046047993,14.3553321481866,18.270000457763672,18.350000381469727,18.19999885559082,18.31999969482422,14.835408821108322,14.900369496756936,14.778566874729195,14.876008662594453,14.847588463797226,0.034290834271836046,-0.800000011920929,0.0,0.0,0.0,0.0,0.0,0.0,,,,,
frame_00196.png,1771858572412695034,1771858572.412695,42.30087299488149,-83.69774549714508,237.97427368164062,-0.014055033770463798,-0.99959786552556,-0.004690129297016657,-0.024177798692871098,0.05530000000000001,0.13024000000000002,-0.00935,0.7192000000000001,-1.6700000000000002,-5.613,6.423611921665824,14.369234452051149,18.170000076293945,18.369998931884766,18.209999084472656,17.90999984741211,14.754207589351388,14.916608504080582,14.786687152783356,14.543085006297225,14.750147063128138,0.026508900828924452,-1.5,0.0,0.0,0.0,0.0,0.0,0.0,,,,,
frame_00197.png,1771858572453512523,1771858572.4535124,42.30087299488149,-83.69774549714508,237.97427368164062,-0.014025506523135778,-0.9996578362328636,-0.0037111702078428625,-0.021765174951894565,0.044430000000000004,0.12486000000000001,-0.012240000000000003,-0.9254,-1.4001000000000001,-4.3689,6.429368419490684,14.382111392295492,18.279998779296875,18.170000076293945,17.899999618530273,17.81999969482422,14.843527550377807,14.754207589351388,14.534964728243066,14.470004052594453,14.65067598014168,0.018673516045082057,-1.600000023841858,0.0,0.0,0.0,0.0,0.0,0.0,,,,,
frame_00198.png,1771858572504269482,1771858572.5042696,42.30087301406894,-83.69774705245237,237.96771240234375,-0.01382313195042717,-0.9997099066498798,-0.0036561688102691153,-0.019381847146248653,0.025910000000000002,0.06441000000000001,-0.015710000000000002,0.32580000000000003,-3.2301,-13.421000000000001,6.481447853695181,14.4986099618449,18.139999389648438,18.079999923706055,17.889999389648438,17.85999870300293,14.729846755188905,14.681126635648614,14.526844450188904,14.50248361602642,14.61007536426321,0.007688006140702171,-1.399999976158142,0.675000011920929,0.0,0.0,0.0,0.0,0.0,,,,,
frame_00199.png,1771858572555285878,1771858572.5552857,42.30087301406894,-83.69774705245237,237.96771240234375,-0.013875867601167213,-0.9997152705010229,-0.004220521864446405,-0.018947966132896055,-0.04315000000000001,-0.044820000000000006,0.004410000000000001,1.3564,-0.2272,-14.039800000000001,6.526704214593916,14.599845725793715,17.959999084472656,17.869998931884766,17.93000030517578,17.940000534057617,14.583684847783356,14.510603894080583,14.559325562405549,14.56744584045971,14.5552650361823,0.003053504156735965,-1.3000000715255737,2.200000047683716,0.0,0.0,0.0,0.0,0.0,,,,,
frame_00200.png,1771858572614560447,1771858572.6145606,42.300873125212966,-83.69776116224506,237.88519287109375,-0.014057755418301676,-0.9996554613095496,-0.00571677861524777,-0.021416270190089206,-0.05090000000000001,-0.11146,0.0037700000000000003,1.2651000000000001,0.5731,-12.0525,6.554213928668782,14.661383305596345,17.8799991607666,17.809999465942383,18.010000228881836,17.84000015258789,14.518724172134743,14.461883774540292,14.624286238054161,14.486244608702776,14.522784698357993,0.009453310397078838,-1.7000000476837158,2.2750000953674316,0.0,0.0,0.0,0.0,0.0,,,,,
frame_00201.png,1771858572655131824,1771858572.6551318,42.30087312985088,-83.69776434694826,237.88311767578125,-0.014237278294560007,-0.9995641336668937,-0.006848780904746877,-0.024938660622302822,-0.07602,-0.15662000000000004,0.016640000000000002,-0.8312,-0.1004,-13.5694,6.557204887297434,14.668073900591123,18.119998931884766,17.899999618530273,18.350000381469727,18.350000381469727,14.713606199080584,14.534964728243066,14.900369496756936,14.900369496756936,14.76232748020938,0.006425763890817261,-1.8000000715255737,2.4000000953674316,0.0,0.0,0.0,0.0,0.0,,,,,
frame_00202.png,1771858572706163743,1771858572.7061636,42.300873122111035,-83.69776914745024,237.8897705078125,-0.014456677439426413,-0.9993849668281582,-0.008778005077139127,-0.03071871062006273,-0.08393,-0.17577000000000004,0.00979,-1.2617,0.33190000000000003,-11.3232,6.552450057661647,14.657437631985646,18.049999237060547,17.869998931884766,18.350000381469727,18.389999389648438,14.65676580148613,14.510603894080583,14.900369496756936,14.932849060188905,14.75014706312814,0.006325077647963633,-1.600000023841858,2.325000047683716,0.0,0.0,0.0,0.0,0.0,,,,,
frame_00203.png,1771858572756714100,1771858572.7567139,42.30087311147283,-83.69777393795484,237.90235900878906,-0.01466982071999251,-0.9992620246281081,-0.010302664718951944,-0.033971423224036304,-0.07171000000000001,-0.11388000000000001,0.021690000000000004,-1.0713000000000001,2.1283000000000003,-10.137500000000001,6.51541022653319,14.574581752141155,18.209999084472656,18.229999542236328,18.420000076293945,18.19999885559082,14.786687152783356,14.802927708891678,14.957209894351388,14.778566874729195,14.831347907688905,0.017617394441526806,-1.600000023841858,2.450000047683716,0.0,0.0,0.0,0.0,0.0,,,,,
frame_00204.png,1771858572816188337,1771858572.8161883,42.30087310863237,-83.69777710451477,237.90750122070312,-0.01494533876900167,-0.9991879836944166,-0.011038254694590778,-0.035751461831136505,-0.027590000000000003,-0.011990000000000002,0.011120000000000001,-1.9606000000000001,0.5940000000000001,-3.8838000000000004,6.466848294424568,14.465951623730094,18.229999542236328,18.309999465942383,18.34000015258789,18.270000457763672,14.802927708891678,14.86788838454029,14.892249218702775,14.835408821108322,14.849618533310766,0.026522065022760125,-1.8000000715255737,2.174999952316284,0.0,0.0,0.0,0.0,0.0,,,,,
frame_00205.png,1771858572866420458,1771858572.8664205,42.300873125310716,-83.69778181852325,237.9022979736328,-0.014798285191949312,-0.9992530369640267,-0.010809652986379717,-0.034022496614172205,0.026600000000000002,0.07952000000000001,0.0017800000000000001,-0.7937000000000001,0.8964000000000001,-7.2369,6.436635924414164,14.39836836475902,18.350000381469727,18.350000381469727,18.270000457763672,18.270000457763672,14.900369496756936,14.900369496756936,14.835408821108322,14.835408821108322,14.867889158932629,0.032609305601792475,-1.8000000715255737,2.299999952316284,0.0,0.0,0.0,0.0,0.0,,,,,
frame_00206.png,1771858572917217868,1771858572.9172177,42.30087316375515,-83.69778650435039,237.8853759765625,-0.014812592322281104,-0.9993433176192985,-0.010125237248349251,-0.03148015579714576,0.04132000000000001,0.13973000000000002,-0.007640000000000001,-0.025400000000000002,0.0035,-7.117500000000001,6.4342374210713915,14.39300305669144,18.19999885559082,18.10999870300293,18.229999542236328,18.19999885559082,14.778566874729195,14.70548592102642,14.802927708891678,14.778566874729195,14.766386844844122,0.025942034937531232,-1.8000000715255737,2.2250001430511475,0.0,0.0,0.0,0.0,0.0,,,,,
frame_00207.png,1771858572967244398,1771858572.9672444,42.300873194747695,-83.69778962572974,237.87118530273438,-0.014773419134533505,-0.9994416122313852,-0.00960527414655375,-0.02838923274719388,0.015600000000000003,0.11165000000000001,0.005830000000000001,-0.2189,0.9054000000000001,-9.987300000000001,6.446151616146534,14.41965439622283,18.219999313354492,18.270000457763672,18.170000076293945,18.18000030517578,14.794807430837517,14.835408821108322,14.754207589351388,14.762327867405547,14.786687927175693,0.025453698186345308,-1.8000000715255737,3.549999952316284,0.0,0.0,0.0,0.0,0.0,,,,,
frame_00208.png,1771858573009730951,1771858573.009731,42.3008732316909,-83.6977927627,237.85662841796875,-0.0146530948403098,-0.9995081539883084,-0.00930115386214328,-0.02611944599943718,0.0018700000000000004,0.06545000000000001,-0.011870000000000002,1.4061000000000001,-0.4202,-10.9303,6.497942421115932,14.535507319491073,18.119998931884766,18.09000015258789,18.119998931884766,18.119998931884766,14.713606199080584,14.689246913702775,14.713606199080584,14.713606199080584,14.70751637773613,0.01183371549848872,-1.8000000715255737,8.199999809265137,0.0,0.0,0.0,0.0,0.0,,,,,
frame_00209.png,1771858573069260495,1771858573.0692606,42.300873288615136,-83.69779906931868,237.8330535888672,-0.01462759799897645,-0.9995230811384777,-0.009343691264228397,-0.025540929540310845,-0.007230000000000001,-0.016380000000000002,-0.005180000000000001,0.7591,-0.9715,-10.4661,6.510972082981927,14.564653891305593,18.28999900817871,18.229999542236328,18.219999313354492,18.170000076293945,14.85164782843197,14.802927708891678,14.794807430837517,14.754207589351388,14.800897639378139,0.01622034755069411,-1.7000000476837158,7.775000095367432,0.0,0.0,0.0,0.0,0.0,,,,,
frame_00210.png,1771858573119196011,1771858573.119196,42.30087331217768,-83.69780223353638,237.82366943359375,-0.014720871659429535,-0.9995221077166669,-0.009637995602877565,-0.02541576605135328,-0.01144,-0.010950000000000001,0.0077800000000000005,-0.6496000000000001,0.1252,-9.9757,6.5069424599159875,14.55563986628447,18.3799991607666,18.06999969482422,18.079999923706055,18.25,14.924728782134743,14.673006357594453,14.681126635648614,14.819168265,14.774507510094452,0.015036621256132494,-1.7000000476837158,5.400000095367432,0.0,0.0,0.0,0.0,0.0,,,,,
frame_00211.png,1771858573169277853,1771858573.169278,42.300873328278506,-83.69780539029969,237.81597900390625,-0.014855630823391142,-0.999526763553209,-0.009949329236610401,-0.02503138073355273,-0.00982,0.010150000000000001,0.011300000000000003,0.1956,-0.2295,-10.809700000000001,6.508002094318432,14.558010204864674,18.31999969482422,18.420000076293945,18.28999900817871,18.279998779296875,14.876008662594453,14.957209894351388,14.85164782843197,14.843527550377807,14.882098483938904,0.022261852719812868,-1.899999976158142,0.0,0.0,0.0,0.0,0.0,0.0,,,,,
frame_00212.png,1771858573211523619,1771858573.2115235,42.30087334000693,-83.69780855092449,237.80958557128906,-0.014976282604547697,-0.9995155860889141,-0.010415006065890988,-0.025215704894581924,-0.03483,-0.018480000000000003,0.01048,-1.088,-0.29410000000000003,-10.632200000000001,6.511079250804098,14.56489361929372,18.3799991607666,18.420000076293945,18.19999885559082,18.25,14.924728782134743,14.957209894351388,14.778566874729195,14.819168265,14.869918454053831,0.020942469113269257,-2.0,0.0,0.0,0.0,0.0,0.0,0.0,,,,,
frame_00213.png,1771858573261805825,1771858573.2618058,42.300873350507096,-83.69781329686971,237.80271911621094,-0.015126910333116084,-0.9994985964129436,-0.011765702490188107,-0.02520517004985227,-0.06404000000000001,0.005490000000000001,0.00477,-2.5885000000000002,0.7181000000000001,-9.8444,6.489913611792672,14.5175473547635,18.459999084472656,18.510000228881836,18.43000030517578,18.369998931884766,14.989689457783356,15.030290848054163,14.965330172405547,14.916608504080582,14.975479745580913,0.03154337159211366,-1.399999976158142,0.0,0.0,0.0,0.0,0.0,0.0,,,,,
frame_00214.png,1771858573312329196,1771858573.3123293,42.300873361270234,-83.69781644866028,237.79788208007812,-0.0151788888177663,-0.9995260629660002,-0.012398504301004261,-0.02373874211164301,-0.0085,0.08676000000000002,0.010320000000000001,-1.4977,0.5033,-9.2644,6.4576581400261635,14.445393799750127,18.350000381469727,18.329999923706055,18.440000534057617,18.329999923706055,14.900369496756936,14.884128940648614,14.97345045045971,14.884128940648614,14.91051945712847,0.03219889079011388,-0.9000000357627869,0.0,0.0,0.0,0.0,0.0,0.0,,,,,
frame_00215.png,1771858573362198247,1771858573.3621984,42.300873371325814,-83.6978195858111,237.7926025390625,-0.015087005011400145,-0.9995699480794071,-0.012728242779708118,-0.02168624015494165,0.00395,0.10756000000000002,0.0074600000000000005,-1.0925,1.997,-9.5509,6.444313144461225,14.415541845371095,18.3799991607666,18.309999465942383,18.600000381469727,18.53999900817871,14.924728782134743,14.86788838454029,15.103371801756936,15.05465013343197,14.987659775465984,0.03968757721573946,-0.9000000357627869,0.0,0.0,0.0,0.0,0.0,0.0,,,,,
frame_00216.png,1771858573413879848,1771858573.4138799,42.300873410906334,-83.69782586494114,237.78273010253906,-0.015041962756838112,-0.999641274902223,-0.012334792724846621,-0.018409610444423,0.025380000000000003,0.09514000000000002,-0.007720000000000001,1.1515,0.5231,-9.963000000000001,6.47218316098739,14.477885400139133,18.329999923706055,18.35999870300293,18.270000457763672,18.19999885559082,14.884128940648614,14.90848822602642,14.835408821108322,14.778566874729195,14.851648215628138,0.02581611921623675,-1.0,0.0,0.0,0.0,0.0,0.0,0.0,,,,,
