image_filename,timestamp_ns,timestamp_sec,latitude,longitude,altitude,orientation_x,orientation_y,orientation_z,orientation_w,angular_velocity_x,angular_velocity_y,angular_velocity_z,linear_acceleration_x,linear_acceleration_y,linear_acceleration_z,vehicle_speed_mps,vehicle_speed_mph,wheel_speed_fl_rads,wheel_speed_fr_rads,wheel_speed_rl_rads,wheel_speed_rr_rads,wheel_speed_fl_mph,wheel_speed_fr_mph,wheel_speed_rl_mph,wheel_speed_rr_mph,avg_wheel_speed_mph,wheel_slip,steering_angle_deg,throttle_pedal,brake_pedal,brake_torque_actual,abs_active,esc_active,trac_active,marwis_road_condition,marwis_friction,marwis_surface_temp_c,marwis_ice_percent,marwis_water_film_height
frame_00000.png,1769536658279162491,1769536658.2791624,42.30002445537953,-83.69796435577994,236.1763153076172,0.7271663846885785,0.6864332304533517,-0.006179250355843636,0.0005347647689620113,0.0004500000000000001,0.0017900000000000004,-0.0005900000000000001,-0.1013,-0.0592,-9.813600000000001,0.008114502091830952,0.01815165430930033,0.0,0.0,0.0,0.0,0.0,0.0,0.0,0.0,0.0,0.0,5.099999904632568,0.0,3108.0,3124.0,0.0,0.0,0.0,snow covered,0.256849825382233,-5.80533742904663,100.0,520.533386230469
frame_00001.png,1769536658298121982,1769536658.298122,42.300024456876066,-83.69796435760541,236.17633056640625,0.727162607872917,0.6864372052379636,-0.006182094912584293,0.0005354241720820262,-0.0009300000000000002,-0.0007800000000000001,-0.0009000000000000002,-0.08320000000000001,-0.0649,-9.8103,0.008114502091830952,0.01815165430930033,0.0,0.0,0.0,0.0,0.0,0.0,0.0,0.0,0.0,0.0,5.099999904632568,0.0,3108.0,3124.0,0.0,0.0,0.0,snow covered,0.256849825382233,-5.80533742904663,100.0,520.533386230469
frame_00002.png,1769536658318851003,1769536658.318851,42.3000244552526,-83.69796435849675,236.1764678955078,0.7271605428128518,0.6864394361988861,-0.006176642486419196,0.0005426736299183086,-0.0016400000000000002,-0.00026000000000000003,-8e-05,-0.0873,-0.0712,-9.778500000000001,0.008114502091830952,0.01815165430930033,0.0,0.0,0.0,0.0,0.0,0.0,0.0,0.0,0.0,0.0,5.099999904632568,0.0,3108.0,3124.0,0.0,0.0,0.0,snow covered,0.256849825382233,-5.80533742904663,100.0,520.533386230469
frame_00003.png,1769536658339455919,1769536658.339456,42.30002445370467,-83.69796435945184,236.17662048339844,0.7271639768773884,0.6864358280509952,-0.006173434131061405,0.0005416741036543284,-0.00025000000000000006,0.00062,0.00096,-0.09140000000000001,-0.0787,-9.8077,0.007779391090513366,0.01740203110601297,0.0,0.0,0.0,0.0,0.0,0.0,0.0,0.0,0.0,0.0,5.099999904632568,0.0,3108.0,3124.0,0.0,0.0,0.0,snow covered,0.256849825382233,-5.80533742904663,100.0,520.533386230469
frame_00004.png,1769536658402423355,1769536658.4024234,42.300024452520624,-83.69796436299382,236.17686462402344,0.7271718673531412,0.6864275703014069,-0.006161608217093899,0.000548310524879751,0.00055,-0.00032,-0.0009100000000000001,-0.0889,-0.08360000000000001,-9.795200000000001,0.008082597319210003,0.018080285247233624,0.0,0.0,0.0,0.0,0.0,0.0,0.0,0.0,0.0,0.0,5.099999904632568,0.0,3108.0,3124.0,0.0,0.0,0.0,snow covered,0.256849825382233,-5.80533742904663,100.0,520.533386230469
frame_00005.png,1769536658424039812,1769536658.4240398,42.30002445407777,-83.6979643647187,236.1768798828125,0.7271684347892358,0.6864311538992026,-0.006167582631385627,0.0005471080946784154,-0.0005900000000000001,-0.0009000000000000002,-0.0004300000000000001,-0.0782,-0.0849,-9.8086,0.008181528996092438,0.01830158947251902,0.0,0.0,0.0,0.0,0.0,0.0,0.0,0.0,0.0,0.0,5.099999904632568,0.0,3108.0,3124.0,0.0,0.0,0.0,snow covered,0.256849825382233,-5.80533742904663,100.0,520.533386230469
frame_00006.png,1769536658443143027,1769536658.443143,42.3000244529696,-83.69796436584278,236.177001953125,0.7271704951860242,0.6864289354352433,-0.006171763920291872,0.0005448470088370398,0.00034,0.00011000000000000002,-0.0013800000000000002,-0.0752,-0.10450000000000001,-9.8175,0.008357148396454838,0.018694439533965684,0.0,0.0,0.0,0.0,0.0,0.0,0.0,0.0,0.0,0.0,5.099999904632568,0.0,3108.0,3124.0,0.0,0.0,0.0,snow covered,0.256849825382233,-5.80533742904663,100.0,520.533386230469
frame_00007.png,1769536658464088097,1769536658.464088,42.30002445189236,-83.69796436696917,236.17710876464844,0.7271681010790644,0.6864315971235524,-0.0061581905713548185,0.0005403076563032434,-0.00018,0.0021600000000000005,0.00030000000000000003,-0.09230000000000001,-0.0888,-9.8,0.008527126573191133,0.019074670516634175,0.0,0.0,0.0,0.0,0.0,0.0,0.0,0.0,0.0,0.0,5.099999904632568,0.0,3108.0,3124.0,0.0,0.0,0.0,snow covered,0.256849825382233,-5.80533742904663,100.0,520.533386230469
frame_00008.png,1769536658485903944,1769536658.485904,42.300024453511575,-83.69796436890616,236.1771240234375,0.7271718812298681,0.6864277141330108,-0.006144723870597213,0.000539246973518843,-0.0020000000000000005,5.000000000000001e-05,-0.0008400000000000001,-0.0959,-0.0918,-9.795200000000001,0.00850977461726723,0.01903585523234976,0.0,0.0,0.0,0.0,0.0,0.0,0.0,0.0,0.0,0.0,5.099999904632568,0.0,3108.0,3124.0,0.0,0.0,0.0,snow covered,0.256849825382233,-5.80533742904663,100.0,520.533386230469
frame_00009.png,1769536658506694557,1769536658.5066946,42.30002445257362,-83.69796437021509,236.17723083496094,0.7271663889631866,0.6864335652096014,-0.006140883110744712,0.0005411751061709506,0.00026000000000000003,-0.00051,-0.0007700000000000001,-0.0857,-0.0726,-9.8108,0.00851566927801713,0.019049041234767642,0.0,0.0,0.0,0.0,0.0,0.0,0.0,0.0,0.0,0.0,5.099999904632568,0.0,3108.0,3124.0,0.0,0.0,0.0,snow covered,0.256849825382233,-5.80533742904663,100.0,520.533386230469
frame_00010.png,1769536658525945601,1769536658.5259457,42.30002445170218,-83.69796437160264,236.17735290527344,0.727174606277756,0.6864248581076723,-0.006139339384928642,0.0005609532685265247,0.00019000000000000004,-6e-05,-0.00101,-0.0917,-0.0867,-9.8023,0.00859704285307042,0.019231069039747348,0.0,0.0,0.0,0.0,0.0,0.0,0.0,0.0,0.0,0.0,5.099999904632568,0.0,3108.0,3124.0,0.0,0.0,0.0,snow covered,0.256849825382233,-5.80533742904663,100.0,520.533386230469
frame_00011.png,1769536658567562129,1769536658.5675623,42.30002445200593,-83.69796437452868,236.17747497558594,0.7271794072203005,0.6864197955314157,-0.006136295156733763,0.0005655962264997064,0.00036,-0.00025000000000000006,-0.0009500000000000001,-0.099,-0.0655,-9.795,0.00849035965130688,0.018992425118394413,0.0,0.0,0.0,0.0,0.0,0.0,0.0,0.0,0.0,0.0,5.099999904632568,0.0,3108.0,3124.0,0.0,0.0,0.0,snow covered,0.256849825382233,-5.80533742904663,100.0,520.533386230469
frame_00012.png,1769536658588885414,1769536658.5888855,42.30002445235147,-83.69796437750736,236.1776123046875,0.7271787230889968,0.6864206021447162,-0.006127106360060223,0.0005658671168093069,-0.0013200000000000002,-0.0005600000000000002,0.0006500000000000001,-0.0931,-0.08900000000000001,-9.798300000000001,0.008483658601151002,0.018977435271258725,0.0,0.0,0.0,0.0,0.0,0.0,0.0,0.0,0.0,0.0,5.099999904632568,0.0,3108.0,3124.0,0.0,0.0,0.0,snow covered,0.256849825382233,-5.80533742904663,100.0,520.533386230469
frame_00013.png,1769536658609631953,1769536658.609632,42.30002445116094,-83.69796437843803,236.177734375,0.727175632076385,0.6864239691353153,-0.006116280973445313,0.0005708045930362259,-0.00079,0.0006500000000000001,-0.00025000000000000006,-0.0944,-0.060500000000000005,-9.7781,0.008291780470206156,0.01854821540502296,0.0,0.0,0.0,0.0,0.0,0.0,0.0,0.0,0.0,0.0,5.099999904632568,0.0,3108.0,3124.0,0.0,0.0,0.0,snow covered,0.256849825382233,-5.80533742904663,100.0,520.533386230469
frame_00014.png,1769536658630268510,1769536658.6302683,42.30002445006224,-83.69796437948335,236.17784118652344,0.7271735697913607,0.6864261110819525,-0.006120924281132766,0.0005724576322423108,-1e-05,-0.0010400000000000001,-0.0006700000000000001,-0.0844,-0.0767,-9.794400000000001,0.008399353499588069,0.018788849817368537,0.0,0.0,0.0,0.0,0.0,0.0,0.0,0.0,0.0,0.0,5.099999904632568,0.0,3108.0,3124.0,0.0,0.0,0.0,snow covered,0.256849825382233,-5.80533742904663,100.0,520.533386230469
frame_00015.png,1769536658651747384,1769536658.6517472,42.30002445164173,-83.6979643814702,236.17784118652344,0.7271704883506486,0.6864293587171146,-0.006123524916765511,0.0005646288015655906,0.0004900000000000001,0.0004500000000000001,1e-05,-0.0995,-0.0582,-9.7878,0.008207468082216254,0.018359613651832828,0.0,0.0,0.0,0.0,0.0,0.0,0.0,0.0,0.0,0.0,5.099999904632568,0.0,3108.0,3124.0,0.0,0.0,0.0,snow covered,0.256849825382233,-5.80533742904663,100.0,520.533386230469
frame_00016.png,1769536658671912195,1769536658.6719122,42.30002445059229,-83.69796438237681,236.17794799804688,0.7271708405452866,0.6864290254006021,-0.006119767320986499,0.0005569525816919853,0.00143,9e-05,-0.00103,-0.0869,-0.06430000000000001,-9.8062,0.008218971662542134,0.018385346470807,0.0,0.0,0.0,0.0,0.0,0.0,0.0,0.0,0.0,0.0,5.099999904632568,0.0,3108.0,3124.0,0.0,0.0,0.0,snow covered,0.256849825382233,-5.80533742904663,100.0,520.533386230469
frame_00017.png,1769536658692990039,1769536658.69299,42.30002444963689,-83.69796438337409,236.17803955078125,0.7271660309054486,0.6864341340206618,-0.006117785533263813,0.0005620041717979453,-0.0005400000000000001,-0.0002800000000000001,0.00013000000000000002,-0.0755,-0.0661,-9.8068,0.00832370845571604,0.01861963639292944,0.0,0.0,0.0,0.0,0.0,0.0,0.0,0.0,0.0,0.0,5.099999904632568,0.0,3108.0,3124.0,0.0,0.0,0.0,snow covered,0.256849825382233,-5.80533742904663,100.0,520.533386230469
frame_00018.png,1769536658714443252,1769536658.7144432,42.30002445123538,-83.6979643853353,236.17803955078125,0.7271673852785009,0.6864326466502972,-0.006122152325548589,0.0005784901030003596,-0.00036,-0.0011200000000000003,0.00033000000000000005,-0.079,-0.0755,-9.800600000000001,0.008622188196971766,0.019287317665334026,0.0,0.0,0.0,0.0,0.0,0.0,0.0,0.0,0.0,0.0,5.099999904632568,0.0,3108.0,3124.0,0.0,0.0,0.0,snow covered,0.256849825382233,-5.80533742904663,100.0,520.533386230469
frame_00019.png,1769536658732873702,1769536658.7328737,42.30002445045363,-83.69796438640104,236.1781463623047,0.7271666897412358,0.6864334137502741,-0.006117832408510443,0.0005881705022316216,-0.0009300000000000002,0.00035000000000000005,-0.00025000000000000006,-0.0859,-0.0878,-9.8139,0.008797874520086416,0.019680317428962108,0.0,0.0,0.0,0.0,0.0,0.0,0.0,0.0,0.0,0.0,5.099999904632568,0.0,3108.0,3124.0,0.0,0.0,0.0,snow covered,0.256849825382233,-5.80533742904663,100.0,520.533386230469
frame_00020.png,1769536658753615818,1769536658.7536159,42.30002444973842,-83.69796438750016,236.17823791503906,0.7271646249739966,0.6864355251975165,-0.006126050284160144,0.0005911354772405535,0.00044000000000000007,-0.00136,-0.00031,-0.0805,-0.1028,-9.8079,0.008867038568776986,0.019835033256039993,0.0,0.0,0.0,0.0,0.0,0.0,0.0,0.0,0.0,0.0,5.099999904632568,0.0,3108.0,3124.0,0.0,0.0,0.0,snow covered,0.256849825382233,-5.80533742904663,100.0,520.533386230469
frame_00021.png,1769536658774660446,1769536658.7746603,42.300024451446234,-83.69796438968689,236.17825317382812,0.7271618839904364,0.6864384398220339,-0.006125219037252886,0.0005869394487990604,0.00055,0.0006900000000000001,-0.0007800000000000001,-0.07490000000000001,-0.1039,-9.8162,0.009048547152201972,0.02024105706664668,0.0,0.0,0.0,0.0,0.0,0.0,0.0,0.0,0.0,0.0,5.099999904632568,0.0,3108.0,3124.0,0.0,0.0,0.0,snow covered,0.256849825382233,-5.80533742904663,100.0,520.533386230469
frame_00022.png,1769536658796705986,1769536658.796706,42.30002445068568,-83.69796439079114,236.17832946777344,0.7271659907487322,0.6864341595777622,-0.006116057465015308,0.0006002535053090926,-0.0009800000000000002,-0.0006900000000000001,0.0008000000000000001,-0.0886,-0.0916,-9.8114,0.009214455872378964,0.0206121849191594,0.0,0.0,0.0,0.0,0.0,0.0,0.0,0.0,0.0,0.0,5.099999904632568,0.0,3108.0,3124.0,0.0,0.0,0.0,snow covered,0.256849825382233,-5.80533742904663,100.0,520.533386230469
frame_00023.png,1769536658879945671,1769536658.8799458,42.300024450528866,-83.69796439675936,236.17852783203125,0.7271745639561499,0.6864251737325546,-0.006104314291829928,0.0006097117697553729,-0.00015000000000000001,0.00072,0.0011800000000000003,-0.0984,-0.06770000000000001,-9.7728,0.00882265855758247,0.019735757833798533,0.0,0.0,0.0,0.0,0.0,0.0,0.0,0.0,0.0,0.0,5.099999904632568,0.0,3108.0,3124.0,0.0,0.0,0.0,snow covered,0.256849825382233,-5.80533742904663,100.0,520.533386230469
frame_00024.png,1769536658898425595,1769536658.8984256,42.30002445219909,-83.69796439909868,236.17852783203125,0.7271738894000288,0.6864259066512431,-0.0061033014723007786,0.0005991360378672771,0.0013800000000000002,0.00058,-0.00018,-0.1066,-0.06330000000000001,-9.793700000000001,0.008631692340674794,0.019308577864549075,0.0,0.0,0.0,0.0,0.0,0.0,0.0,0.0,0.0,0.0,5.099999904632568,0.0,3108.0,3124.0,0.0,0.0,0.0,snow covered,0.256849825382233,-5.80533742904663,100.0,520.533386230469
frame_00025.png,1769536658918901776,1769536658.9189017,42.30002445160677,-83.6979644003075,236.17857360839844,0.7271800635252217,0.6864193286805021,-0.0061072654813801785,0.0006014429343341393,-0.00020000000000000004,-0.00051,0.0019100000000000002,-0.0994,-0.07200000000000001,-9.7955,0.008538409217939798,0.019099909115978253,0.0,0.0,0.0,0.0,0.0,0.0,0.0,0.0,0.0,0.0,5.099999904632568,0.0,3108.0,3124.0,0.0,0.0,0.0,snow covered,0.256849825382233,-5.80533742904663,100.0,520.533386230469
frame_00026.png,1769536658939477485,1769536658.9394774,42.300024451102615,-83.69796440148818,236.17860412597656,0.727178344916671,0.6864211253831207,-0.006109788648262316,0.0006031539562850602,-0.00029,4e-05,-0.00044000000000000007,-0.0713,-0.062400000000000004,-9.810500000000001,0.008755391341845315,0.019585285108227463,0.0,0.0,0.0,0.0,0.0,0.0,0.0,0.0,0.0,0.0,5.099999904632568,0.0,3108.0,3124.0,0.0,0.0,0.0,snow covered,0.256849825382233,-5.80533742904663,100.0,520.533386230469
frame_00027.png,1769536658960216469,1769536658.9602165,42.30002445279849,-83.69796440373973,236.17860412597656,0.7271845253607024,0.6864145928562813,-0.00610831938497648,0.0006010192731258305,0.00025000000000000006,0.0006500000000000001,-0.0008500000000000001,-0.0747,-0.07390000000000001,-9.8042,0.009152591659096024,0.020473798385898263,0.0,0.0,0.0,0.0,0.0,0.0,0.0,0.0,0.0,0.0,5.099999904632568,0.0,3108.0,3124.0,0.0,0.0,0.0,snow covered,0.256849825382233,-5.80533742904663,100.0,520.533386230469
frame_00028.png,1769536658980923839,1769536658.980924,42.30002445249185,-83.69796440492705,236.17864990234375,0.7271855511391917,0.6864135174147621,-0.006106665373254957,0.0006049485128851399,-0.0006900000000000001,-2e-05,-0.00036,-0.0872,-0.0668,-9.8107,0.009356037851483381,0.020928895311497237,0.0,0.0,0.0,0.0,0.0,0.0,0.0,0.0,0.0,0.0,5.099999904632568,0.0,3108.0,3124.0,0.0,0.0,0.0,snow covered,0.256849825382233,-5.80533742904663,100.0,520.533386230469
frame_00029.png,1769536659001589695,1769536659.0015898,42.30002445224494,-83.69796440613626,236.17869567871094,0.7271783439132773,0.6864211040842668,-0.0061122725865187764,0.0006034360840754629,0.0009000000000000002,-0.0005600000000000002,-0.00158,-0.08,-0.08120000000000001,-9.8101,0.009554925216989044,0.021373794414891473,0.0,0.0,0.0,0.0,0.0,0.0,0.0,0.0,0.0,0.0,5.099999904632568,0.0,3108.0,3124.0,0.0,0.0,0.0,snow covered,0.256849825382233,-5.80533742904663,100.0,520.533386230469
frame_00030.png,1769536659022210043,1769536659.0222101,42.300024454066715,-83.69796440838732,236.1787109375,0.7271745673293268,0.6864251005434544,-0.006112653204481348,0.0006045197405019557,-0.00037000000000000005,0.00032,9e-05,-0.09570000000000001,-0.0945,-9.7956,0.009737419498711394,0.021782023173447466,0.0,0.0,0.0,0.0,0.0,0.0,0.0,0.0,0.0,0.0,5.099999904632568,0.0,3108.0,3124.0,0.0,0.0,0.0,snow covered,0.256849825382233,-5.80533742904663,100.0,520.533386230469
frame_00031.png,1769536659043038568,1769536659.0430384,42.30002445396436,-83.69796440973103,236.17874145507812,0.7271708027769158,0.6864290844419143,-0.00611412165249405,0.0005942536743653933,0.0003800000000000001,0.00079,-0.0008600000000000002,-0.08070000000000001,-0.09330000000000001,-9.8047,0.009919927563671016,0.022190282764278244,0.0,0.0,0.0,0.0,0.0,0.0,0.0,0.0,0.0,0.0,5.099999904632568,0.0,3108.0,3124.0,0.0,0.0,0.0,snow covered,0.256849825382233,-5.80533742904663,100.0,520.533386230469
frame_00032.png,1769536659063632618,1769536659.0636327,42.30002445418638,-83.69796440965115,236.1785888671875,0.7271732100617876,0.6864265056577564,-0.006117858356642232,0.0005888191959648953,0.00025000000000000006,0.00015000000000000001,-0.00021000000000000004,-0.0761,-0.0884,-9.8027,0.01010800299714693,0.022610996224437855,0.0,0.0,0.0,0.0,0.0,0.0,0.0,0.0,0.0,0.0,5.099999904632568,0.0,3108.0,3124.0,0.0,0.0,0.0,snow covered,0.256849825382233,-5.80533742904663,100.0,520.533386230469
frame_00033.png,1769536659086499464,1769536659.0864997,42.30002445609956,-83.69796441204133,236.1785888671875,0.7271691051976078,0.6864308835398942,-0.0061157316154789206,0.000576537559927974,0.00032,0.0012600000000000003,-0.0009100000000000001,-0.08020000000000001,-0.0891,-9.8119,0.010297256556498309,0.023034345081493327,0.0,0.0,0.0,0.0,0.0,0.0,0.0,0.0,0.0,0.0,5.099999904632568,0.0,3108.0,3124.0,0.0,0.0,0.0,snow covered,0.256849825382233,-5.80533742904663,100.0,520.533386230469
frame_00034.png,1769536659106634629,1769536659.1066349,42.30002445647301,-83.6979644122395,236.17843627929688,0.7271749301133801,0.6864246540420752,-0.006121614801805788,0.000584097626093604,0.00026000000000000003,-0.0008800000000000001,0.0006300000000000001,-0.0884,-0.1028,-9.7985,0.010456428567819134,0.023390403320497334,0.0,0.0,0.0,0.0,0.0,0.0,0.0,0.0,0.0,0.0,5.099999904632568,0.0,3108.0,3124.0,0.0,0.0,0.0,snow covered,0.256849825382233,-5.80533742904663,100.0,520.533386230469
frame_00035.png,1769536659125842890,1769536659.125843,42.300024456870915,-83.69796441247257,236.17828369140625,0.7271687581303702,0.6864311526138485,-0.00612671706610819,0.0005772853283227599,0.0012100000000000001,0.0005300000000000001,-0.0011900000000000003,-0.0998,-0.0935,-9.7865,0.010347236064257963,0.02314614624158121,0.0,0.0,0.0,0.0,0.0,0.0,0.0,0.0,0.0,0.0,5.099999904632568,0.0,3108.0,3124.0,0.0,0.0,0.0,snow covered,0.256849825382233,-5.80533742904663,100.0,520.533386230469
frame_00036.png,1769536659146765159,1769536659.146765,42.300024458859575,-83.69796441512409,236.17828369140625,0.7271694445731686,0.6864304651450526,-0.006122154060991348,0.0005784717365407803,-0.00064,0.00042000000000000007,0.0005000000000000001,-0.0969,-0.1003,-9.8012,0.010336673328050883,0.023122518034450142,0.0,0.0,0.0,0.0,0.0,0.0,0.0,0.0,0.0,0.0,5.099999904632568,0.0,3108.0,3124.0,0.0,0.0,0.0,snow covered,0.256849825382233,-5.80533742904663,100.0,520.533386230469
frame_00037.png,1769536659169347635,1769536659.1693475,42.30002445934632,-83.69796441568907,236.17813110351562,0.7271728671471723,0.6864267868091087,-0.006127328428757439,0.0005860735529778197,-0.0004500000000000001,-0.0018700000000000004,-0.0005300000000000001,-0.0978,-0.0855,-9.8041,0.010420086001773911,0.023309107180808135,0.0,0.0,0.0,0.0,0.0,0.0,0.0,0.0,0.0,0.0,5.099999904632568,0.0,3108.0,3124.0,0.0,0.0,0.0,snow covered,0.256849825382233,-5.80533742904663,100.0,520.533386230469
frame_00038.png,1769536659211012985,1769536659.2110128,42.30002446180923,-83.69796441901745,236.177978515625,0.7271810944941056,0.6864180426309257,-0.00612970024909942,0.0005944206756643951,-0.0011,-0.0005900000000000001,0.0013900000000000002,-0.0873,-0.08220000000000001,-9.7881,0.010130931130118327,0.02266228508220689,0.0,0.0,0.0,0.0,0.0,0.0,0.0,0.0,0.0,0.0,5.099999904632568,0.0,3108.0,3124.0,0.0,0.0,0.0,snow covered,0.256849825382233,-5.80533742904663,100.0,520.533386230469
frame_00039.png,1769536659229543862,1769536659.229544,42.30002446233244,-83.69796441969646,236.17782592773438,0.727176983582442,0.6864223504441157,-0.006135813389841269,0.0005857924218769109,0.0021200000000000004,0.0002800000000000001,-0.0018800000000000004,-0.0999,-0.0669,-9.7887,0.010037974392984178,0.02245434643864203,0.0,0.0,0.0,0.0,0.0,0.0,0.0,0.0,0.0,0.0,5.099999904632568,0.0,3108.0,3108.0,0.0,0.0,0.0,snow covered,0.256849825382233,-5.80533742904663,100.0,520.533386230469
frame_00040.png,1769536659250417077,1769536659.2504172,42.30002446285664,-83.69796442037507,236.1776885986328,0.7271831612378494,0.6864158547556763,-0.00613020510886071,0.0005873137875795488,0.00017,0.0011300000000000001,0.0009400000000000002,-0.0998,-0.0758,-9.8047,0.00985058851758972,0.022035175478537148,0.0,0.0,0.0,0.0,0.0,0.0,0.0,0.0,0.0,0.0,5.099999904632568,0.0,3108.0,3092.0,0.0,0.0,0.0,snow covered,0.256849825382233,-5.80533742904663,100.0,520.533386230469
frame_00041.png,1769536659270863364,1769536659.2708633,42.30002446475996,-83.6979644231036,236.17767333984375,0.7271769877965164,0.6864223778507478,-0.006132541207121545,0.0005827034007752016,0.00055,0.0005900000000000001,-0.00072,-0.1004,-0.0684,-9.8118,0.009655923410923218,0.021599721314830584,0.0,0.0,0.0,0.0,0.0,0.0,0.0,0.0,0.0,0.0,5.099999904632568,0.0,3108.0,3088.0,0.0,0.0,0.0,snow covered,0.256849825382233,-5.80533742904663,100.0,520.533386230469
frame_00042.png,1769536659291578198,1769536659.291578,42.30002446528091,-83.69796442378,236.17752075195312,0.7271769939302932,0.6864224723832101,-0.006121494366016589,0.0005798383828712842,-0.0007800000000000001,0.0006500000000000001,0.00055,-0.10060000000000001,-0.065,-9.7984,0.00957432378401899,0.02141718784542344,0.0,0.0,0.0,0.0,0.0,0.0,0.0,0.0,0.0,0.0,5.099999904632568,0.0,3108.0,3084.0,0.0,0.0,0.0,snow covered,0.256849825382233,-5.80533742904663,100.0,520.533386230469
frame_00043.png,1769536659312112732,1769536659.3121126,42.300024466008836,-83.69796442276855,236.17726135253906,0.7271811163473708,0.6864181397117388,-0.0061178824340634656,0.0005770762429695097,0.00026000000000000003,-0.00027000000000000006,0.0009200000000000001,-0.0984,-0.06520000000000001,-9.814300000000001,0.009484900933445358,0.02121715429406126,0.0,0.0,0.0,0.0,0.0,0.0,0.0,0.0,0.0,0.0,5.099999904632568,0.0,3108.0,3084.0,0.0,0.0,0.0,snow covered,0.256849825382233,-5.80533742904663,100.0,520.533386230469
frame_00044.png,1769536659332780435,1769536659.3327806,42.30002446784159,-83.69796442531536,236.17724609375,0.727178710212059,0.6864206361144659,-0.006123595810414976,0.0005790551690318265,1e-05,-0.0007600000000000002,0.00031,-0.07740000000000001,-0.0674,-9.8187,0.00969518943857605,0.021687557062728312,0.0,0.0,0.0,0.0,0.0,0.0,0.0,0.0,0.0,0.0,5.099999904632568,0.0,3108.0,3080.0,0.0,0.0,0.0,snow covered,0.256849825382233,-5.80533742904663,100.0,520.533386230469
frame_00045.png,1769536659353574349,1769536659.3535745,42.30002446864117,-83.6979644242306,236.177001953125,0.7271766491364631,0.6864227810454749,-0.006127855160274975,0.0005796581714440524,0.0007600000000000002,-0.0009800000000000002,-0.00158,-0.07970000000000001,-0.06860000000000001,-9.794,0.01000626095834352,0.022383405388156957,0.0,0.0,0.0,0.0,0.0,0.0,0.0,0.0,0.0,0.0,5.099999904632568,0.0,3108.0,3080.0,0.0,0.0,0.0,snow covered,0.256849825382233,-5.80533742904663,100.0,520.533386230469
frame_00046.png,1769536659374503408,1769536659.3745034,42.300024469454776,-83.69796442326005,236.17677307128906,0.7271828391656763,0.6864161932792548,-0.0061324412129311525,0.0005667377990097185,0.0,0.00062,0.0016700000000000003,-0.0796,-0.06770000000000001,-9.8093,0.010218209355903134,0.02285752123659396,0.0,0.0,0.0,0.0,0.0,0.0,0.0,0.0,0.0,0.0,5.099999904632568,0.0,3108.0,3080.0,0.0,0.0,0.0,snow covered,0.256849825382233,-5.80533742904663,100.0,520.533386230469
frame_00047.png,1769536659395125515,1769536659.3951254,42.3000244714011,-83.69796442566485,236.1767578125,0.7271807726485778,0.6864183168991125,-0.006139306752557095,0.0005718637993355328,0.0009800000000000002,-0.00041000000000000005,-0.00099,-0.0781,-0.0721,-9.802900000000001,0.010524500440819791,0.023542676016087425,0.0,0.0,0.0,0.0,0.0,0.0,0.0,0.0,0.0,0.0,5.099999904632568,0.0,3108.0,3080.0,0.0,0.0,0.0,snow covered,0.256849825382233,-5.80533742904663,100.0,520.533386230469
frame_00048.png,1769536659415690899,1769536659.415691,42.30002447240491,-83.6979644246853,236.176513671875,0.7271821486867085,0.6864168440722215,-0.006141326406877933,0.000568256348435972,0.00037000000000000005,0.0008300000000000001,0.0006100000000000001,-0.0839,-0.0762,-9.797,0.010730846014343405,0.024004258683325338,0.0,0.0,0.0,0.0,0.0,0.0,0.0,0.0,0.0,0.0,5.099999904632568,0.0,3108.0,3080.0,0.0,0.0,0.0,snow covered,0.256849825382233,-5.80533742904663,100.0,520.533386230469
frame_00049.png,1769536659436300510,1769536659.4363005,42.30002447343992,-83.69796442380041,236.17630004882812,0.7271879916172412,0.6864105953393552,-0.0061488206258000395,0.0005580846410122124,0.00029,0.00011000000000000002,0.0006100000000000001,-0.0981,-0.08030000000000001,-9.793800000000001,0.010737399366069992,0.02401891813793661,0.0,0.0,0.0,0.0,0.0,0.0,0.0,0.0,0.0,0.0,5.099999904632568,0.0,3108.0,3080.0,0.0,0.0,0.0,snow covered,0.256849825382233,-5.80533742904663,100.0,520.533386230469
frame_00050.png,1769536659457124674,1769536659.4571247,42.30002447546161,-83.6979644261426,236.17626953125,0.7271903978045223,0.6864079518546597,-0.006159947756290916,0.0005513757626516517,0.0012900000000000001,-0.0009000000000000002,-0.00111,-0.1139,-0.0853,-9.7889,0.010440761223356495,0.023355356410975078,0.0,0.0,0.0,0.0,0.0,0.0,0.0,0.0,0.0,0.0,5.099999904632568,0.0,3108.0,3080.0,0.0,0.0,0.0,snow covered,0.256849825382233,-5.80533742904663,100.0,520.533386230469
frame_00051.png,1769536659477867295,1769536659.4778674,42.30002447651223,-83.69796442535394,236.17604064941406,0.7271924535402163,0.6864056873717103,-0.006169521596428536,0.0005521423741763928,0.0008300000000000001,-0.00039000000000000005,0.0007800000000000001,-0.0932,-0.08460000000000001,-9.793800000000001,0.010529996440016396,0.02355497023653028,0.0,0.0,0.0,0.0,0.0,0.0,0.0,0.0,0.0,0.0,5.099999904632568,0.0,3108.0,3080.0,0.0,0.0,0.0,snow covered,0.256849825382233,-5.80533742904663,100.0,520.533386230469
frame_00052.png,1769536659498424564,1769536659.4984245,42.30002447762188,-83.69796442462282,236.1758270263672,0.7271979443433301,0.6863999313228594,-0.00616251931072379,0.0005544173101432741,-0.0013000000000000002,0.00135,0.0010600000000000002,-0.1009,-0.0935,-9.8102,0.010523084773942199,0.023539509254222265,0.0,0.0,0.0,0.0,0.0,0.0,0.0,0.0,0.0,0.0,5.099999904632568,0.0,3056.0,3084.0,0.0,0.0,0.0,snow covered,0.256849825382233,-5.80533742904663,100.0,520.533386230469
frame_00053.png,1769536659518924280,1769536659.5189242,42.30002447959316,-83.69796442704748,236.17579650878906,0.7271934874395325,0.6864046948255792,-0.00615817308078111,0.0005510455887849223,0.0,0.00014000000000000004,-0.0004000000000000001,-0.0985,-0.0893,-9.8156,0.010306263738737644,0.023054493607731787,0.0,0.0,0.0,0.0,0.0,0.0,0.0,0.0,0.0,0.0,5.099999904632568,0.0,3056.0,3084.0,0.0,0.0,0.0,snow covered,0.256849825382233,-5.80533742904663,100.0,520.533386230469
frame_00054.png,1769536659539643254,1769536659.539643,42.30002448067204,-83.69796442660747,236.1755828857422,0.7271855989770896,0.6864130880568298,-0.006154510569355055,0.0005469773944662437,-0.0005600000000000002,0.0007000000000000001,-0.0010400000000000001,-0.0979,-0.0913,-9.806700000000001,0.010282489640316207,0.02300131237600894,0.0,0.0,0.0,0.0,0.0,0.0,0.0,0.0,0.0,0.0,5.099999904632568,0.0,3024.0,3080.0,0.0,0.0,0.0,snow covered,0.256849825382233,-5.80533742904663,100.0,520.533386230469
frame_00055.png,1769536659560275255,1769536659.5602753,42.30002448131909,-83.69796442440361,236.1752471923828,0.7271831849011298,0.686415673424176,-0.006150271034566968,0.0005595005679823145,-0.00034,-0.0006300000000000001,-0.0003800000000000001,-0.095,-0.09240000000000001,-9.8078,0.010277792355966795,0.022990804832756364,0.0,0.0,0.0,0.0,0.0,0.0,0.0,0.0,0.0,0.0,5.099999904632568,0.0,2828.0,3068.0,0.0,0.0,0.0,snow covered,0.256849825382233,-5.80533742904663,100.0,520.533386230469
frame_00056.png,1769536659580990706,1769536659.5809908,42.30002448328854,-83.697964426997,236.17523193359375,0.7271866215730148,0.6864121078629071,-0.006142074474579564,0.000557230270720153,-0.00019000000000000004,0.0008100000000000001,-0.0008400000000000001,-0.0892,-0.1052,-9.8078,0.010360210095993689,0.023175168372132123,0.0,0.0,0.0,0.0,0.0,0.0,0.0,0.0,0.0,0.0,5.099999904632568,0.0,2712.0,3020.0,0.0,0.0,0.0,snow covered,0.256849825382233,-5.80533742904663,100.0,520.533386230469
frame_00057.png,1769536659601679263,1769536659.6016793,42.30002448402378,-83.6979644251557,236.17491149902344,0.727184892598374,0.6864139782458947,-0.006136462663743247,0.0005712016388579773,-0.00109,-0.0005400000000000001,0.00026000000000000003,-0.0881,-0.0855,-9.8004,0.010543631880955846,0.02358547189978537,0.0,0.0,0.0,0.0,0.0,0.0,0.0,0.0,0.0,0.0,5.099999904632568,0.0,2596.0,3020.0,0.0,0.0,0.0,snow covered,0.256849825382233,-5.80533742904663,100.0,520.533386230469
frame_00058.png,1769536659622299934,1769536659.6223,42.300024484787045,-83.697964423384,236.17459106445312,0.7271890136872692,0.6864096670431482,-0.006130427838440266,0.0005702777995016169,-0.00029,0.0004000000000000001,0.0010600000000000002,-0.0898,-0.0828,-9.7956,0.010445586348303983,0.023366149925975112,0.0,0.0,0.0,0.0,0.0,0.0,0.0,0.0,0.0,0.0,5.099999904632568,0.0,2504.0,2884.0,0.0,0.0,0.0,snow covered,0.256849825382233,-5.80533742904663,100.0,520.533386230469
frame_00059.png,1769536659643038081,1769536659.6430383,42.30002448679493,-83.69796442609417,236.174560546875,0.7271917575161584,0.6864067216369577,-0.006134691219050159,0.0005708378156886224,0.0006900000000000001,0.0009000000000000002,-0.0009800000000000002,-0.0887,-0.0656,-9.803600000000001,0.010464727554164005,0.02340896765501163,0.0,0.0,0.0,0.0,0.0,0.0,0.0,0.0,0.0,0.0,5.099999904632568,0.0,2408.0,2884.0,0.0,0.0,0.0,snow covered,0.256849825382233,-5.80533742904663,100.0,520.533386230469
frame_00060.png,1769536659663791833,1769536659.663792,42.30002448762574,-83.69796442448585,236.17425537109375,0.7271897011948185,0.686408952048688,-0.006128994457566646,0.000569605610380523,0.0006100000000000001,0.0013400000000000003,-0.00025000000000000006,-0.108,-0.0618,-9.8045,0.010470541330040837,0.023421972722821552,0.0,0.0,0.0,0.0,0.0,0.0,0.0,0.0,0.0,0.0,5.099999904632568,0.0,2324.0,2800.0,0.0,0.0,0.0,snow covered,0.256849825382233,-5.80533742904663,100.0,520.533386230469
frame_00061.png,1769536659684372090,1769536659.684372,42.30002448845342,-83.69796442297758,236.1739501953125,0.7271917533419648,0.6864067981799502,-0.0061260296150613324,0.0005771004621009527,-0.00099,-0.00035000000000000005,-3e-05,-0.08700000000000001,-0.0655,-9.7996,0.010584745387426864,0.023677440346950653,0.0,0.0,0.0,0.0,0.0,0.0,0.0,0.0,0.0,0.0,5.099999904632568,0.0,2276.0,2600.0,0.0,0.0,0.0,snow covered,0.256849825382233,-5.80533742904663,100.0,520.533386230469
frame_00062.png,1769536659705146124,1769536659.705146,42.30002449043833,-83.69796442554383,236.17391967773438,0.7271893559921674,0.6864093370907284,-0.006126591740120787,0.0005721538376271523,0.0014200000000000003,0.0006900000000000001,-0.0005400000000000001,-0.09570000000000001,-0.066,-9.7959,0.01041013718743988,0.023286852280071765,0.0,0.0,0.0,0.0,0.0,0.0,0.0,0.0,0.0,0.0,5.099999904632568,0.0,2252.0,2600.0,0.0,0.0,0.0,snow covered,0.256849825382233,-5.80533742904663,100.0,520.533386230469
frame_00063.png,1769536659725771582,1769536659.7257714,42.30002449131342,-83.69796442394652,236.17361450195312,0.7271931336951029,0.6864054229399212,-0.006116699873544625,0.0005724054689031492,0.00019000000000000004,0.00079,0.00030000000000000003,-0.08900000000000001,-0.0495,-9.8,0.010537657478508227,0.023572107519974194,0.0,0.0,0.0,0.0,0.0,0.0,0.0,0.0,0.0,0.0,5.099999904632568,0.0,2252.0,2420.0,0.0,0.0,0.0,snow covered,0.256849825382233,-5.80533742904663,100.0,520.533386230469
frame_00064.png,1769536659746648047,1769536659.746648,42.30002449223359,-83.69796442241555,236.17332458496094,0.7271958784837667,0.6864026025642161,-0.006106545484887615,0.0005758572172357918,-0.0018900000000000002,5.000000000000001e-05,0.00036,-0.0854,-0.0585,-9.8131,0.01056636729143765,0.02363632964890854,0.0,0.0,0.0,0.0,0.0,0.0,0.0,0.0,0.0,0.0,5.099999904632568,0.0,2224.0,2420.0,0.0,0.0,0.0,snow covered,0.256849825382233,-5.80533742904663,100.0,520.533386230469
frame_00065.png,1769536659767433629,1769536659.7674336,42.30002449422249,-83.69796442470006,236.17327880859375,0.7271921047597242,0.6864066020878783,-0.0061065015571288486,0.0005744771779834569,-0.00024,-0.0009500000000000001,-0.0012600000000000003,-0.1022,-0.0627,-9.8079,0.0103908278098641,0.0232436583609974,0.0,0.0,0.0,0.0,0.0,0.0,0.0,0.0,0.0,0.0,5.099999904632568,0.0,2224.0,2340.0,0.0,0.0,0.0,snow covered,0.256849825382233,-5.80533742904663,100.0,520.533386230469
frame_00066.png,1769536659788010866,1769536659.7880108,42.30002449514574,-83.69796442306439,236.17300415039062,0.7271934858856949,0.6864051383268452,-0.006107328497389257,0.0005663060488947731,-0.00011000000000000002,0.00015000000000000001,-0.00024,-0.09530000000000001,-0.06860000000000001,-9.7946,0.010390767761697482,0.023243524036851565,0.0,0.0,0.0,0.0,0.0,0.0,0.0,0.0,0.0,0.0,5.099999904632568,0.0,2200.0,2228.0,0.0,0.0,0.0,snow covered,0.256849825382233,-5.80533742904663,100.0,520.533386230469
frame_00067.png,1769536659808693836,1769536659.8086936,42.300024496114915,-83.69796442149801,236.1727294921875,0.7271938313837095,0.6864047259131967,-0.006112881164523748,0.0005626058823349224,0.00042000000000000007,-0.00099,0.00018,-0.0879,-0.0712,-9.8169,0.010403255606897614,0.02327145859729355,0.0,0.0,0.0,0.0,0.0,0.0,0.0,0.0,0.0,0.0,5.099999904632568,0.0,2200.0,2228.0,0.0,0.0,0.0,snow covered,0.256849825382233,-5.80533742904663,100.0,520.533386230469
frame_00068.png,1769536659829451942,1769536659.829452,42.30002449808455,-83.69796442361545,236.1726837158203,0.7271897223553028,0.6864090338938896,-0.006118933203816502,0.0005518569758822547,0.0004000000000000001,0.00032,-0.0008300000000000001,-0.09620000000000001,-0.0926,-9.8139,0.010401422197153449,0.023267357369700436,0.0,0.0,0.0,0.0,0.0,0.0,0.0,0.0,0.0,0.0,5.099999904632568,0.0,2160.0,2220.0,0.0,0.0,0.0,snow covered,0.256849825382233,-5.80533742904663,100.0,520.533386230469
frame_00069.png,1769536659850170504,1769536659.8501706,42.300024498277686,-83.6979644204069,236.17236328125,0.7271900637513267,0.6864086581436201,-0.006120387809497021,0.0005532267871115851,-0.00027000000000000006,0.00039000000000000005,-4e-05,-0.0805,-0.0863,-9.8023,0.010494523292614834,0.02347561893418183,0.0,0.0,0.0,0.0,0.0,0.0,0.0,0.0,0.0,0.0,5.099999904632568,0.0,2160.0,2208.0,0.0,0.0,0.0,snow covered,0.256849825382233,-5.80533742904663,100.0,520.533386230469
frame_00070.png,1769536659875361350,1769536659.8753612,42.300024500499426,-83.69796441948662,236.1719970703125,0.7271962397370112,0.6864021317633364,-0.006118333581922476,0.0005553532923206015,-0.00020000000000000004,-0.00044000000000000007,0.0005000000000000001,-0.0979,-0.0952,-9.7951,0.010383964837260022,0.023228306303060435,0.0,0.0,0.0,0.0,0.0,0.0,0.0,0.0,0.0,0.0,5.099999904632568,0.0,2128.0,2204.0,0.0,0.0,0.0,snow covered,0.256849825382233,-5.80533742904663,100.0,520.533386230469
frame_00071.png,1769536659892100241,1769536659.8921003,42.300024500499426,-83.69796441948662,236.1719970703125,0.7271910913762555,0.6864075490985522,-0.00612254975783633,0.0005545700966236495,-0.00013000000000000002,0.00036,-0.00030000000000000003,-0.1019,-0.1062,-9.8064,0.01016814337322715,0.02274552663730674,0.0,0.0,0.0,0.0,0.0,0.0,0.0,0.0,0.0,0.0,5.099999904632568,0.0,2128.0,2176.0,0.0,0.0,0.0,snow covered,0.256849825382233,-5.80533742904663,100.0,520.533386230469
frame_00072.png,1769536659912468541,1769536659.9124684,42.30002450077379,-83.69796441674313,236.17169189453125,0.7271859404291344,0.686412954220055,-0.0061282406408686456,0.0005558666564529713,-0.0004700000000000001,0.00013000000000000002,-0.0007600000000000002,-0.09480000000000001,-0.09190000000000001,-9.7994,0.01015103407804564,0.022707254170543412,0.0,0.0,0.0,0.0,0.0,0.0,0.0,0.0,0.0,0.0,5.099999904632568,0.0,2108.0,2176.0,0.0,0.0,0.0,snow covered,0.256849825382233,-5.80533742904663,100.0,520.533386230469
frame_00073.png,1769536659932922925,1769536659.9329228,42.300024501079875,-83.6979644141101,236.17138671875,0.7271876593812127,0.6864111361688259,-0.006128160527987412,0.0005530240847477965,-4e-05,0.00013000000000000002,0.00033000000000000005,-0.1051,-0.08320000000000001,-9.788,0.009959977737610112,0.022279872600369566,0.0,0.0,0.0,0.0,0.0,0.0,0.0,0.0,0.0,0.0,5.099999904632568,0.0,2108.0,2160.0,0.0,0.0,0.0,snow covered,0.256849825382233,-5.80533742904663,100.0,520.533386230469
frame_00074.png,1769536659954003598,1769536659.9540038,42.30002450300211,-83.69796441643676,236.1713409423828,0.7271832046370518,0.6864159146022819,-0.006121996461538808,0.0005479359683963135,-0.00039000000000000005,0.0016500000000000002,0.00018,-0.0881,-0.093,-9.7962,0.010049345480750713,0.022479782879710503,0.0,0.0,0.0,0.0,0.0,0.0,0.0,0.0,0.0,0.0,5.099999904632568,0.0,2076.0,2144.0,0.0,0.0,0.0,snow covered,0.256849825382233,-5.80533742904663,100.0,520.533386230469
frame_00075.png,1769536659974117402,1769536659.9741173,42.300024503329084,-83.6979644140803,236.17105102539062,0.7271804495408849,0.6864188632766387,-0.006117695492950015,0.000558341633258509,-0.0020800000000000003,-0.0017500000000000003,-0.0004500000000000001,-0.1,-0.0864,-9.8035,0.009944827305133025,0.022245981991944268,0.0,0.0,0.0,0.0,0.0,0.0,0.0,0.0,0.0,0.0,5.099999904632568,0.0,2076.0,2120.0,0.0,0.0,0.0,snow covered,0.256849825382233,-5.80533742904663,100.0,520.533386230469
frame_00076.png,1769536659995038615,1769536659.9950387,42.300024503714546,-83.69796441185632,236.17074584960938,0.7271777068181063,0.6864217474956231,-0.00612041858119018,0.0005547505801456504,0.0008900000000000001,0.00011000000000000002,-0.0008800000000000001,-0.09770000000000001,-0.0931,-9.7864,0.009835495744561055,0.022001413850838408,0.0,0.0,0.0,0.0,0.0,0.0,0.0,0.0,0.0,0.0,5.0,0.0,2076.0,2100.0,0.0,0.0,0.0,snow covered,0.256849825382233,-5.80533742904663,100.0,520.533386230469
frame_00077.png,1769536660017095922,1769536660.017096,42.300024503714546,-83.69796441185632,236.17074584960938,0.7271794259328629,0.6864198714369063,-0.006127002058553721,0.0005499475136324806,0.0005900000000000001,0.00042000000000000007,8e-05,-0.0864,-0.0951,-9.7885,0.009932422669605232,0.02221823356654673,0.0,0.0,0.0,0.0,0.0,0.0,0.0,0.0,0.0,0.0,5.0,0.0,2076.0,2100.0,0.0,0.0,0.0,snow covered,0.256849825382233,-5.80533742904663,100.0,520.533386230469
frame_00078.png,1769536660036540046,1769536660.0365403,42.30002450560993,-83.69796441430535,236.17068481445312,0.727178733302773,0.6864206110158176,-0.006125771232499097,0.0005563556893992683,-0.0008900000000000001,-0.0005000000000000001,0.00116,-0.0818,-0.0896,-9.7973,0.010126367454070492,0.022652076412708447,0.0,0.0,0.0,0.0,0.0,0.0,0.0,0.0,0.0,0.0,5.0,0.0,2036.0,2088.0,0.0,0.0,0.0,snow covered,0.256849825382233,-5.80533742904663,100.0,520.533386230469
frame_00079.png,1769536660057055223,1769536660.0570552,42.30002450609803,-83.6979644123611,236.17039489746094,0.7271821716833659,0.6864169779871756,-0.006125247475913264,0.0005503273351629718,0.0009100000000000001,0.0008300000000000001,0.0009100000000000001,-0.0815,-0.0908,-9.8085,0.01021454232456033,0.022849318307501986,0.0,0.0,0.0,0.0,0.0,0.0,0.0,0.0,0.0,0.0,5.0,0.0,2036.0,2076.0,0.0,0.0,0.0,snow covered,0.256849825382233,-5.80533742904663,100.0,520.533386230469
frame_00080.png,1769536660078266676,1769536660.0782666,42.3000245065973,-83.69796441048886,236.1701202392578,0.7271869840023986,0.6864118691499729,-0.006127147564284941,0.0005424483950427776,-0.0004900000000000001,0.0009200000000000001,-0.00024,-0.0757,-0.085,-9.8095,0.010319952184238946,0.02308511383901147,0.0,0.0,0.0,0.0,0.0,0.0,0.0,0.0,0.0,0.0,5.0,0.0,2036.0,2064.0,0.0,0.0,0.0,snow covered,0.256849825382233,-5.80533742904663,100.0,520.533386230469
frame_00081.png,1769536660098590351,1769536660.0985904,42.30002450858085,-83.6979644129715,236.17005920410156,0.7271780547179738,0.6864213318583267,-0.006126253440106742,0.000548566506491079,-0.00096,-0.0006700000000000001,-0.0025900000000000003,-0.0711,-0.0819,-9.8307,0.010616847697370691,0.023749251288156397,0.0,0.0,0.0,0.0,0.0,0.0,0.0,0.0,0.0,0.0,5.0,0.0,2036.0,2044.0,0.0,0.0,0.0,snow covered,0.256849825382233,-5.80533742904663,100.0,520.533386230469
frame_00082.png,1769536660120115855,1769536660.120116,42.30002450814542,-83.69796441038335,236.16983032226562,0.7271787449610488,0.6864205617793335,-0.0061310589327528125,0.0005434701290359936,0.0005300000000000001,-0.00041000000000000005,0.00022000000000000003,-0.08170000000000001,-0.0776,-9.8209,0.01062447639191788,0.023766316220136786,0.0,0.0,0.0,0.0,0.0,0.0,0.0,0.0,0.0,0.0,5.0,0.0,2036.0,2044.0,0.0,0.0,0.0,snow covered,0.256849825382233,-5.80533742904663,100.0,520.533386230469
frame_00083.png,1769536660140413231,1769536660.1404133,42.30002450814542,-83.69796441038335,236.16983032226562,0.7271739369207624,0.6864256704454262,-0.0061290365743203925,0.0005471081946351254,-0.00015000000000000001,7.000000000000002e-05,-0.0013200000000000002,-0.08940000000000001,-0.0819,-9.8223,0.01081563467280825,0.024193925824991688,0.0,0.0,0.0,0.0,0.0,0.0,0.0,0.0,0.0,0.0,5.0,0.0,2036.0,2036.0,0.0,0.0,0.0,snow covered,0.256849825382233,-5.80533742904663,100.0,520.533386230469
frame_00084.png,1769536660161418674,1769536660.1614187,42.30002450776613,-83.69796440793468,236.16961669921875,0.7271801145268815,0.6864191441944753,-0.00612694150492595,0.0005478209476140372,-0.00117,-5.000000000000001e-05,0.0012100000000000001,-0.09090000000000001,-0.08030000000000001,-9.7934,0.010622500911307703,0.023761897188540656,0.0,0.0,0.0,0.0,0.0,0.0,0.0,0.0,0.0,0.0,5.0,0.0,2004.0,2032.0,0.0,0.0,0.0,snow covered,0.256849825382233,-5.80533742904663,100.0,520.533386230469
frame_00085.png,1769536660202388100,1769536660.2023883,42.30002450944824,-83.69796440804583,236.1693572998047,0.7271681088617569,0.6864318175757309,-0.0061327055213273324,0.0005396268000091172,0.00039000000000000005,0.00023000000000000003,0.00039000000000000005,-0.1008,-0.0712,-9.776200000000001,0.010339720096041515,0.023129333471639108,0.0,0.0,0.0,0.0,0.0,0.0,0.0,0.0,0.0,0.0,5.0,0.0,2004.0,2036.0,0.0,0.0,0.0,snow covered,0.256849825382233,-5.80533742904663,100.0,520.533386230469
frame_00086.png,1769536660368400201,1769536660.3684,42.30002451302798,-83.69796440167751,236.1679229736328,0.727164009813726,0.6864361004260523,-0.006141259630820878,0.0005174878211564168,0.00109,0.00117,-0.00026000000000000003,-0.0961,-0.0666,-9.791500000000001,0.009779167928905142,0.02187541190688507,0.0,0.0,0.0,0.0,0.0,0.0,0.0,0.0,0.0,0.0,4.700000286102295,0.0,1980.0,2020.0,0.0,0.0,0.0,snow covered,0.256849825382233,-5.80533742904663,100.0,520.533386230469
frame_00087.png,1769536660388562135,1769536660.3885622,42.30002451302798,-83.69796440167751,236.1679229736328,0.7271712210973137,0.6864283792198682,-0.006150976855364447,0.0005107770073546104,0.00111,0.0007000000000000001,0.0018000000000000004,-0.1155,-0.1053,-9.808200000000001,0.009541928032819611,0.0213447204937355,0.0,0.0,0.0,0.0,0.0,0.0,0.0,0.0,0.0,0.0,4.599999904632568,0.0,1980.0,2012.0,0.0,0.0,0.0,snow covered,0.256849825382233,-5.80533742904663,100.0,520.533386230469
frame_00088.png,1769536660430509022,1769536660.430509,42.30002451262842,-83.69796439945956,236.16761779785156,0.7271708824987364,0.6864286536222474,-0.0061610112493658935,0.0005030633583652708,-0.00044000000000000007,0.0010700000000000002,0.00027000000000000006,-0.1029,-0.11910000000000001,-9.8224,0.00912919469402471,0.020421460778851635,0.0,0.0,0.0,0.0,0.0,0.0,0.0,0.0,0.0,0.0,4.599999904632568,0.0,1980.0,2008.0,0.0,0.0,0.0,snow covered,0.256849825382233,-5.80533742904663,100.0,520.533386230469
frame_00089.png,1769536660450396818,1769536660.450397,42.30002451167672,-83.69796439744124,236.1675262451172,0.7271722471629055,0.6864272240954994,-0.0061584497842054504,0.0005123210448642838,-0.0006300000000000001,-0.0004700000000000001,0.00075,-0.08320000000000001,-0.07150000000000001,-9.8481,0.009209784909641356,0.020601736255773134,0.0,0.0,0.0,0.0,0.0,0.0,0.0,0.0,0.0,0.0,4.599999904632568,0.0,1980.0,2008.0,0.0,0.0,0.0,snow covered,0.256849825382233,-5.80533742904663,100.0,520.533386230469
frame_00090.png,1769536660470941608,1769536660.4709418,42.30002451341993,-83.69796439956437,236.16746520996094,0.7271719059350573,0.6864275968390783,-0.006157338449148959,0.0005105876288013381,0.00042000000000000007,-0.0007800000000000001,0.00042000000000000007,-0.0782,-0.0785,-9.8191,0.009417089452752358,0.021065464080439862,0.0,0.0,0.0,0.0,0.0,0.0,0.0,0.0,0.0,0.0,4.599999904632568,0.0,1980.0,2012.0,0.0,0.0,0.0,snow covered,0.256849825382233,-5.80533742904663,100.0,520.533386230469
frame_00091.png,1769536660491437799,1769536660.491438,42.30002451261974,-83.69796439783248,236.16738891601562,0.7271746619575401,0.6864247615093725,-0.0061486147018538235,0.0005023255782894451,-0.00033000000000000005,-8e-05,0.0,-0.08420000000000001,-0.09280000000000001,-9.8154,0.009410226554058513,0.021050112187835653,0.0,0.0,0.0,0.0,0.0,0.0,0.0,0.0,0.0,0.0,4.599999904632568,0.0,1980.0,2004.0,0.0,0.0,0.0,snow covered,0.256849825382233,-5.80533742904663,100.0,520.533386230469
frame_00092.png,1769536660512577256,1769536660.5125773,42.30002451184343,-83.69796439611467,236.16729736328125,0.7271729508095259,0.6864265271364979,-0.006154427711286388,0.0004954531664955668,0.0010500000000000002,-0.00010000000000000002,-0.0005200000000000001,-0.0916,-0.0728,-9.758700000000001,0.009831672096117489,0.021992860578689058,0.0,0.0,0.0,0.0,0.0,0.0,0.0,0.0,0.0,0.0,4.599999904632568,0.0,1980.0,2004.0,0.0,0.0,0.0,snow covered,0.256849825382233,-5.80533742904663,100.0,520.533386230469
frame_00093.png,1769536660533366880,1769536660.5333667,42.300024513671175,-83.69796439824029,236.167236328125,0.7271660994074628,0.6864337616065728,-0.006158236058586782,0.0004805495119628973,0.0019900000000000004,0.0005600000000000002,-0.0008500000000000001,-0.1028,-0.10020000000000001,-9.7615,0.009613934034023419,0.021505793598068347,0.0,0.0,0.0,0.0,0.0,0.0,0.0,0.0,0.0,0.0,4.599999904632568,0.0,1980.0,2004.0,0.0,0.0,0.0,snow covered,0.256849825382233,-5.80533742904663,100.0,520.533386230469
frame_00094.png,1769536660553855509,1769536660.5538554,42.3000245129912,-83.69796439672572,236.16712951660156,0.7271647155914386,0.6864351116956291,-0.006170494701981571,0.000488697620415454,0.00135,-0.0015,-0.00033000000000000005,-0.0907,-0.081,-9.7654,0.009626587066593879,0.021534097672746513,0.0,0.0,0.0,0.0,0.0,0.0,0.0,0.0,0.0,0.0,4.599999904632568,0.0,1980.0,2004.0,0.0,0.0,0.0,snow covered,0.256849825382233,-5.80533742904663,100.0,520.533386230469
frame_00095.png,1769536660574362954,1769536660.574363,42.30002451236151,-83.69796439538847,236.16700744628906,0.7271626603608424,0.6864372160587306,-0.006179134751050131,0.0004817470394254645,0.0007300000000000002,-0.0006700000000000001,-0.0010400000000000001,-0.09430000000000001,-0.1027,-9.774700000000001,0.00951535572941612,0.021285279845360095,0.0,0.0,0.0,0.0,0.0,0.0,0.0,0.0,0.0,0.0,4.599999904632568,0.0,1980.0,2004.0,0.0,0.0,0.0,snow covered,0.256849825382233,-5.80533742904663,100.0,520.533386230469
frame_00096.png,1769536660595041043,1769536660.595041,42.300024514171035,-83.69796439758251,236.16690063476562,0.7271650580782127,0.686434664958052,-0.00617998569026931,0.00048665275551305556,0.0010000000000000002,-0.00024,0.00032,-0.0757,-0.083,-9.785,0.009710240386200013,0.02172122512950626,0.0,0.0,0.0,0.0,0.0,0.0,0.0,0.0,0.0,0.0,4.5,0.0,1980.0,2004.0,0.0,0.0,0.0,snow covered,0.256849825382233,-5.80533742904663,100.0,520.533386230469
frame_00097.png,1769536660617349064,1769536660.6173491,42.300024512820094,-83.69796439500553,236.16677856445312,0.7271650463247438,0.6864347115213878,-0.006175081657816063,0.000500588255482669,-0.0023300000000000005,-0.00025000000000000006,-0.0008700000000000001,-0.0878,-0.0908,-9.815100000000001,0.009796698439195667,0.021914626606574356,0.0,0.0,0.0,0.0,0.0,0.0,0.0,0.0,0.0,0.0,4.5,0.0,1952.0,2004.0,0.0,0.0,0.0,snow covered,0.256849825382233,-5.80533742904663,100.0,520.533386230469
frame_00098.png,1769536660636666890,1769536660.6366668,42.30002451467807,-83.69796439719079,236.1666717529297,0.7271674520293004,0.6864322771251588,-0.0061623612437560074,0.0005009330150851782,-0.00064,0.0008800000000000001,0.0006600000000000001,-0.07780000000000001,-0.0659,-9.8358,0.009702417267990832,0.021703725283459412,0.0,0.0,0.0,0.0,0.0,0.0,0.0,0.0,0.0,0.0,4.5,0.0,1952.0,2004.0,0.0,0.0,0.0,snow covered,0.256849825382233,-5.80533742904663,100.0,520.533386230469
frame_00099.png,1769536660657038154,1769536660.657038,42.3000245139662,-83.69796439565869,236.16671752929688,0.7271732840070408,0.6864260624295905,-0.006166303731224956,0.0005025356879655553,-4e-05,-0.0007800000000000001,-0.00041000000000000005,-0.0854,-0.0478,-9.8274,0.009835653963898485,0.022001767778003077,0.0,0.0,0.0,0.0,0.0,0.0,0.0,0.0,0.0,0.0,4.400000095367432,0.0,1952.0,2004.0,0.0,0.0,0.0,snow covered,0.256849825382233,-5.80533742904663,100.0,520.533386230469
frame_00100.png,1769536660677648739,1769536660.6776485,42.300024513290644,-83.69796439424638,236.166748046875,0.7271780859948527,0.6864209753613831,-0.00616604550128968,0.0005056833653103898,-0.00019000000000000004,-0.0004000000000000001,0.00014000000000000004,-0.1096,-0.0674,-9.8359,0.009635845751964951,0.02155480879640048,0.0,0.0,0.0,0.0,0.0,0.0,0.0,0.0,0.0,0.0,4.400000095367432,0.0,1952.0,2000.0,0.0,0.0,0.0,snow covered,0.256849825382233,-5.80533742904663,100.0,520.533386230469
frame_00101.png,1769536660698344540,1769536660.6983445,42.30002451509475,-83.69796439617551,236.1666717529297,0.7271839397293155,0.6864147137410117,-0.006174586127996529,0.00048274811683846807,-0.00041000000000000005,0.00075,0.0017600000000000003,-0.08270000000000001,-0.055,-9.829,0.009561671009900848,0.021388884348887603,0.0,0.0,0.0,0.0,0.0,0.0,0.0,0.0,0.0,0.0,4.400000095367432,0.0,1952.0,1992.0,0.0,0.0,0.0,snow covered,0.256849825382233,-5.80533742904663,100.0,520.533386230469
frame_00102.png,1769536660719061088,1769536660.719061,42.30002451444977,-83.69796439464535,236.16673278808594,0.7271746702102634,0.6864244660178431,-0.006182031414023487,0.0004836778984289091,-0.00034,-0.00031,-0.0016200000000000001,-0.0961,-0.0738,-9.8179,0.009369922847846567,0.0209599552152619,0.0,0.0,0.0,0.0,0.0,0.0,0.0,0.0,0.0,0.0,4.400000095367432,0.0,1952.0,1984.0,0.0,0.0,0.0,snow covered,0.256849825382233,-5.80533742904663,100.0,520.533386230469
frame_00103.png,1769536660740388776,1769536660.7403889,42.30002451386825,-83.69796439318968,236.1667938232422,0.7271763806184802,0.686422694482663,-0.006176945545079179,0.0004912367057535523,-0.00222,-0.0004500000000000001,0.0006900000000000001,-0.1033,-0.08070000000000001,-9.803,0.009069435133954354,0.02028778222854785,0.0,0.0,0.0,0.0,0.0,0.0,0.0,0.0,0.0,0.0,4.400000095367432,0.0,1920.0,1972.0,0.0,0.0,0.0,snow covered,0.256849825382233,-5.80533742904663,100.0,520.533386230469
frame_00104.png,1769536660760771786,1769536660.7607718,42.30002451556479,-83.69796439505426,236.16673278808594,0.72717568004643,0.6864233881602754,-0.006181229464179604,0.0005049137460838792,-0.0018000000000000004,-0.0017500000000000003,-0.00103,-0.1046,-0.0823,-9.7821,0.008860272982612924,0.019819899045726154,0.0,0.0,0.0,0.0,0.0,0.0,0.0,0.0,0.0,0.0,4.400000095367432,0.0,1864.0,1972.0,0.0,0.0,0.0,snow covered,0.256849825382233,-5.80533742904663,100.0,520.533386230469
frame_00105.png,1769536660781352875,1769536660.781353,42.30002451490813,-83.69796439382796,236.16677856445312,0.7271725904237103,0.6864266357919531,-0.006184054338932352,0.0005048601243346057,0.00055,-0.0005700000000000001,-0.0002800000000000001,-0.1044,-0.095,-9.777000000000001,0.008447646528791689,0.01889687842611528,0.0,0.0,0.0,0.0,0.0,0.0,0.0,0.0,0.0,0.0,4.400000095367432,0.0,1804.0,1964.0,0.0,0.0,0.0,snow covered,0.256849825382233,-5.80533742904663,100.0,520.533386230469
frame_00106.png,1769536660801976730,1769536660.801977,42.30002451434951,-83.69796439270705,236.1668243408203,0.7271664159261727,0.6864331555366765,-0.006186754820167657,0.0005005934882325465,0.0006500000000000001,0.00017,-0.0014600000000000004,-0.1038,-0.1062,-9.7714,0.008328822797117446,0.0186310768677839,0.0,0.0,0.0,0.0,0.0,0.0,0.0,0.0,0.0,0.0,4.400000095367432,0.0,1680.0,1948.0,0.0,0.0,0.0,snow covered,0.256849825382233,-5.80533742904663,100.0,520.533386230469
frame_00107.png,1769536660822432372,1769536660.8224323,42.30002451595018,-83.69796439481769,236.166748046875,0.7271674444251072,0.686432095672254,-0.006183282701084441,0.0005028064184700838,-0.0008100000000000001,0.00026000000000000003,0.0006500000000000001,-0.09040000000000001,-0.1062,-9.789200000000001,0.00829716674295727,0.01856026417399084,0.0,0.0,0.0,0.0,0.0,0.0,0.0,0.0,0.0,0.0,4.400000095367432,0.0,1428.0,1924.0,0.0,0.0,0.0,snow covered,0.256849825382233,-5.80533742904663,100.0,520.533386230469
frame_00108.png,1769536660843570261,1769536660.8435702,42.300024515486534,-83.69796439408702,236.16676330566406,0.727170880788646,0.6864284411955346,-0.006185263067123687,0.0004977667361066025,0.0007100000000000001,-0.00034,5.000000000000001e-05,-0.0679,-0.1033,-9.7835,0.008788564494082229,0.019659491459392303,0.0,0.0,0.0,0.0,0.0,0.0,0.0,0.0,0.0,0.0,4.400000095367432,0.0,1140.0,1884.0,0.0,0.0,0.0,snow covered,0.256849825382233,-5.80533742904663,100.0,520.533386230469
frame_00109.png,1769536660864343096,1769536660.864343,42.30002451404997,-83.6979643930212,236.16685485839844,0.7271702076444374,0.6864292111625994,-0.006179948624770455,0.0004851927788846627,0.0006900000000000001,0.0019600000000000004,0.0009800000000000002,-0.0901,-0.0966,-9.8042,0.008869116508949521,0.019839681483529544,0.0,0.0,0.0,0.0,0.0,0.0,0.0,0.0,0.0,0.0,4.400000095367432,0.0,824.0,1820.0,0.0,0.0,0.0,snow covered,0.256849825382233,-5.80533742904663,100.0,520.533386230469
frame_00110.png,1769536660905376915,1769536660.905377,42.300024514600935,-83.69796439445064,236.16685485839844,0.7271743284820625,0.6864248696400272,-0.006177426877702123,0.00048345992988780255,-0.0008600000000000002,0.0005600000000000002,0.0009400000000000002,-0.07490000000000001,-0.0902,-9.8122,0.00936043356458692,0.020938728257967068,0.0,0.0,0.0,0.0,0.0,0.0,0.0,0.0,0.0,0.0,4.400000095367432,0.0,192.0,1536.0,0.0,0.0,0.0,snow covered,0.256849825382233,-5.80533742904663,100.0,520.533386230469
frame_00111.png,1769536660926226143,1769536660.9262261,42.300024513446985,-83.69796439360661,236.1669464111328,0.7271726124008808,0.6864267214627305,-0.006173568881821115,0.00048464756965541485,-0.00025000000000000006,0.00048,-0.0010600000000000002,-0.0893,-0.0782,-9.8315,0.009265402249597373,0.020726148908214347,0.0,0.0,0.0,0.0,0.0,0.0,0.0,0.0,0.0,0.0,4.400000095367432,0.0,0.0,1128.0,0.0,0.0,0.0,snow covered,0.256849825382233,-5.80533742904663,100.0,520.533386230469
frame_00112.png,1769536660947001875,1769536660.947002,42.30002451522858,-83.69796439593819,236.16688537597656,0.7271705458622866,0.6864288939462376,-0.006174841366762714,0.0004920570947197175,-0.00055,-0.0007800000000000001,0.00102,-0.0915,-0.08170000000000001,-9.803700000000001,0.009451714531635248,0.021142918304396154,0.0,0.0,0.0,0.0,0.0,0.0,0.0,0.0,0.0,0.0,4.400000095367432,0.0,0.0,1128.0,0.0,0.0,0.0,snow covered,0.256849825382233,-5.80533742904663,100.0,520.533386230469
frame_00113.png,1769536660967762244,1769536660.9677622,42.30002451425481,-83.697964395175,236.16697692871094,0.7271773963053644,0.6864216841756818,-0.006168246815902558,0.0005084556910532299,-0.0023000000000000004,-0.0008500000000000001,0.0011500000000000002,-0.0826,-0.0709,-9.8259,0.009464949358722616,0.02117252381850097,0.0,0.0,0.0,0.0,0.0,0.0,0.0,0.0,0.0,0.0,4.400000095367432,0.0,0.0,932.0,0.0,0.0,0.0,snow covered,0.256849825382233,-5.80533742904663,100.0,520.533386230469
frame_00114.png,1769536660988342501,1769536660.9883425,42.30002451331551,-83.69796439449215,236.16708374023438,0.7271688165086393,0.6864307922818129,-0.006166120098786991,0.0005085938604059833,-0.00017,2e-05,-0.00033000000000000005,-0.1231,-0.07250000000000001,-9.805900000000001,0.00907448322182616,0.02029907449823181,0.0,0.0,0.0,0.0,0.0,0.0,0.0,0.0,0.0,0.0,4.400000095367432,0.0,0.0,576.0,0.0,0.0,0.0,snow covered,0.256849825382233,-5.80533742904663,100.0,520.533386230469
frame_00115.png,1769536661009042078,1769536661.0090423,42.300024515043944,-83.69796439669913,236.1670379638672,0.7271674341128717,0.6864321791836052,-0.006174117641141301,0.0005161572460004068,9e-05,-0.0027100000000000006,-0.0006700000000000001,-0.0838,-0.0763,-9.8012,0.008792341321552105,0.019667939995832766,0.0,0.0,0.0,0.0,0.0,0.0,0.0,0.0,0.0,0.0,4.400000095367432,0.0,0.0,576.0,0.0,0.0,0.0,snow covered,0.256849825382233,-5.80533742904663,100.0,520.533386230469
frame_00116.png,1769536661030219365,1769536661.0302193,42.300024514006616,-83.69796439599885,236.16712951660156,0.72717292399544,0.686426380341443,-0.00617206249108845,0.0005182893718170757,-0.00017,-0.00103,0.00135,-0.1282,-0.0391,-9.7885,0.007912931145492647,0.017700752196598325,0.0,0.0,0.0,0.0,0.0,0.0,0.0,0.0,0.0,0.0,4.400000095367432,0.0,0.0,284.0,0.0,0.0,0.0,snow covered,0.256849825382233,-5.80533742904663,100.0,520.533386230469
frame_00117.png,1769536661050647033,1769536661.050647,42.30002451451234,-83.69796439740631,236.1671600341797,0.7271739499884158,0.6864253327689102,-0.006167258291337319,0.0005233703313854564,-0.0004000000000000001,-0.0011200000000000003,-0.0004000000000000001,-0.09960000000000001,-0.1019,-9.755700000000001,0.0076067465364363105,0.017015835597215843,0.0,0.0,0.0,0.0,0.0,0.0,0.0,0.0,0.0,0.0,4.400000095367432,0.0,0.0,284.0,0.0,0.0,0.0,snow covered,0.256849825382233,-5.80533742904663,100.0,520.533386230469
frame_00118.png,1769536661071214530,1769536661.0712147,42.30002451344381,-83.69796439681701,236.167236328125,0.727174291010684,0.686424978472424,-0.00616626963926131,0.0005258716355980657,0.00042000000000000007,0.00124,-0.00017,-0.1246,-0.08070000000000001,-9.761700000000001,0.007403265220728731,0.01656066010285693,0.0,0.0,0.0,0.0,0.0,0.0,0.0,0.0,0.0,0.0,4.400000095367432,0.0,0.0,116.0,0.0,0.0,0.0,snow covered,0.256849825382233,-5.80533742904663,100.0,520.533386230469
frame_00119.png,1769536661091665797,1769536661.091666,42.30002451178944,-83.69796439657007,236.16737365722656,0.727177721104566,0.6864213580262387,-0.006164576580550798,0.0005283655616461374,-0.00099,0.0008700000000000001,3e-05,-0.1102,-0.076,-9.7514,0.007117139772398871,0.01592061464246993,0.0,0.0,0.0,0.0,0.0,0.0,0.0,0.0,0.0,0.0,4.400000095367432,0.0,0.0,68.0,0.0,0.0,0.0,snow covered,0.256849825382233,-5.80533742904663,100.0,520.533386230469
frame_00120.png,1769536661112432479,1769536661.1124325,42.300024513132335,-83.6979643986969,236.1673126220703,0.7271770321195925,0.6864221313777187,-0.0061593871570154324,0.000532411927743497,-0.00027000000000000006,-0.0010700000000000002,0.00031,-0.0932,-0.08410000000000001,-9.823500000000001,0.007291843461776589,0.016311416313386524,0.0,0.0,0.0,0.0,0.0,0.0,0.0,0.0,0.0,0.0,4.400000095367432,0.0,0.0,68.0,0.0,0.0,0.0,snow covered,0.256849825382233,-5.80533742904663,100.0,520.533386230469
frame_00121.png,1769536661132972569,1769536661.1329725,42.30002451147191,-83.69796439847465,236.1674346923828,0.7271777171004106,0.6864215024560777,-0.006148201292331249,0.000536972480938288,-0.0017500000000000003,9e-05,-0.0006900000000000001,-0.08360000000000001,-0.08900000000000001,-9.8034,0.007110376768770723,0.01590548620913398,0.0,0.0,0.0,0.0,0.0,0.0,0.0,0.0,0.0,0.0,4.400000095367432,0.0,0.0,0.0,0.0,0.0,0.0,snow covered,0.256849825382233,-5.80533742904663,100.0,520.533386230469
frame_00122.png,1769536661153512892,1769536661.153513,42.30002450995099,-83.69796439837862,236.1675567626953,0.727178062190028,0.6864210927976271,-0.006153410816397524,0.0005336360106169258,0.00136,0.00027000000000000006,-0.00015000000000000001,-0.0858,-0.0637,-9.802800000000001,0.007216931884075992,0.01614384360876495,0.0,0.0,0.0,0.0,0.0,0.0,0.0,0.0,0.0,0.0,4.400000095367432,0.0,0.0,0.0,0.0,0.0,0.0,snow covered,0.256849825382233,-5.80533742904663,100.0,520.533386230469
frame_00123.png,1769536661174170391,1769536661.1741703,42.30002451132265,-83.69796440050634,236.16749572753906,0.7271729121449674,0.6864265435984465,-0.006153811108535734,0.0005354390144255467,0.00041000000000000005,0.00109,0.00033000000000000005,-0.1109,-0.0745,-9.786200000000001,0.007217078201517048,0.016144170912101546,0.0,0.0,0.0,0.0,0.0,0.0,0.0,0.0,0.0,0.0,4.400000095367432,0.0,0.0,0.0,0.0,0.0,0.0,snow covered,0.256849825382233,-5.80533742904663,100.0,520.533386230469
frame_00124.png,1769536661195085876,1769536661.1950858,42.300024509937046,-83.6979644004319,236.16761779785156,0.7271753141032333,0.6864239800859769,-0.00615593334323272,0.0005353563896228616,1e-05,-0.00037000000000000005,-0.00117,-0.0683,-0.0873,-9.7893,0.00760482782588231,0.017011543556829177,0.0,0.0,0.0,0.0,0.0,0.0,0.0,0.0,0.0,0.0,4.400000095367432,0.0,0.0,0.0,0.0,0.0,0.0,snow covered,0.256849825382233,-5.80533742904663,100.0,520.533386230469
frame_00125.png,1769536661216143331,1769536661.2161434,42.30002450858246,-83.69796440040997,236.167724609375,0.7271670832524784,0.6864326660309613,-0.006160307313258647,0.0005278764211281315,0.0009100000000000001,0.00044000000000000007,-0.00177,-0.0789,-0.0988,-9.8018,0.007886296805182956,0.017641172775385964,0.0,0.0,0.0,0.0,0.0,0.0,0.0,0.0,0.0,0.0,4.400000095367432,0.0,0.0,0.0,0.0,0.0,0.0,snow covered,0.256849825382233,-5.80533742904663,100.0,520.533386230469
frame_00126.png,1769536661257093903,1769536661.257094,42.30002450903578,-83.69796440291209,236.1677703857422,0.7271660627922957,0.6864336149916619,-0.006176175909687226,0.0005139880960485961,0.0016200000000000001,0.00017,-0.00035000000000000005,-0.07970000000000001,-0.093,-9.8251,0.008247256311168814,0.01844861753270597,0.0,0.0,0.0,0.0,0.0,0.0,0.0,0.0,0.0,0.0,4.400000095367432,0.0,0.0,0.0,0.0,0.0,0.0,snow covered,0.256849825382233,-5.80533742904663,100.0,520.533386230469
frame_00127.png,1769536661277559266,1769536661.2775593,42.30002450805268,-83.69796440323249,236.16787719726562,0.7271708618893434,0.68642848800194,-0.006180562736603303,0.0005187704106647431,-0.00036,-0.00068,0.0007300000000000002,-0.0755,-0.0823,-9.8091,0.008434324175463921,0.018867077121062264,0.0,0.0,0.0,0.0,0.0,0.0,0.0,0.0,0.0,0.0,4.400000095367432,0.0,0.0,0.0,0.0,0.0,0.0,snow covered,0.256849825382233,-5.80533742904663,100.0,520.533386230469
frame_00128.png,1769536661298404800,1769536661.298405,42.30002450966174,-83.69796440572452,236.16783142089844,0.7271722347964599,0.6864269750520378,-0.006187227348782559,0.0005167976061922976,0.00048,0.00064,-0.00031,-0.1033,-0.09730000000000001,-9.7864,0.008511105506552747,0.019038832351828103,0.0,0.0,0.0,0.0,0.0,0.0,0.0,0.0,0.0,0.0,4.400000095367432,0.0,0.0,0.0,0.0,0.0,0.0,snow covered,0.256849825382233,-5.80533742904663,100.0,520.533386230469
frame_00129.png,1769536661319051902,1769536661.3190517,42.30002450881378,-83.6979644063293,236.1679229736328,0.7271742950734542,0.6864248644386082,-0.006179131395110519,0.0005180734168108861,-9e-05,0.00017,0.0013800000000000002,-0.0152,-0.10600000000000001,-9.7898,0.009489192701373262,0.021226754721409904,0.0,0.0,0.0,0.0,0.0,0.0,0.0,0.0,0.0,0.0,4.400000095367432,0.0,0.0,0.0,0.0,0.0,0.0,snow covered,0.254474848508835,-5.9464168548584,100.0,521.009155273438
frame_00130.png,1769536661339976261,1769536661.3399763,42.300024508169784,-83.69796440702657,236.1680145263672,0.7271749871745066,0.6864242017856131,-0.0061715986584853656,0.0005143935639829451,0.00109,0.0019000000000000002,-0.0007300000000000002,-0.09430000000000001,-0.0528,-9.7687,0.009613970226463897,0.02150587455838615,0.0,0.0,0.0,0.0,0.0,0.0,0.0,0.0,0.0,0.0,4.400000095367432,0.0,0.0,0.0,0.0,0.0,0.0,snow covered,0.254474848508835,-5.9464168548584,100.0,521.009155273438
frame_00131.png,1769536661360500524,1769536661.3605006,42.30002451000681,-83.69796440961605,236.16793823242188,0.7271739798095055,0.686425460949672,-0.00615164202966942,0.0004969390042939247,-0.0007600000000000002,0.0016300000000000002,-0.00055,-0.0054,-0.0918,-9.798200000000001,0.010709069341742396,0.02395554557331724,0.0,0.0,0.0,0.0,0.0,0.0,0.0,0.0,0.0,0.0,4.400000095367432,0.0,0.0,0.0,0.0,0.0,0.0,snow covered,0.254474848508835,-5.9464168548584,100.0,521.009155273438
frame_00132.png,1769536661381304909,1769536661.3813047,42.300024509736346,-83.69796440917908,236.1682586669922,0.7271722915323036,0.6864274282342108,-0.006133601733288325,0.00047236130607816474,0.0013200000000000002,0.00203,-0.00035000000000000005,0.13520000000000001,-0.0707,-9.707600000000001,0.014533081540904547,0.03250963142211102,0.0,0.0,0.0,0.0,0.0,0.0,0.0,0.0,0.0,0.0,4.400000095367432,0.0,0.0,0.0,0.0,0.0,0.0,snow covered,0.254474848508835,-5.9464168548584,100.0,521.009155273438
frame_00133.png,1769536661401803265,1769536661.4018033,42.30002450970884,-83.6979644087646,236.1685333251953,0.7271736709548907,0.6864259889967954,-0.0061316422793061785,0.0004656852137301924,0.00023000000000000003,0.0015200000000000003,0.0006000000000000001,-0.0459,-0.0745,-9.829500000000001,0.01684536820640564,0.03768207795563703,0.0,0.0,0.0,0.0,0.0,0.0,0.0,0.0,0.0,0.0,4.400000095367432,0.0,0.0,0.0,0.0,0.0,0.0,snow covered,0.254474848508835,-5.9464168548584,100.0,521.009155273438
frame_00134.png,1769536661443541129,1769536661.4435413,42.30002451493863,-83.69796441024842,236.16903686523438,0.7271668255012181,0.6864333976375954,-0.006115256584694996,0.0004495943629442626,0.0021000000000000003,0.0022800000000000003,-0.0009300000000000002,0.06810000000000001,-0.0655,-9.8047,0.020583281315743145,0.04604356530643847,0.0,0.0,0.0,0.0,0.0,0.0,0.0,0.0,0.0,0.0,4.400000095367432,4.700000286102295,0.0,0.0,0.0,0.0,0.0,snow covered,0.254474848508835,-5.9464168548584,100.0,521.009155273438
frame_00135.png,1769536661463943998,1769536661.463944,42.30002451895571,-83.69796441238837,236.16897583007812,0.7271705882209909,0.6864293650007006,-0.006119523010120644,0.00046252481187140194,-0.0020100000000000005,-0.0008100000000000001,0.0014800000000000002,-0.042800000000000005,-0.0868,-9.860800000000001,0.022147022790218636,0.04954156116035168,0.0,0.0,0.0,0.0,0.0,0.0,0.0,0.0,0.0,0.0,4.400000095367432,7.925000190734863,0.0,0.0,0.0,0.0,0.0,snow covered,0.254474848508835,-5.9464168548584,100.0,521.009155273438
frame_00136.png,1769536661484596348,1769536661.4845963,42.30002452136694,-83.69796441199712,236.1692657470703,0.7271688755709709,0.6864312133485285,-0.006115906492021924,0.00045981463421181486,0.00036,-1e-05,0.00019000000000000004,0.0323,-0.0804,-9.7971,0.024063027111813073,0.05382754786749914,0.0,0.0,0.0,0.0,0.0,0.0,0.0,0.0,0.0,0.0,4.400000095367432,10.199999809265137,0.0,0.0,0.0,0.0,0.0,snow covered,0.254474848508835,-5.9464168548584,100.0,521.009155273438
frame_00137.png,1769536661505539292,1769536661.5055394,42.30002452371253,-83.69796441165725,236.16957092285156,0.7271705903744674,0.6864293954608388,-0.0061159483574683635,0.00046121297119584983,-0.00014000000000000004,-7.000000000000002e-05,0.00102,-0.0099,-0.0981,-9.824300000000001,0.026236210798239873,0.05868882938301471,0.0,0.0,0.0,0.0,0.0,0.0,0.0,0.0,0.0,0.0,4.400000095367432,11.824999809265137,0.0,0.0,0.0,0.0,0.0,snow covered,0.254474848508835,-5.9464168548584,100.0,521.009155273438
frame_00138.png,1769536661525987121,1769536661.5259871,42.300024528882574,-83.69796441394212,236.16952514648438,0.7271692181058278,0.6864308924849251,-0.006111020279627199,0.0004620745071226493,0.00036,0.0005000000000000001,-0.00035000000000000005,0.0335,-0.0988,-9.8053,0.02812824532275713,0.06292119709228834,0.0,0.0,0.0,0.0,0.0,0.0,0.0,0.0,0.0,0.0,4.400000095367432,13.40000057220459,0.0,0.0,0.0,0.0,0.0,snow covered,0.254474848508835,-5.9464168548584,100.0,521.009155273438
frame_00139.png,1769536661547072732,1769536661.5470726,42.30002453233719,-83.69796441371112,236.1697998046875,0.7271681811121476,0.686431928541495,-0.006117563872940899,0.0004682618019624932,-0.00023000000000000003,6e-05,0.00022000000000000003,-0.055400000000000005,-0.0799,-9.7966,0.030339887066940917,0.06786850697552282,0.0,0.0,0.0,0.0,0.0,0.0,0.0,0.0,0.0,0.0,4.400000095367432,14.925000190734863,0.0,0.0,0.0,0.0,0.0,snow covered,0.254474848508835,-5.9464168548584,100.0,521.009155273438
frame_00140.png,1769536661588759022,1769536661.588759,42.300024542137876,-83.6979644158404,236.17002868652344,0.7271637322138255,0.6864368040856341,-0.0060999697951755845,0.00045925816148512626,0.00015000000000000001,0.0012900000000000001,0.00041000000000000005,0.0268,-0.08900000000000001,-9.771700000000001,0.035026149324473635,0.07835139446988806,0.0,0.0,0.0,0.0,0.0,0.0,0.0,0.0,0.0,0.0,4.400000095367432,16.450000762939453,0.0,0.0,0.0,0.0,0.0,snow covered,0.254474848508835,-5.9464168548584,100.0,521.009155273438
frame_00141.png,1769536661609195997,1769536661.609196,42.300024545835626,-83.69796441519766,236.1703338623047,0.7271675177175876,0.686432871294937,-0.00609193304496964,0.00045025993092817634,-0.00039000000000000005,0.0026300000000000004,0.0009000000000000002,-0.0252,-0.0927,-9.8255,0.03602527546194102,0.08058637969183435,0.0,0.0,0.0,0.0,0.0,0.0,0.0,0.0,0.0,0.0,4.400000095367432,16.825000762939453,0.0,0.0,0.0,0.0,0.0,snow covered,0.254474848508835,-5.9464168548584,100.0,521.009155273438
frame_00142.png,1769536661629576089,1769536661.6295762,42.300024550113754,-83.69796441462336,236.1706085205078,0.727174752761841,0.6864254051386223,-0.006071394319997746,0.0004246139954338889,-0.0004700000000000001,0.0036300000000000004,0.00131,0.1452,-0.0975,-9.719700000000001,0.039931548758361725,0.08932447867952968,0.0,0.0,0.0,0.0,0.0,0.0,0.0,0.0,0.0,0.0,4.400000095367432,16.700000762939453,0.0,0.0,0.0,0.0,0.0,snow covered,0.254474848508835,-5.9464168548584,100.0,521.009155273438
frame_00143.png,1769536661650262602,1769536661.6502626,42.300024557771266,-83.6979644168609,236.1705322265625,0.7271758390072965,0.6864246930682696,-0.006025238265955948,0.0003693426655753622,0.0011400000000000002,0.0066900000000000015,-0.00019000000000000004,0.2255,-0.0782,-9.7049,0.048046259042438914,0.10747659870239332,0.0,0.0,0.0,0.0,0.0,0.0,0.0,0.0,0.0,0.0,4.400000095367432,16.725000381469727,0.0,0.0,0.0,0.0,0.0,snow covered,0.254474848508835,-5.9464168548584,100.0,521.009155273438
frame_00144.png,1769536661671299691,1769536661.6712997,42.30002456460377,-83.6979644163502,236.1707305908203,0.727174532052723,0.6864265588435366,-0.005974290422394111,0.00029513060348181124,0.00234,0.00824,-0.00031,0.44220000000000004,-0.1259,-9.645100000000001,0.0577370869731879,0.12915439933380293,0.0,0.0,0.0,0.0,0.0,0.0,0.0,0.0,0.0,0.0,4.400000095367432,16.55000114440918,0.0,0.0,0.0,0.0,0.0,snow covered,0.254474848508835,-5.9464168548584,100.0,521.009155273438
frame_00145.png,1769536661691684778,1769536661.691685,42.30002457199424,-83.69796441597992,236.1708984375,0.7271711580242168,0.6864307890230853,-0.005901332809327475,0.0002304125372876551,-0.00041000000000000005,0.00966,-0.0013900000000000002,0.5439,-0.0653,-9.6219,0.06997973984431148,0.15654047924733414,0.0,0.0,0.0,0.0,0.0,0.0,0.0,0.0,0.0,0.0,4.400000095367432,16.67500114440918,0.0,0.0,0.0,0.0,0.0,snow covered,0.254474848508835,-5.9464168548584,100.0,521.009155273438
frame_00146.png,1769536661712246592,1769536661.7122464,42.30002458451172,-83.69796441810593,236.17066955566406,0.7271705019449823,0.6864318677281941,-0.005857846266733717,0.00019417873450088393,-0.0006700000000000001,0.011280000000000002,-0.00036,0.5991000000000001,-0.094,-9.618500000000001,0.07689499046118174,0.1720094799622359,0.0,0.0,0.0,0.0,0.0,0.0,0.0,0.0,0.0,0.0,4.400000095367432,16.42500114440918,0.0,0.0,0.0,0.0,0.0,snow covered,0.254474848508835,-5.9464168548584,100.0,521.009155273438
frame_00147.png,1769536661733038363,1769536661.7330384,42.30002459896576,-83.69796441757025,236.17063903808594,0.7271764040111169,0.686426531701694,-0.005751866798981448,0.00010026849266788715,-0.0008400000000000001,0.015370000000000002,0.00131,0.8285,-0.11510000000000001,-9.6034,0.09390351409923273,0.21005652682913767,0.0,0.0,0.0,0.0,0.0,0.0,0.0,0.0,0.0,0.0,4.400000095367432,16.649999618530273,0.0,0.0,0.0,0.0,0.0,snow covered,0.254474848508835,-5.9464168548584,100.0,521.009155273438
frame_00148.png,1769536661755248990,1769536661.7552488,42.30002461390699,-83.69796441696623,236.1705780029297,0.727178523773743,0.6864252761129184,-0.005633360987271619,-1.0933025373867748e-05,-0.0006300000000000001,0.017300000000000003,0.0005700000000000001,0.9263,-0.09140000000000001,-9.634400000000001,0.11344056270065876,0.2537597323276116,0.0,0.0,0.0,0.0,0.0,0.0,0.0,0.0,0.0,0.0,4.400000095367432,16.524999618530273,0.0,0.0,0.0,0.0,0.0,snow covered,0.254474848508835,-5.9464168548584,100.0,521.009155273438
frame_00149.png,1769536661774397325,1769536661.7743974,42.3000246361505,-83.69796441877723,236.17013549804688,0.7271871524978705,0.6864173139921557,-0.00548605178758324,-0.00013974840726362715,-0.0005000000000000001,0.01882,0.00022000000000000003,1.0996000000000001,-0.1057,-9.6302,0.13635315202716405,0.30501381989564436,0.0,0.0,0.0,0.0,0.0,0.0,0.0,0.0,0.0,0.0,4.400000095367432,16.55000114440918,0.0,0.0,0.0,0.0,0.0,snow covered,0.254474848508835,-5.9464168548584,100.0,521.009155273438
frame_00150.png,1769536661795122401,1769536661.7951224,42.30002466278838,-83.69796441776447,236.169921875,0.7271899117094017,0.6864149340574346,-0.005415454655751823,-0.00020847511162797857,0.00018,0.01946,0.0006600000000000001,1.1923000000000001,-0.1336,-9.7612,0.14894175945398386,0.3331737793929947,0.0,0.0,0.0,0.0,0.0,0.0,0.0,0.0,0.0,0.0,4.400000095367432,16.450000762939453,0.0,0.0,0.0,0.0,0.0,snow covered,0.254474848508835,-5.9464168548584,100.0,521.009155273438
frame_00151.png,1769536661815899088,1769536661.8158991,42.30002469022862,-83.69796441679965,236.16969299316406,0.7271936959769763,0.6864120439687139,-0.005264890986927416,-0.0003396305836613033,-0.00044000000000000007,0.01964,0.0009500000000000001,1.2603,-0.0855,-9.8275,0.17399377791444667,0.38921364156794236,0.0,0.0,0.0,0.0,0.0,0.0,0.0,0.0,0.0,0.0,4.400000095367432,16.350000381469727,0.0,0.0,0.0,0.0,0.0,snow covered,0.254474848508835,-5.9464168548584,100.0,521.009155273438
frame_00152.png,1769536661836775046,1769536661.836775,42.30002469022862,-83.69796441679965,236.16969299316406,0.7271905810812698,0.6864163399025446,-0.005121697533444395,-0.0004850936562683597,0.0012900000000000001,0.019710000000000002,-0.00072,1.3667,-0.0833,-9.8332,0.2023099692655393,0.4525552626488555,0.0,0.0,0.0,0.0,0.0,0.0,0.0,0.0,0.0,0.0,4.400000095367432,16.700000762939453,0.0,0.0,0.0,0.0,0.0,snow covered,0.254474848508835,-5.9464168548584,100.0,521.009155273438
frame_00153.png,1769536661857034668,1769536661.8570347,42.300024726113485,-83.69796441772004,236.16920471191406,0.7271936176588903,0.6864140520569058,-0.00498054165214534,-0.0006211117821746806,-0.0008700000000000001,0.018840000000000003,0.00099,1.2438,-0.0927,-9.9716,0.22952457953160255,0.513432712937423,0.0,0.0,0.0,0.0,0.0,0.0,0.0,0.0,0.0,0.0,4.400000095367432,16.80000114440918,0.0,0.0,0.0,0.0,0.0,snow covered,0.254474848508835,-5.9464168548584,100.0,521.009155273438
frame_00154.png,1769536661877606549,1769536661.8776066,42.30002476701779,-83.6979644146161,236.1690673828125,0.7271877488576396,0.6864207575651944,-0.004904013761653935,-0.0006871273597309404,-0.0008500000000000001,0.020130000000000002,-0.0018800000000000004,1.2133,-0.0512,-9.985700000000001,0.24224634146554522,0.5418905310779367,0.0,0.0,0.0,0.0,0.0,0.0,0.0,0.0,0.0,0.0,4.400000095367432,16.625,0.0,0.0,0.0,0.0,0.0,snow covered,0.254474848508835,-5.9464168548584,100.0,521.009155273438
frame_00155.png,1769536661898454171,1769536661.8984542,42.30002480914287,-83.69796441151067,236.16893005371094,0.7271856141451811,0.6864237224621369,-0.004787264346928189,-0.0007986999384787452,0.00041000000000000005,0.013930000000000001,-0.00051,1.4166,-0.0541,-10.0676,0.27097956578386573,0.6061650298845607,0.6499999761581421,0.6399999856948853,0.5399999618530273,0.0,0.5278059736401916,0.519685889184115,0.4384849478243065,0.0,0.37149420266215327,0.0,4.400000095367432,16.825000762939453,0.0,0.0,0.0,0.0,0.0,snow covered,0.254474848508835,-5.9464168548584,100.0,521.009155273438
frame_00156.png,1769536661919122388,1769536661.9191225,42.3000248597893,-83.69796441120556,236.16867065429688,0.7271776667429245,0.6864327083108981,-0.004692949051549521,-0.0008684356516266715,-0.0024300000000000007,0.010960000000000001,-0.0017800000000000001,1.2786,-0.067,-10.0478,0.29899900905091914,0.6688428433063631,0.6499999761581421,0.6399999856948853,0.5399999618530273,0.0,0.5278059736401916,0.519685889184115,0.4384849478243065,0.0,0.37149420266215327,0.0,4.400000095367432,17.05000114440918,0.0,0.0,0.0,0.0,0.0,snow covered,0.254474848508835,-5.9464168548584,100.0,521.009155273438
frame_00157.png,1769536661940222843,1769536661.9402227,42.30002491568596,-83.6979644067978,236.16888427734375,0.7271611388573318,0.6864505766813006,-0.004628678471605955,-0.0009269548125372011,-0.0010400000000000001,0.00783,-0.0012000000000000001,1.2511,-0.0267,-10.202200000000001,0.324650973715497,0.7262247491431439,0.6499999761581421,0.6399999856948853,0.5399999618530273,0.0,0.5278059736401916,0.519685889184115,0.4384849478243065,0.0,0.37149420266215327,0.0,4.400000095367432,17.274999618530273,0.0,0.0,0.0,0.0,0.0,snow covered,0.254474848508835,-5.9464168548584,100.0,521.009155273438
frame_00158.png,1769536661960464519,1769536661.9604647,42.300024972830144,-83.69796440259393,236.16905212402344,0.7271535545701732,0.6864588428841614,-0.004587020540830801,-0.0009614284468707101,-0.0006300000000000001,0.0037200000000000006,-0.0018400000000000003,1.3947,-0.1053,-10.0206,0.3533544016061026,0.7904325951287552,0.9699999690055847,0.9699999690055847,0.9399999976158142,0.0,0.7876489182322491,0.7876489182322491,0.7632886648640191,0.0,0.5846466253321294,0.0,4.400000095367432,17.475000381469727,0.0,0.0,0.0,0.0,0.0,snow covered,0.254474848508835,-5.9464168548584,100.0,521.009155273438
frame_00159.png,1769536661981158315,1769536661.9811585,42.30002503807136,-83.6979644009237,236.16917419433594,0.7271435884492089,0.6864695227203867,-0.004565787460219184,-0.0009745450835436242,-0.00027000000000000006,0.004470000000000001,-0.00203,1.1761000000000001,-0.0703,-10.084200000000001,0.3795574701154568,0.84904728720007,0.9699999690055847,0.9699999690055847,0.9399999976158142,0.0,0.7876489182322491,0.7876489182322491,0.7632886648640191,0.0,0.5846466253321294,0.0,4.400000095367432,18.950000762939453,0.0,0.0,0.0,0.0,0.0,snow covered,0.254474848508835,-5.9464168548584,100.0,521.009155273438
frame_00160.png,1769536662001867600,1769536662.0018675,42.300025108770384,-83.69796439567459,236.16969299316406,0.7271298138965241,0.6864841653523158,-0.004549483217259499,-0.0010132451807758585,0.0009800000000000002,0.004070000000000001,-0.0029200000000000007,1.381,-0.1086,-10.0791,0.40597338251693094,0.9081380982874235,0.9699999690055847,0.9699999690055847,0.9399999976158142,1.100000023841858,0.7876489182322491,0.7876489182322491,0.7632886648640191,0.8932101613598085,0.8079491656720815,0.0,4.400000095367432,19.274999618530273,0.0,0.0,0.0,0.0,0.0,snow covered,0.254474848508835,-5.9464168548584,100.0,521.009155273438
frame_00161.png,1769536662022725268,1769536662.0227253,42.30002518063591,-83.69796439072296,236.17015075683594,0.727118141738691,0.686496478397949,-0.004556911693901917,-0.0010137344332404358,-5.000000000000001e-05,-0.0023100000000000004,-0.0012100000000000001,1.3895,-0.13920000000000002,-9.9266,0.4355301944264794,0.9742549131203688,1.209999918937683,1.209999918937683,1.1999999284744263,1.100000023841858,0.9825310903766513,0.9825310903766513,0.9744110059205746,0.8932101613598085,0.9581708370084214,0.0,4.400000095367432,20.325000762939453,0.0,0.0,0.0,0.0,0.0,snow covered,0.254474848508835,-5.9464168548584,100.0,521.009155273438
frame_00162.png,1769536662043530958,1769536662.043531,42.30002526030575,-83.69796438816725,236.17051696777344,0.7271102385120707,0.6865047301859064,-0.004573764790021118,-0.001018410006354676,0.0029200000000000007,-0.0006100000000000001,-0.00131,1.079,-0.056900000000000006,-9.9945,0.4589726061732714,1.0266941816532378,1.209999918937683,1.209999918937683,1.1999999284744263,1.309999942779541,0.9825310903766513,0.9825310903766513,0.9744110059205746,1.0637320317364598,1.0008013046025843,0.02521965889488082,4.300000190734863,20.825000762939453,0.0,0.0,0.0,0.0,0.0,snow covered,0.254474848508835,-5.9464168548584,100.0,521.009155273438
frame_00163.png,1769536662063926068,1769536662.063926,42.30002534544674,-83.69796438248846,236.17115783691406,0.7271040374181216,0.6865112540760581,-0.004576457468305647,-0.001035777111986357,0.00096,0.0007000000000000001,-0.0009100000000000001,1.3375000000000001,-0.1532,-9.876100000000001,0.48534560506500457,1.0856889977941113,1.409999966621399,1.409999966621399,1.409999966621399,1.309999942779541,1.1449329730962683,1.1449329730962683,1.1449329730962683,1.0637320317364598,1.1246327377563161,0.0358700696436366,4.200000286102295,21.375,0.0,0.0,0.0,0.0,0.0,snow covered,0.254474848508835,-5.9464168548584,100.0,521.009155273438
frame_00164.png,1769536662084647357,1769536662.0846474,42.30002543114874,-83.6979643765621,236.17178344726562,0.727102974124077,0.686512133060543,-0.004608363198313196,-0.0010579079437205783,0.00267,-0.0005200000000000001,-0.00034,1.2297,-0.1028,-9.8887,0.5241123799154761,1.1724079471281252,1.409999966621399,1.409999966621399,1.409999966621399,1.5199999809265137,1.1449329730962683,1.1449329730962683,1.1449329730962683,1.2342539989121533,1.1672632295502394,0.00438816334407155,4.0,22.0,0.0,0.0,0.0,0.0,0.0,snow covered,0.254474848508835,-5.9464168548584,100.0,521.009155273438
frame_00165.png,1769536662106165945,1769536662.1061661,42.30002562423332,-83.6979643668175,236.17291259765625,0.7271036330219,0.6865112742588073,-0.004627988580719126,-0.0010765145609389322,0.0024300000000000007,-0.0006100000000000001,0.00023000000000000003,1.2541,-0.1085,-9.8693,0.5502215704880231,1.2308126398874786,1.5799999237060547,1.5799999237060547,1.5999999046325684,1.5199999809265137,1.282974505648613,1.282974505648613,1.2992146745607662,1.2342539989121533,1.2748544211925363,0.035782685258321754,3.799999952316284,22.375,0.0,0.0,0.0,0.0,0.0,snow covered,0.254474848508835,-5.9464168548584,100.0,521.009155273438
frame_00166.png,1769536662126218373,1769536662.1262186,42.30002572269492,-83.69796435926251,236.17355346679688,0.7271036031188987,0.6865111794612896,-0.004641899748551375,-0.0010970747051200717,0.0037700000000000003,0.0011200000000000003,0.00012,1.2017,-0.051000000000000004,-9.7957,0.5750849081542801,1.2864304344466355,1.5799999237060547,1.5799999237060547,1.5999999046325684,1.6899999380111694,1.282974505648613,1.282974505648613,1.2992146745607662,1.3722955314644982,1.3093648043306227,0.017827913014085803,3.4000000953674316,23.100000381469727,0.0,0.0,0.0,0.0,0.0,snow covered,0.254474848508835,-5.9464168548584,100.0,521.009155273438
frame_00167.png,1769536662146767331,1769536662.1467674,42.30002583081415,-83.69796435490349,236.17398071289062,0.7271055900027064,0.6865089487828132,-0.004648210295321671,-0.0011482025010848547,0.0034500000000000004,0.00289,0.0004500000000000001,1.4360000000000002,-0.1313,-9.7645,0.6030266442830454,1.3489344216625156,1.7599999904632568,1.7599999904632568,1.7699999809265137,1.6899999380111694,1.4291362194560766,1.4291362194560766,1.437256303912153,1.3722955314644982,1.4169560685722011,0.050426207395501944,3.0,23.55000114440918,0.0,0.0,0.0,0.0,0.0,snow covered,0.254474848508835,-5.9464168548584,100.0,521.009155273438
frame_00168.png,1769536662167677563,1769536662.1676774,42.30002594360942,-83.69796434638587,236.174560546875,0.7271037438829999,0.6865107585667533,-0.004647494716040038,-0.0012348264211676425,0.0037800000000000004,0.006580000000000001,0.00018,1.2995,-0.0604,-9.7901,0.644931668696364,1.4426734469736446,1.7599999904632568,1.7599999904632568,1.7699999809265137,1.8600000143051147,1.4291362194560766,1.4291362194560766,1.437256303912153,1.5103371608158853,1.4514664759100477,0.006094954443674416,2.5,23.899999618530273,0.0,0.0,0.0,0.0,0.0,snow covered,0.254474848508835,-5.9464168548584,100.0,521.009155273438
frame_00169.png,1769536662188184346,1769536662.1881843,42.30002605732381,-83.69796433799767,236.1750946044922,0.727104321563613,0.6865101187651176,-0.004632782649146882,-0.0013037336952480007,0.0038700000000000006,0.0064600000000000005,0.0006500000000000001,1.4659,-0.12710000000000002,-9.796700000000001,0.6735876075362807,1.5067750628022079,1.9399999380111694,1.9499999284744263,1.9399999380111694,2.0199999809265137,1.5752978364644983,1.5834179209205748,1.5752978364644983,1.6402586089121531,1.593568050690431,0.05760182128765187,2.0,24.375,0.0,0.0,0.0,0.0,0.0,snow covered,0.254474848508835,-5.9464168548584,100.0,521.009155273438
frame_00170.png,1769536662209204851,1769536662.2092047,42.30002618069101,-83.69796433210871,236.1754150390625,0.727094916843396,0.686520001518473,-0.004620936319574441,-0.0013843276711246416,0.004720000000000001,0.004280000000000001,-0.0006500000000000001,1.5004000000000002,-0.023,-9.6858,0.7045004448874173,1.5759252251864593,2.0999999046325684,2.0999999046325684,2.0999999046325684,2.0199999809265137,1.705219284560766,1.705219284560766,1.705219284560766,1.6402586089121531,1.688979115648613,0.07173810575230649,1.600000023841858,24.75,0.0,0.0,0.0,0.0,0.0,snow covered,0.254474848508835,-5.9464168548584,100.0,521.009155273438
frame_00171.png,1769536662229535616,1769536662.2295358,42.30002631007566,-83.69796432236437,236.17587280273438,0.7270950755302784,0.6865197665259746,-0.004599274822169288,-0.0014859272694724424,0.006270000000000001,0.006740000000000001,-0.00064,1.5294,-0.0551,-9.7349,0.7361526164444646,1.6467292338292807,2.0999999046325684,2.0999999046325684,2.0999999046325684,2.180000066757202,1.705219284560766,1.705219284560766,1.705219284560766,1.7701801538074635,1.7214595018724406,0.04538102956330176,1.2000000476837158,25.024999618530273,0.0,0.0,0.0,0.0,0.0,snow covered,0.254474848508835,-5.9464168548584,100.0,521.009155273438
frame_00172.png,1769536662250153587,1769536662.2501535,42.30002644052812,-83.6979643125299,236.17630004882812,0.7270928171519407,0.6865221455423578,-0.004566996485107277,-0.0015879134349406428,0.00461,0.008400000000000001,-0.0017900000000000004,1.7650000000000001,-0.1376,-9.7345,0.7708159010444093,1.724268921682281,2.2799999713897705,2.2699999809265137,2.25,2.3299999237060547,1.8513809983682301,1.8432609139121532,1.827020745,1.8919814206486132,1.8534110194822493,0.07489672647696444,0.800000011920929,25.774999618530273,0.0,0.0,0.0,0.0,0.0,snow covered,0.254474848508835,-5.9464168548584,100.0,521.009155273438
frame_00173.png,1769536662270971851,1769536662.270972,42.300026581663985,-83.69796430540839,236.17657470703125,0.7270880458249018,0.6865271719630924,-0.004517918041109231,-0.0017332603548730167,0.00289,0.006300000000000001,-0.0013300000000000002,1.7570000000000001,-0.1767,-9.766300000000001,0.8246235815425684,1.844633474495833,2.440000057220459,2.429999828338623,2.4099998474121094,2.3299999237060547,1.9813025432635405,1.9731822652093793,1.9569420962972262,1.8919814206486132,1.9508520813546897,0.05758249989900451,0.5,26.125,0.0,0.0,0.0,0.0,0.0,snow covered,0.254474848508835,-5.9464168548584,100.0,521.009155273438
frame_00174.png,1769536662291778537,1769536662.2917786,42.30002673026444,-83.69796429476658,236.1769256591797,0.7270792630379557,0.6865366361897837,-0.0044577312677155844,-0.0018223779369212724,0.0021000000000000003,0.011290000000000001,-0.00024,1.7431,-0.1163,-9.794500000000001,0.8596769912129135,1.923045848723815,2.440000057220459,2.429999828338623,2.549999952316284,2.490000009536743,1.9813025432635405,1.9731822652093793,2.070623472280383,2.0219029655439233,2.0117528115743064,0.04612836605500584,0.20000000298023224,26.274999618530273,0.0,0.0,0.0,0.0,0.0,snow covered,0.254474848508835,-5.9464168548584,100.0,521.009155273438
frame_00175.png,1769536662312682030,1769536662.312682,42.300026879944625,-83.69796428418974,236.1772918701172,0.7270759255208621,0.6865403981040745,-0.004378365500310636,-0.001926191741786547,0.0011300000000000001,0.01137,-0.0015300000000000003,2.0038,-0.2091,-9.7958,0.8989308337755586,2.010854339305898,2.5799999237060547,2.5799999237060547,2.549999952316284,2.629999876022339,2.0949837256486132,2.0949837256486132,2.070623472280383,2.1355841479289963,2.0990437678766516,0.04385669655276693,0.10000000149011612,26.225000381469727,0.0,0.0,0.0,0.0,0.0,snow covered,0.254474848508835,-5.9464168548584,100.0,521.009155273438
frame_00176.png,1769536662333238756,1769536662.3332388,42.30002721082999,-83.69796426539432,236.17782592773438,0.7270740101862208,0.6865425957945489,-0.004315982398888107,-0.002005035496560006,0.0008600000000000002,0.010350000000000002,0.0005600000000000002,1.9425000000000001,-0.1409,-9.8336,0.9388190280725446,2.100081836656598,2.740000009536743,2.7300000190734863,2.7200000286102295,2.7899999618530273,2.2249052705439234,2.216785186087847,2.20866510163177,2.2655056928243065,2.2289653127719617,0.061370692258617195,0.10000000149011612,26.350000381469727,0.0,0.0,0.0,0.0,0.0,snow covered,0.254474848508835,-5.9464168548584,100.0,521.009155273438
frame_00177.png,1769536662353625771,1769536662.3536258,42.300027379819625,-83.69796425375726,236.17813110351562,0.7270823990887244,0.6865339100554646,-0.004249126201032382,-0.002078510492642433,0.0012700000000000003,0.008700000000000001,0.0008900000000000001,1.9034,-0.1718,-9.756400000000001,0.9780822821038071,2.1879113801292904,2.879999876022339,2.869999885559082,2.869999885559082,2.7899999618530273,2.3385864529289964,2.3304663684729197,2.3304663684729197,2.2655056928243065,2.316256220674785,0.05866089536858229,0.10000000149011612,26.725000381469727,0.0,0.0,0.0,0.0,0.0,snow covered,0.254474848508835,-5.9464168548584,100.0,521.009155273438
frame_00178.png,1769536662374528462,1769536662.3745284,42.3000275623356,-83.6979642455339,236.17831420898438,0.7270812608952695,0.6865353807273723,-0.004122855793248026,-0.002239000798333708,0.00316,0.013790000000000002,-0.00014000000000000004,2.1706000000000003,-0.3029,-9.727400000000001,1.0384468652431504,2.3229433307370133,3.0399999618530273,3.0199999809265137,3.0,2.919999837875366,2.4685079978243065,2.452267828912153,2.43602766,2.3710667907533027,2.431967569372441,0.046933662648084025,0.10000000149011612,26.274999618530273,0.0,0.0,0.0,0.0,0.0,snow covered,0.254474848508835,-5.9464168548584,100.0,521.009155273438
frame_00179.png,1769536662395392002,1769536662.395392,42.30002775289963,-83.69796423354992,236.1785888671875,0.7270968010658508,0.6865189934207381,-0.004064532648106853,-0.002322310645761098,0.00204,0.009890000000000001,0.0028000000000000004,2.0795,-0.1019,-9.8095,1.08152281354992,2.4193016425423584,3.169999837875366,3.169999837875366,3.1399998664855957,3.059999942779541,2.5740690957533023,2.5740690957533023,2.549708842385073,2.48474816673646,2.5456488001570348,0.05222464011635302,0.10000000149011612,26.5,0.0,0.0,0.0,0.0,0.0,snow covered,0.254474848508835,-5.9464168548584,100.0,521.009155273438
frame_00180.png,1769536662415884125,1769536662.415884,42.30002794405102,-83.69796422157488,236.1789093017578,0.7271118669939804,0.6865029564262802,-0.004007271629747335,-0.0024424308773048045,0.005510000000000001,0.011350000000000002,0.0018300000000000002,1.9817,-0.24080000000000001,-9.9328,1.1222923128568634,2.5105005663220323,3.3499999046325684,3.2699999809265137,3.299999952316284,3.18999981880188,2.7202308095607663,2.6552701339121536,2.6796303872803833,2.590309264665456,2.6613601488546896,0.06009143537205875,0.10000000149011612,26.700000762939453,0.0,0.0,0.0,0.0,0.0,snow covered,0.254474848508835,-5.9464168548584,100.0,521.009155273438
frame_00181.png,1769536662436607321,1769536662.4366071,42.30002814913856,-83.69796421294258,236.17913818359375,0.7271221361118175,0.6864920709236217,-0.003938594447846141,-0.002554057352510251,0.0026400000000000004,0.014310000000000002,0.0016400000000000002,2.2501,-0.30410000000000004,-9.884,1.1649608695050075,2.605947567430532,3.569999933242798,3.3899998664855957,3.569999933242798,3.4600000381469727,2.8988728611925363,2.7527111473850727,2.8988728611925363,2.809551932175694,2.84000220048646,0.08981555729715096,0.10000000149011612,26.875,0.0,0.0,0.0,0.0,0.0,snow covered,0.254474848508835,-5.9464168548584,100.0,521.009155273438
frame_00182.png,1769536662457202316,1769536662.4572024,42.300028363202856,-83.69796420115728,236.1795196533203,0.7271432135346905,0.6864698008947608,-0.0038897743509500515,-0.0026132595450095264,0.00017,0.0068000000000000005,0.0029600000000000004,2.2075,-0.1269,-9.8373,1.2105011665138592,2.7078184794215123,3.5799999237060547,3.5199999809265137,3.6499998569488525,3.5999999046325684,2.906992945648613,2.858272438912153,2.9638335368411495,2.9232331145607664,2.9130830089906707,0.0758043905561241,0.0,26.950000762939453,0.0,0.0,0.0,0.0,0.0,snow covered,0.254474848508835,-5.9464168548584,100.0,521.009155273438
frame_00183.png,1769536662477955321,1769536662.4779553,42.30002857738497,-83.69796418948384,236.1799774169922,0.7271596686292595,0.6864526999143414,-0.0038265619640948188,-0.0026200234410918054,0.0006000000000000001,0.00534,0.0037800000000000004,1.6797,0.1797,-9.9528,1.2666367914827257,2.8333905043393686,3.679999828338623,3.619999885559082,3.740000009536743,3.7099997997283936,2.988193790209379,2.9394732834729194,3.0369144905439236,3.0125540435776093,2.9942839019509577,0.056784759236391584,0.0,27.024999618530273,0.0,0.0,0.0,0.0,0.0,snow covered,0.254474848508835,-5.9464168548584,100.0,521.009155273438
frame_00184.png,1769536662498650275,1769536662.4986503,42.30002880581163,-83.6979641810506,236.18026733398438,0.727161092537775,0.6864519727362083,-0.003692508290883179,-0.0026076825649041188,-0.018070000000000003,-0.009900000000000003,-0.0008300000000000001,2.7399,-0.541,-10.1343,1.320682182938858,2.9542868023032494,3.8899998664855957,3.75,3.9099998474121094,3.8899998664855957,3.158715757385073,3.0450345750000003,3.174955926297226,3.158715757385073,3.134355504016843,0.06095166575337469,0.0,27.30000114440918,0.0,0.0,0.0,0.0,0.0,snow covered,0.254474848508835,-5.9464168548584,100.0,521.009155273438
frame_00185.png,1769536662540206863,1769536662.540207,42.30002953241245,-83.69796414784925,236.18145751953125,0.7271512766132097,0.6864637155576818,-0.003460498125040882,-0.002571593911971643,-0.015820000000000004,0.009450000000000002,0.00021000000000000004,1.9857,0.051500000000000004,-9.113000000000001,1.399417748482613,3.1304135382906964,4.110000133514404,3.9700000286102295,4.139999866485596,4.029999732971191,3.3373580026149274,3.2236766266317702,3.361718062385073,3.272396939770146,3.2987874078504795,0.05378646223582351,0.0,27.42500114440918,0.0,0.0,0.0,0.0,0.0,snow covered,0.254474848508835,-5.9464168548584,100.0,521.009155273438
frame_00186.png,1769536662560803930,1769536662.560804,42.30002979295583,-83.69796413413846,236.18174743652344,0.7271775871399991,0.6864368288413334,-0.0033083710994028064,-0.002508276733455597,-0.011780000000000002,0.0009700000000000002,0.0032800000000000004,1.7567000000000002,0.7711,-9.291400000000001,1.443574055357115,3.229188547390545,4.230000019073486,4.190000057220459,4.21999979019165,4.239999771118164,3.4347990160878465,3.4023186782635406,3.426678738033686,3.442918906945839,3.426678834832728,0.06115786815909892,0.0,27.67500114440918,0.0,0.0,0.0,0.0,0.0,snow covered,0.254474848508835,-5.9464168548584,100.0,521.009155273438
frame_00187.png,1769536662581544486,1769536662.5815444,42.30003005427053,-83.69796412419143,236.1820831298828,0.7271387245163371,0.6864784146554517,-0.0032017193251364672,-0.0025318993374769515,-0.010950000000000001,0.0007100000000000001,-0.0053100000000000005,1.9527,-1.1720000000000002,-10.0571,1.4858442165293182,3.3237443617230933,4.360000133514404,4.279999732971191,4.400000095367432,4.319999694824219,3.540360307614927,3.4753992447701454,3.572840645439234,3.507879582594452,3.5241199451046894,0.060286099523525795,0.0,27.625,0.0,0.0,0.0,0.0,0.0,snow covered,0.254474848508835,-5.9464168548584,100.0,521.009155273438
frame_00188.png,1769536662601951226,1769536662.6019511,42.30003032871309,-83.69796411374455,236.18234252929688,0.727184106551472,0.6864317088871936,-0.0029106740427886847,-0.002512407164612487,-0.0022600000000000003,0.02228,0.0036900000000000006,2.1596,0.6673,-9.850800000000001,1.5506192829723557,3.4686422988521817,4.380000114440918,4.369999885559082,4.46999979019165,4.529999732971191,3.556600476527081,3.5484801984729195,3.6296810430336857,3.678401549770146,3.603290816950958,0.03881879608725671,0.0,27.75,0.0,0.0,0.0,0.0,0.0,snow covered,0.254474848508835,-5.9464168548584,100.0,521.009155273438
frame_00189.png,1769536662622690032,1769536662.62269,42.30003061223915,-83.69796410076431,236.1825714111328,0.7271796286940851,0.686436934367795,-0.002789925103089272,-0.0025177501852091506,-0.012700000000000001,0.018940000000000002,0.0009200000000000001,2.1550000000000002,-1.1443,-9.9085,1.59596165787947,3.5700704709769018,4.659999847412109,4.46999979019165,4.539999961853027,4.599999904632568,3.7839628412972264,3.6296810430336857,3.6865218278243064,3.735242334560766,3.7088520116789963,0.03887361379287249,0.0,27.875,0.0,0.0,0.0,0.0,0.0,snow covered,0.254474848508835,-5.9464168548584,100.0,521.009155273438
frame_00190.png,1769536662643673473,1769536662.6436737,42.30003089557493,-83.6979640848872,236.18280029296875,0.727226967611186,0.6863876785725401,-0.0025521991715466833,-0.0025255815621491864,-0.017210000000000003,0.02909,0.0074,2.2337000000000002,0.2122,-10.0335,1.635294951680908,3.658056689213091,4.699999809265137,4.659999847412109,4.559999942779541,4.599999904632568,3.8164431791215323,3.7839628412972264,3.7027619967364602,3.735242334560766,3.7596025879289963,0.02775952024345191,0.0,27.700000762939453,0.0,0.0,0.0,0.0,0.0,snow covered,0.254474848508835,-5.9464168548584,100.0,521.009155273438
frame_00191.png,1769536662664075362,1769536662.6640754,42.300031193296014,-83.69796407389185,236.18309020996094,0.7272258716091373,0.6863891558874124,-0.002445892100859486,-0.002544789642943899,-0.00012,0.01989,-0.00251,2.4719,0.055600000000000004,-9.7425,1.6818443377253287,3.762184872831297,4.75,4.759999752044678,4.849999904632568,4.880000114440918,3.8570437950000005,3.8651636858579925,3.9382446395607666,3.962605086527081,3.90576430173646,0.03816384195843881,0.0,28.225000381469727,0.0,0.0,0.0,0.0,0.0,snow covered,0.254474848508835,-5.9464168548584,100.0,521.009155273438
frame_00192.png,1769536662684613710,1769536662.6846137,42.30003149969841,-83.69796405961324,236.1836395263672,0.7272898272744557,0.6863223666785833,-0.0023063896951073435,-0.0024076350170392728,-0.016330000000000004,0.00461,0.00619,2.0279000000000003,0.7152000000000001,-10.8789,1.7420916617301143,3.8969545217905623,4.949999809265137,4.789999961853027,4.889999866485596,4.880000114440918,4.019445484121532,3.889524132824307,3.970724977385073,3.962605086527081,3.960574920214498,0.01632567125641069,0.0,28.075000762939453,0.0,0.0,0.0,0.0,0.0,snow covered,0.254474848508835,-5.9464168548584,100.0,521.009155273438
frame_00193.png,1769536662705569010,1769536662.705569,42.30003180692294,-83.69796403884607,236.18423461914062,0.7272882580683749,0.6863239096853648,-0.002279935786542616,-0.0024662852376087802,0.004850000000000001,0.013420000000000001,-0.0048000000000000004,2.4618,-0.2844,-9.9151,1.7828069358710725,3.9880321471274374,5.0,5.0,5.0,5.109999656677246,4.0600461,4.0600461,4.0600461,4.149366835418759,4.082376283854689,0.023656814500657274,0.0,28.200000762939453,0.0,0.0,0.0,0.0,0.0,snow covered,0.254474848508835,-5.9464168548584,100.0,521.009155273438
frame_00194.png,1769536662728369835,1769536662.72837,42.300032456237076,-83.69796400640801,236.18629455566406,0.7273064382831955,0.6863048824907237,-0.0023149936579529525,-0.0023651438793071988,-0.00801,-0.005080000000000001,0.0082,1.5691000000000002,0.1617,-10.2314,1.8226415203931563,4.077139722628267,5.109999656677246,5.099999904632568,5.329999923706055,5.230000019073486,4.149366835418759,4.141246944560766,4.328009080648613,4.246808236087847,4.216357774178996,0.03414600946297317,0.0,28.30000114440918,0.0,0.0,0.0,0.0,0.0,snow covered,0.254474848508835,-5.9464168548584,100.0,521.009155273438
frame_00195.png,1769536662747019101,1769536662.747019,42.30003278686939,-83.69796398627523,236.18740844726562,0.7273059874388828,0.6863054282979176,-0.0023684226620069543,-0.002291352975327137,-0.0022400000000000007,-0.010290000000000002,-0.0054800000000000005,2.2091000000000003,0.28140000000000004,-10.1051,1.8658423499742125,4.173777386351315,5.259999752044678,5.259999752044678,5.359999656677246,5.389999866485596,4.271168295857993,4.271168295857993,4.352369140418759,4.376729587385073,4.317858829879954,0.03452063447365467,0.0,28.575000762939453,0.0,0.0,0.0,0.0,0.0,snow covered,0.254474848508835,-5.9464168548584,100.0,521.009155273438
frame_00196.png,1769536662767444626,1769536662.7674448,42.30003312885351,-83.69796396944531,236.18881225585938,0.7273149752952752,0.6862954663589552,-0.002511562635257567,-0.0022697179354189546,0.012400000000000001,-0.00821,0.005560000000000001,1.6482,-0.1988,-10.237400000000001,1.9031824576920322,4.257304966909615,5.239999771118164,5.319999694824219,5.789999961853027,5.5,4.254928126945839,4.319888802594452,4.701533352824307,4.46605071,4.435600248091149,0.041879847125670965,0.0,28.850000381469727,0.0,0.0,0.0,0.0,0.0,snow covered,0.254474848508835,-5.9464168548584,100.0,521.009155273438
frame_00197.png,1769536662788161333,1769536662.7881613,42.30003347855206,-83.69796394361263,236.19041442871094,0.7273172962633121,0.6862930272053868,-0.002678113775789732,-0.002063751946244777,0.00595,-0.019670000000000003,0.00406,1.355,1.4873,-9.942300000000001,1.9621726999155686,4.3892625993491325,5.449999809265137,5.509999752044678,5.739999771118164,5.889999866485596,4.4254500941215325,4.474170600857992,4.660932736945839,4.782734197385073,4.58582190732761,0.04478185196930896,0.10000000149011612,29.100000381469727,0.0,0.0,0.0,0.0,0.0,snow covered,0.254474848508835,-5.9464168548584,100.0,521.009155273438
frame_00198.png,1769536662829518413,1769536662.8295183,42.300034193405175,-83.69796390154099,236.19357299804688,0.7273370811830351,0.6862715545706214,-0.002864794848549735,-0.001979058827172536,-0.00079,-0.00759,0.00885,2.0588,0.7353000000000001,-9.591000000000001,2.0443519887515853,4.573092737717972,5.679999828338623,5.710000038146973,6.25,6.039999961853027,4.612212230209379,4.636572677175694,5.075057625,4.904535657824306,4.807094547552344,0.051169268426238354,0.10000000149011612,29.450000762939453,0.0,0.0,0.0,0.0,0.0,snow covered,0.254474848508835,-5.9464168548584,100.0,521.009155273438
frame_00199.png,1769536662850188640,1769536662.8501885,42.30003456438594,-83.69796387518454,236.19473266601562,0.7273433965019076,0.6862644257680007,-0.0030032581285536764,-0.00192404027980638,-0.0012000000000000001,-0.0011200000000000003,0.0040100000000000005,1.3169,-0.2579,-9.4796,2.1012992589895947,4.700480364404184,5.809999942779541,5.759999752044678,6.089999675750732,6.489999771118164,4.7177735217364605,4.677172905857993,4.9451358865066055,5.2699396519458395,4.902505491511724,0.04297967685120803,0.10000000149011612,29.92500114440918,0.0,0.0,0.0,0.0,0.0,snow covered,0.254474848508835,-5.9464168548584,100.0,521.009155273438
frame_00200.png,1769536662870938325,1769536662.8709383,42.3000349345649,-83.69796384923985,236.1959228515625,0.727384151932172,0.6862212078309838,-0.0029888500917381144,-0.00195351376490166,-0.0005600000000000002,-0.00013000000000000002,-0.0006100000000000001,2.4766,-0.14730000000000001,-9.281600000000001,2.1459594947056737,4.80038263208691,5.96999979019165,5.87999963760376,6.859999656677246,6.440000057220459,4.847694873033686,4.774613919330911,5.570382970418759,5.229339423263541,5.105507796511724,0.06356267568865963,0.10000000149011612,30.30000114440918,0.0,0.0,0.0,0.0,0.0,snow covered,0.254474848508835,-5.9464168548584,100.0,521.009155273438
frame_00201.png,1769536662893603039,1769536662.893603,42.30003571097368,-83.69796380013042,236.19789123535156,0.7274089259158945,0.686194583021701,-0.0030893657480098565,-0.0019247204559844277,0.011150000000000002,-0.004300000000000001,0.0029700000000000004,1.3238,0.2837,-9.3848,2.180789526859538,4.878295324213175,6.0,6.009999752044678,6.730000019073486,6.539999961853027,4.87205532,4.880175210857993,5.464822066087847,5.310540267824307,5.131898216192537,0.05198596540898559,0.10000000149011612,30.825000762939453,0.0,0.0,0.0,0.0,0.0,snow covered,0.254474848508835,-5.9464168548584,100.0,521.009155273438
frame_00202.png,1769536662912658866,1769536662.912659,42.3000361051773,-83.6979637714247,236.1985626220703,0.7274152622924556,0.6861880579393516,-0.0030006312175656262,-0.0019953790906631842,-0.00792,0.007230000000000001,0.0017500000000000003,2.1057,-0.4535,-9.0394,2.2200832094920475,4.966192934641141,6.139999866485596,6.179999828338623,6.449999809265137,7.349999904632568,4.985736502385072,5.01821684020938,5.237459314121533,5.968267689560766,5.302420086569188,0.06770319968496008,0.10000000149011612,31.149999618530273,0.0,0.0,0.0,0.0,0.0,snow covered,0.254474848508835,-5.9464168548584,100.0,521.009155273438
frame_00203.png,1769536662933029968,1769536662.93303,42.300036511157835,-83.69796375031835,236.1993408203125,0.7274698594432294,0.6861298482044224,-0.0030026620014522235,-0.002102147837282078,0.012410000000000001,0.004560000000000001,0.0039000000000000007,2.3939,-0.1356,-9.902000000000001,2.263845741556117,5.06408709311654,6.269999980926514,6.269999980926514,7.480000019073486,8.309999465942383,5.091297793912154,5.091297793912154,6.073828981087847,6.747796184540291,5.751055188363112,0.1356548737442424,0.10000000149011612,31.625,0.0,0.0,0.0,0.0,0.0,snow covered,0.254474848508835,-5.9464168548584,100.0,521.009155273438
frame_00204.png,1769536662953649496,1769536662.9536495,42.30003692098678,-83.69796372657468,236.19960021972656,0.7275400964349239,0.6860552016003664,-0.0030199521017900536,-0.002132680436768588,-0.004430000000000001,0.011590000000000001,0.010440000000000001,0.7838,-0.6852,-8.9806,2.2999595562770216,5.144871529818321,6.420000076293945,6.349999904632568,7.929999828338623,8.869999885559082,5.213099254351387,5.1562584695607665,6.4392329752093795,7.2025216884729195,6.002778096898613,0.16674985217961055,0.10000000149011612,32.025001525878906,0.0,0.0,0.0,0.0,0.0,snow covered,0.254474848508835,-5.9464168548584,100.0,521.009155273438
frame_00205.png,1769536662976009164,1769536662.9760091,42.30003733407916,-83.69796369737698,236.19979858398438,0.7276299274411272,0.6859601288512749,-0.002876516620989065,-0.00226185112050892,0.005870000000000001,0.015450000000000002,0.010180000000000002,1.5848,0.7616,-9.114,2.3298510130562726,5.2117369251460985,6.539999961853027,6.529999732971191,7.289999961853027,11.460000038146973,5.310540267824307,5.302419989770145,5.9195471828243065,9.305625692175694,6.4595332831486125,0.23942044196091786,0.10000000149011612,32.47500228881836,0.0,0.0,0.0,0.0,0.0,snow covered,0.254474848508835,-5.9464168548584,100.0,521.009155273438
frame_00206.png,1769536662995677431,1769536662.9956775,42.300037757124244,-83.69796368031275,236.19998168945312,0.7276885737368235,0.685897294569581,-0.0028488070082046497,-0.002474924974028697,0.005770000000000001,0.00999,0.008860000000000002,2.3265000000000002,-1.7783,-10.1019,2.3723366501793697,5.306774746252239,6.579999923706055,6.549999713897705,6.960000038146973,13.229999542236328,5.343020605648613,5.318660158682299,5.651584202175694,10.742881608891679,6.764036643849571,0.27460406127591563,0.10000000149011612,32.92499923706055,0.0,0.0,0.0,0.0,0.0,snow covered,0.254474848508835,-5.9464168548584,100.0,521.009155273438
frame_00207.png,1769536663016212600,1769536663.0162125,42.30003818640455,-83.69796365839956,236.19992065429688,0.7278544861892249,0.6857215167324345,-0.0027638954847522545,-0.002491847936495807,0.0019100000000000002,0.009170000000000001,0.023200000000000005,1.6116000000000001,0.42610000000000003,-9.6453,2.405949505675684,5.381964687226165,6.759999752044678,6.759999752044678,6.449999809265137,17.15999984741211,5.489182125857993,5.489182125857993,5.237459314121533,13.934078091297227,7.537475414283686,0.4005062932080403,0.10000000149011612,33.04999923706055,0.0,0.0,0.0,0.0,0.0,snow covered,0.254474848508835,-5.9464168548584,100.0,521.009155273438
frame_00208.png,1769536663036577414,1769536663.0365775,42.30003861680363,-83.69796363684956,236.1998748779297,0.7280136688170114,0.6855519156525122,-0.0028504811307805047,-0.002558069211137694,0.009620000000000002,0.012850000000000002,0.015150000000000002,0.4015,0.48910000000000003,-10.374600000000001,2.4393585738811856,5.456698768257779,6.849999904632568,6.799999713897705,6.609999656677246,18.639999389648438,5.562263079560767,5.521662463682299,5.367380665418758,15.135851365188906,7.896789393462682,0.44717341543557065,0.10000000149011612,33.35000228881836,0.0,0.0,0.0,0.0,0.0,snow covered,0.254474848508835,-5.9464168548584,100.0,521.009155273438
frame_00209.png,1769536663057240853,1769536663.0572407,42.300039056207574,-83.69796361819523,236.2002410888672,0.7281574956785082,0.6853986939914453,-0.002839647896460248,-0.002688524102311743,0.006790000000000001,0.009380000000000001,0.010650000000000001,1.6675,-0.0771,-10.106300000000001,2.468394250169519,5.5216498339742035,6.949999809265137,6.799999713897705,7.029999732971191,19.649999618530273,5.643463924121533,5.521662463682299,5.7084245997701455,15.955980863243067,8.207382962704262,0.486400479835753,0.10000000149011612,33.75,0.0,0.0,0.0,0.0,0.0,snow covered,0.254474848508835,-5.9464168548584,100.0,521.009155273438
frame_00210.png,1769536663079640013,1769536663.0796402,42.30003994580026,-83.69796356149526,236.2012939453125,0.7282423424635878,0.6853076363006344,-0.0029334340173909393,-0.002815889921458597,0.018730000000000004,0.006270000000000001,0.014180000000000002,1.7664000000000002,-0.0664,-9.724300000000001,2.504072501215887,5.601459940869867,7.079999923706055,6.949999809265137,7.21999979019165,22.0,5.749025215648612,5.643463924121533,5.862706398033686,17.86420284,8.779849594450958,0.5674216520572868,0.10000000149011612,33.97500228881836,0.0,0.0,0.0,0.0,0.0,snow covered,0.254474848508835,-5.9464168548584,100.0,521.009155273438
frame_00211.png,1769536663099141249,1769536663.0991414,42.300040401912966,-83.69796354049238,236.20213317871094,0.7283492648120786,0.6851936680377505,-0.003014896452631352,-0.00281000499240975,-0.0034300000000000003,-0.013280000000000002,0.007580000000000002,1.7804,-0.8777,-10.3678,2.543408884448394,5.689453069977991,7.139999866485596,7.069999694824219,6.989999771118164,23.94999885559082,5.797745722385073,5.740904937594452,5.675944261945839,19.447619889729197,9.16555370291364,0.6109727227171057,0.10000000149011612,33.97500228881836,0.0,0.0,0.0,0.0,0.0,snow covered,0.254474848508835,-5.9464168548584,100.0,521.009155273438
frame_00212.png,1769536663119600296,1769536663.1196003,42.300040865050036,-83.69796350862426,236.2031707763672,0.728486975814455,0.6850476065569832,-0.003017841471002097,-0.0027194580552392304,-0.004790000000000001,-0.0049900000000000005,0.013570000000000002,1.7357,0.6387,-10.4814,2.575483096454466,5.761201157782853,7.329999923706055,7.029999732971191,6.960000038146973,23.94999885559082,5.952027520648613,5.7084245997701455,5.651584202175694,19.447619889729197,9.189914053080912,0.595138548610854,0.10000000149011612,34.29999923706055,0.0,0.0,0.0,0.0,0.0,snow covered,0.254474848508835,-5.9464168548584,100.0,521.009155273438
frame_00213.png,1769536663139981488,1769536663.1399815,42.300041329539866,-83.69796348249031,236.20425415039062,0.7284953306981596,0.6850382762824699,-0.0031494781726719113,-0.002682156997894465,0.005640000000000001,-0.008950000000000001,-0.00427,1.2846,-0.12560000000000002,-10.580400000000001,2.601233720613484,5.8188037589891275,7.440000057220459,7.329999923706055,7.319999694824219,22.6299991607666,6.041348643263541,5.952027520648613,5.943907242594452,18.375767967134742,9.078262843410338,0.560159651266098,0.10000000149011612,34.29999923706055,0.0,296.0,0.0,0.0,0.0,snow covered,0.254474848508835,-5.9464168548584,100.0,521.009155273438
frame_00214.png,1769536663160628797,1769536663.1606288,42.300041804570526,-83.6979634582634,236.20574951171875,0.7286159686103097,0.6849103531068629,-0.0031633016976638133,-0.002563594246747744,-0.0074,-0.011550000000000003,0.006,2.6088,-0.25780000000000003,-10.244900000000001,2.6650116761993092,5.961471218957283,7.62999963760376,7.309999942779541,7.919999599456787,21.010000228881836,6.195630054330912,5.93578735173646,6.431112697155218,17.06031389805416,8.905711000319187,0.4938780501026857,0.20000000298023224,34.20000076293945,0.0,388.0,0.0,0.0,0.0,snow covered,0.254474848508835,-5.9464168548584,100.0,521.009155273438
frame_00215.png,1769536663202270454,1769536663.2022705,42.30004277511691,-83.69796339976712,236.20880126953125,0.7287779685649608,0.6847389132171147,-0.0032082970930317673,-0.002236088177303563,-0.033830000000000006,-0.025820000000000003,0.006920000000000001,2.3117,-0.9407000000000001,-9.7425,2.7494679381641354,6.1503948095968815,8.449999809265137,7.609999656677246,7.429999828338623,18.459999084472656,6.861477754121532,6.179389885418758,6.033228365209379,14.989689457783356,8.515946365633257,0.384617838247594,0.800000011920929,34.025001525878906,0.0,324.0,0.0,0.0,0.0,snow covered,0.254474848508835,-5.9464168548584,100.0,521.009155273438
frame_00216.png,1769536663222695383,1769536663.2226954,42.30004327110973,-83.69796337314473,236.21043395996094,0.7288613819227853,0.6846510850454184,-0.003213247537799248,-0.0019112111342226526,-0.011770000000000001,-0.031100000000000003,0.012230000000000001,1.2311,1.7989000000000002,-10.114700000000001,2.7816017571554075,6.2222762346512175,8.829999923706055,7.799999713897705,7.549999713897705,16.31999969482422,7.170041350648613,6.333671683682299,6.130669378682298,13.251990222594452,8.221593158901916,0.3213160021917233,1.100000023841858,34.17499923706055,0.0,276.0,0.0,0.0,0.0,snow covered,0.254474848508835,-5.9464168548584,100.0,521.009155273438
frame_00217.png,1769536663243291002,1769536663.243291,42.300043775595896,-83.69796334160867,236.21218872070312,0.7289094774243349,0.6846005369024912,-0.003192539184853215,-0.0016989076952078734,-0.031650000000000005,-0.005040000000000001,0.0075200000000000015,1.7663,-0.7857000000000001,-9.34,2.8336795889879958,6.338771219790807,9.429999351501465,7.929999828338623,8.079999923706055,14.179999351501465,7.6572464180132105,6.4392329752093795,6.5610344356486126,11.51429021301321,8.042951010471104,0.2688501811454457,1.7000000476837158,34.125,0.0,276.0,0.0,0.0,0.0,snow covered,0.254474848508835,-5.9464168548584,100.0,521.009155273438
frame_00218.png,1769536663264067335,1769536663.2640674,42.30004428200934,-83.69796330650672,236.2135772705078,0.7289923422277095,0.6845134436013915,-0.0031143141516871116,-0.001345938218000726,-0.026620000000000005,-0.033120000000000004,0.0031400000000000004,2.3352,0.45690000000000003,-9.2324,2.884850744102848,6.453238023513425,10.219999313354492,7.779999732971191,8.319999694824219,12.859999656677246,8.298733670837517,6.317431514770146,6.7559164625944526,10.442438290418758,7.953629984655219,0.2325021881534311,2.200000047683716,34.17499923706055,0.0,244.0,0.0,0.0,0.0,snow covered,0.254474848508835,-5.9464168548584,100.0,521.009155273438
frame_00219.png,1769536663284826407,1769536663.2848263,42.300044798439,-83.69796328208785,236.2152099609375,0.7290547120431148,0.6844475667838289,-0.003097179006611008,-0.001078264173664765,-0.027540000000000005,-0.013050000000000003,-0.00022000000000000003,1.6511,-1.1472,-10.1591,2.9157279888406267,6.522308567357152,11.079999923706055,7.869999885559082,8.15999984741211,11.579999923706055,8.997062095648614,6.390512468472919,6.625995111297226,9.403066705648614,7.8541590952668425,0.2041992515618374,2.799999952316284,34.17499923706055,0.0,168.0,0.0,0.0,0.0,snow covered,0.254474848508835,-5.9464168548584,100.0,521.009155273438
frame_00220.png,1769536663305883743,1769536663.3058836,42.300045324609655,-83.69796324963362,236.21661376953125,0.7291118889110665,0.6843879384792695,-0.0028966951974638755,-0.0007824765590059305,-0.031580000000000004,0.0039900000000000005,0.007230000000000001,1.8296000000000001,-0.0626,-9.2561,2.947385952458859,6.59312553249332,11.65999984741211,8.079999923706055,8.289999961853027,9.719999313354492,9.468027381297226,6.5610344356486126,6.731556402824307,7.892729060837517,7.663336820151915,0.16232229803364198,3.1000001430511475,34.17499923706055,0.0,168.0,0.0,0.0,0.0,snow covered,0.254474848508835,-5.9464168548584,100.0,521.009155273438
frame_00221.png,1769536663326356844,1769536663.3263566,42.3000458539857,-83.69796321317045,236.21775817871094,0.729225082883946,0.6842686066717711,-0.0026570771861612204,-0.00043858545545064233,-0.044660000000000005,-0.007750000000000001,0.007550000000000001,2.0319000000000003,0.1312,-8.5004,2.995040474072348,6.699725838071399,11.559999465942383,8.260000228881836,8.609999656677246,8.34000015258789,9.38682614954029,6.707196343054161,6.9913991054187585,6.772157018702774,7.464394654178996,0.11413434438799612,3.4000000953674316,34.04999923706055,0.0,132.0,0.0,0.0,0.0,snow covered,0.254474848508835,-5.9464168548584,100.0,521.009155273438
frame_00222.png,1769536663346861820,1769536663.3468618,42.30004639181503,-83.69796319166495,236.21893310546875,0.7293377515405429,0.6841495518994485,-0.0024124509177873665,-0.0001220415425397912,-0.04805000000000001,-0.013110000000000002,0.006810000000000001,1.2503,-1.7402000000000002,-9.5669,3.0305189373281802,6.7790890316669,11.279999732971191,8.40999984741211,8.5,8.510000228881836,9.159463784770146,6.828997416297226,6.90207837,6.910198648054161,7.4501845547803836,0.09899494164756067,3.4000000953674316,33.97500228881836,0.0,96.0,0.0,0.0,0.0,snow covered,0.254474848508835,-5.9464168548584,100.0,521.009155273438
frame_00223.png,1769536663367927471,1769536663.3679276,42.30004693954247,-83.69796316600039,236.2197265625,0.7294471973255403,0.6840346477225335,-0.0018231012344255152,0.0002516563388561151,-0.06246000000000001,0.009940000000000001,0.0181,1.4616,0.9822000000000001,-8.857000000000001,3.0609867991608164,6.847243810514797,10.899999618530273,8.460000038146973,8.559999465942383,8.720000267028809,8.850900188243065,6.869598032175693,6.950798489540291,7.080720615229854,7.4380043312972255,0.08627712655349613,3.4000000953674316,33.79999923706055,0.0,16.0,0.0,0.0,0.0,snow covered,0.254474848508835,-5.9464168548584,100.0,521.009155273438
frame_00224.png,1769536663388792798,1769536663.3887928,42.30004748936272,-83.69796313233859,236.22027587890625,0.7295378121356989,0.683939029501891,-0.0013621595317203881,0.000359318353395622,-0.03703,0.017640000000000003,-0.00079,2.2929,-0.8117000000000001,-9.240400000000001,3.1031247119505383,6.941503793150638,10.429999351501465,8.529999732971191,8.84000015258789,8.760000228881836,8.46925563801321,6.926438429770146,7.1781616287027745,7.113200953054162,7.421764162385073,0.06918679057819155,3.299999952316284,33.85000228881836,0.0,0.0,0.0,0.0,0.0,snow covered,0.254474848508835,-5.9464168548584,100.0,521.009155273438
frame_00225.png,1769536663409549847,1769536663.4095497,42.30004804674076,-83.69796311753078,236.22076416015625,0.7296751845062373,0.6837933893177938,-0.000648647345158473,0.0005523564921496526,-0.07248000000000002,0.04997000000000001,0.016900000000000002,1.9421000000000002,-0.6161,-9.204600000000001,3.136156717340766,7.0153944072882535,9.279999732971191,8.710000038146973,8.989999771118164,8.949999809265137,7.535445344770146,7.072600337175694,7.299962701945839,7.267482364121533,7.293872687003303,0.03969531341327576,3.200000047683716,34.07500076293945,0.0,0.0,0.0,0.0,0.0,snow covered,0.254474848508835,-5.9464168548584,100.0,521.009155273438
